"rt","response","stim","video","question","box_colour_left","box_colour_right","correct_key","polarity","matching","modality","verbal","gesture","speaker","order","width","height","browser","vsync_rate","os","age","gender","handedness","date","blockNum","trialNum","error","vpNum"
"1563","j","SpeechGestureMatch","../RequiredFiles/videos/JaDaumenhoch_f.mp4","Ist der Ball in der grünen Box?","Green","Blue","F","affirmation","match","gesture","yes","ThumbUp","female","gesture-speech","1470","920","safari","30.38","Mac OS","21","female","right","Sat Oct 12 2024 17:30:57 GMT+0200 (Mitteleuropäische Sommerzeit)","1","1","1","1728750181301"
"1378","j","SpeechGestureMatch","../RequiredFiles/videos/NeinDaumenrunter_m_no_sound.mp4","Ist der Ball in der blauen Box?","Blue","Green","J","negation","na","gesture","na","ThumbDown","male","gesture-speech","1470","920","safari","30.38","Mac OS","21","female","right","Sat Oct 12 2024 17:31:04 GMT+0200 (Mitteleuropäische Sommerzeit)","1","2","0","1728750181301"
"1289","f","SpeechGestureMatch","../RequiredFiles/videos/JaDaumenhoch_f_no_sound.mp4","Ist der Ball in der grünen Box?","Green","Blue","F","affirmation","na","gesture","na","ThumbUp","female","gesture-speech","1470","920","safari","30.38","Mac OS","21","female","right","Sat Oct 12 2024 17:31:11 GMT+0200 (Mitteleuropäische Sommerzeit)","1","3","0","1728750181301"
"1233","j","SpeechGestureMatch","../RequiredFiles/videos/NeinDaumenrunter_f_no_sound.mp4","Ist der Ball in der grünen Box?","Green","Blue","J","negation","na","gesture","na","ThumbDown","female","gesture-speech","1470","920","safari","30.38","Mac OS","21","female","right","Sat Oct 12 2024 17:31:17 GMT+0200 (Mitteleuropäische Sommerzeit)","1","4","0","1728750181301"
"1248","f","SpeechGestureMatch","../RequiredFiles/videos/JaDaumenhoch_f.mp4","Ist der Ball in der grünen Box?","Blue","Green","J","affirmation","match","gesture","yes","ThumbUp","female","gesture-speech","1470","920","safari","30.38","Mac OS","21","female","right","Sat Oct 12 2024 17:31:24 GMT+0200 (Mitteleuropäische Sommerzeit)","1","5","1","1728750181301"
"1285","j","SpeechGestureMatch","../RequiredFiles/videos/NeinDaumenrunter_m.mp4","Ist der Ball in der grünen Box?","Blue","Green","F","negation","match","gesture","no","ThumbDown","male","gesture-speech","1470","920","safari","30.38","Mac OS","21","female","right","Sat Oct 12 2024 17:31:31 GMT+0200 (Mitteleuropäische Sommerzeit)","1","6","1","1728750181301"
"1399","j","SpeechGestureMatch","../RequiredFiles/videos/NeinDaumenrunter_f_no_sound.mp4","Ist der Ball in der blauen Box?","Blue","Green","J","negation","na","gesture","na","ThumbDown","female","gesture-speech","1470","920","safari","30.38","Mac OS","21","female","right","Sat Oct 12 2024 17:31:38 GMT+0200 (Mitteleuropäische Sommerzeit)","1","7","0","1728750181301"
"1164","f","SpeechGestureMatch","../RequiredFiles/videos/NeinDaumenhoch_f_no_sound.mp4","Ist der Ball in der blauen Box?","Blue","Green","F","affirmation","na","gesture","na","ThumbUp","female","gesture-speech","1470","920","safari","30.38","Mac OS","21","female","right","Sat Oct 12 2024 17:31:45 GMT+0200 (Mitteleuropäische Sommerzeit)","1","8","0","1728750181301"
"1258","f","SpeechGestureMatch","../RequiredFiles/videos/JaDaumenhoch_m.mp4","Ist der Ball in der grünen Box?","Green","Blue","F","affirmation","match","gesture","yes","ThumbUp","male","gesture-speech","1470","920","safari","30.38","Mac OS","21","female","right","Sat Oct 12 2024 17:31:51 GMT+0200 (Mitteleuropäische Sommerzeit)","1","9","0","1728750181301"
"1233","j","SpeechGestureMatch","../RequiredFiles/videos/JaDaumenrunter_f.mp4","Ist der Ball in der grünen Box?","Green","Blue","J","negation","mismatch","gesture","yes","ThumbDown","female","gesture-speech","1470","920","safari","30.38","Mac OS","21","female","right","Sat Oct 12 2024 17:31:58 GMT+0200 (Mitteleuropäische Sommerzeit)","1","10","0","1728750181301"
"1156","j","SpeechGestureMatch","../RequiredFiles/videos/JaDaumenrunter_f_no_sound.mp4","Ist der Ball in der blauen Box?","Blue","Green","J","negation","na","gesture","na","ThumbDown","female","gesture-speech","1470","920","safari","30.38","Mac OS","21","female","right","Sat Oct 12 2024 17:32:05 GMT+0200 (Mitteleuropäische Sommerzeit)","1","11","0","1728750181301"
"1327","j","SpeechGestureMatch","../RequiredFiles/videos/NeinDaumenrunter_m.mp4","Ist der Ball in der blauen Box?","Blue","Green","J","negation","match","gesture","no","ThumbDown","male","gesture-speech","1470","920","safari","30.38","Mac OS","21","female","right","Sat Oct 12 2024 17:32:12 GMT+0200 (Mitteleuropäische Sommerzeit)","1","12","0","1728750181301"
"1221","f","SpeechGestureMatch","../RequiredFiles/videos/NeinDaumenhoch_f.mp4","Ist der Ball in der grünen Box?","Blue","Green","J","affirmation","mismatch","gesture","no","ThumbUp","female","gesture-speech","1470","920","safari","30.38","Mac OS","21","female","right","Sat Oct 12 2024 17:32:18 GMT+0200 (Mitteleuropäische Sommerzeit)","1","13","1","1728750181301"
"1331","j","SpeechGestureMatch","../RequiredFiles/videos/NeinDaumenrunter_f.mp4","Ist der Ball in der blauen Box?","Green","Blue","F","negation","match","gesture","no","ThumbDown","female","gesture-speech","1470","920","safari","30.38","Mac OS","21","female","right","Sat Oct 12 2024 17:32:25 GMT+0200 (Mitteleuropäische Sommerzeit)","1","14","1","1728750181301"
"1477","j","SpeechGestureMatch","../RequiredFiles/videos/JaDaumenhoch_f_no_sound.mp4","Ist der Ball in der blauen Box?","Green","Blue","J","affirmation","na","gesture","na","ThumbUp","female","gesture-speech","1470","920","safari","30.38","Mac OS","21","female","right","Sat Oct 12 2024 17:32:32 GMT+0200 (Mitteleuropäische Sommerzeit)","1","15","0","1728750181301"
"1204","f","SpeechGestureMatch","../RequiredFiles/videos/NeinDaumenhoch_m.mp4","Ist der Ball in der grünen Box?","Green","Blue","F","affirmation","mismatch","gesture","no","ThumbUp","male","gesture-speech","1470","920","safari","30.38","Mac OS","21","female","right","Sat Oct 12 2024 17:32:39 GMT+0200 (Mitteleuropäische Sommerzeit)","1","16","0","1728750181301"
"1220","j","SpeechGestureMatch","../RequiredFiles/videos/JaDaumenrunter_m.mp4","Ist der Ball in der grünen Box?","Blue","Green","F","negation","mismatch","gesture","yes","ThumbDown","male","gesture-speech","1470","920","safari","30.38","Mac OS","21","female","right","Sat Oct 12 2024 17:32:46 GMT+0200 (Mitteleuropäische Sommerzeit)","1","17","1","1728750181301"
"1264","f","SpeechGestureMatch","../RequiredFiles/videos/JaDaumenrunter_f.mp4","Ist der Ball in der grünen Box?","Blue","Green","F","negation","mismatch","gesture","yes","ThumbDown","female","gesture-speech","1470","920","safari","30.38","Mac OS","21","female","right","Sat Oct 12 2024 17:32:53 GMT+0200 (Mitteleuropäische Sommerzeit)","1","18","0","1728750181301"
"1271","j","SpeechGestureMatch","../RequiredFiles/videos/NeinDaumenrunter_f.mp4","Ist der Ball in der grünen Box?","Green","Blue","J","negation","match","gesture","no","ThumbDown","female","gesture-speech","1470","920","safari","30.38","Mac OS","21","female","right","Sat Oct 12 2024 17:32:59 GMT+0200 (Mitteleuropäische Sommerzeit)","1","19","0","1728750181301"
"1187","j","SpeechGestureMatch","../RequiredFiles/videos/JaDaumenhoch_f.mp4","Ist der Ball in der grünen Box?","Green","Blue","F","affirmation","match","gesture","yes","ThumbUp","female","gesture-speech","1470","920","safari","30.38","Mac OS","21","female","right","Sat Oct 12 2024 17:33:06 GMT+0200 (Mitteleuropäische Sommerzeit)","1","20","1","1728750181301"
"2049","j","SpeechGestureMatch","../RequiredFiles/videos/NeinDaumenrunter_m.mp4","Ist der Ball in der blauen Box?","Green","Blue","F","negation","match","gesture","no","ThumbDown","male","gesture-speech","1470","920","safari","30.38","Mac OS","21","female","right","Sat Oct 12 2024 17:33:14 GMT+0200 (Mitteleuropäische Sommerzeit)","1","21","1","1728750181301"
"1178","f","SpeechGestureMatch","../RequiredFiles/videos/NeinDaumenhoch_m_no_sound.mp4","Ist der Ball in der blauen Box?","Blue","Green","F","affirmation","na","gesture","na","ThumbUp","male","gesture-speech","1470","920","safari","30.38","Mac OS","21","female","right","Sat Oct 12 2024 17:33:20 GMT+0200 (Mitteleuropäische Sommerzeit)","1","22","0","1728750181301"
"1128","f","SpeechGestureMatch","../RequiredFiles/videos/NeinDaumenrunter_f.mp4","Ist der Ball in der grünen Box?","Blue","Green","F","negation","match","gesture","no","ThumbDown","female","gesture-speech","1470","920","safari","30.38","Mac OS","21","female","right","Sat Oct 12 2024 17:33:27 GMT+0200 (Mitteleuropäische Sommerzeit)","1","23","0","1728750181301"
"1120","j","SpeechGestureMatch","../RequiredFiles/videos/JaDaumenhoch_f.mp4","Ist der Ball in der blauen Box?","Blue","Green","F","affirmation","match","gesture","yes","ThumbUp","female","gesture-speech","1470","920","safari","30.38","Mac OS","21","female","right","Sat Oct 12 2024 17:33:34 GMT+0200 (Mitteleuropäische Sommerzeit)","1","24","1","1728750181301"
"1539","j","SpeechGestureMatch","../RequiredFiles/videos/NeinDaumenhoch_m.mp4","Ist der Ball in der grünen Box?","Green","Blue","F","affirmation","mismatch","gesture","no","ThumbUp","male","gesture-speech","1470","920","safari","30.38","Mac OS","21","female","right","Sat Oct 12 2024 17:33:41 GMT+0200 (Mitteleuropäische Sommerzeit)","1","25","1","1728750181301"
"1214","f","SpeechGestureMatch","../RequiredFiles/videos/JaDaumenhoch_m.mp4","Ist der Ball in der blauen Box?","Green","Blue","J","affirmation","match","gesture","yes","ThumbUp","male","gesture-speech","1470","920","safari","30.38","Mac OS","21","female","right","Sat Oct 12 2024 17:33:48 GMT+0200 (Mitteleuropäische Sommerzeit)","1","26","1","1728750181301"
"647","f","SpeechGestureMatch","../RequiredFiles/videos/NeinDaumenhoch_f.mp4","Ist der Ball in der blauen Box?","Blue","Green","F","affirmation","mismatch","gesture","no","ThumbUp","female","gesture-speech","1470","920","safari","30.38","Mac OS","21","female","right","Sat Oct 12 2024 17:33:54 GMT+0200 (Mitteleuropäische Sommerzeit)","1","27","0","1728750181301"
"1157","f","SpeechGestureMatch","../RequiredFiles/videos/NeinDaumenrunter_m.mp4","Ist der Ball in der grünen Box?","Blue","Green","F","negation","match","gesture","no","ThumbDown","male","gesture-speech","1470","920","safari","30.38","Mac OS","21","female","right","Sat Oct 12 2024 17:34:00 GMT+0200 (Mitteleuropäische Sommerzeit)","1","28","0","1728750181301"
"1238","f","SpeechGestureMatch","../RequiredFiles/videos/NeinDaumenhoch_f.mp4","Ist der Ball in der grünen Box?","Green","Blue","F","affirmation","mismatch","gesture","no","ThumbUp","female","gesture-speech","1470","920","safari","30.38","Mac OS","21","female","right","Sat Oct 12 2024 17:34:07 GMT+0200 (Mitteleuropäische Sommerzeit)","1","29","0","1728750181301"
"1187","f","SpeechGestureMatch","../RequiredFiles/videos/NeinDaumenhoch_m_no_sound.mp4","Ist der Ball in der grünen Box?","Blue","Green","J","affirmation","na","gesture","na","ThumbUp","male","gesture-speech","1470","920","safari","30.38","Mac OS","21","female","right","Sat Oct 12 2024 17:34:14 GMT+0200 (Mitteleuropäische Sommerzeit)","1","30","1","1728750181301"
"1202","j","SpeechGestureMatch","../RequiredFiles/videos/JaDaumenrunter_f.mp4","Ist der Ball in der blauen Box?","Green","Blue","F","negation","mismatch","gesture","yes","ThumbDown","female","gesture-speech","1470","920","safari","30.38","Mac OS","21","female","right","Sat Oct 12 2024 17:34:21 GMT+0200 (Mitteleuropäische Sommerzeit)","1","31","1","1728750181301"
"1309","j","SpeechGestureMatch","../RequiredFiles/videos/NeinDaumenhoch_f.mp4","Ist der Ball in der blauen Box?","Green","Blue","J","affirmation","mismatch","gesture","no","ThumbUp","female","gesture-speech","1470","920","safari","30.38","Mac OS","21","female","right","Sat Oct 12 2024 17:34:28 GMT+0200 (Mitteleuropäische Sommerzeit)","1","32","0","1728750181301"
"1097","j","SpeechGestureMatch","../RequiredFiles/videos/JaDaumenhoch_m_no_sound.mp4","Ist der Ball in der grünen Box?","Green","Blue","F","affirmation","na","gesture","na","ThumbUp","male","gesture-speech","1470","920","safari","30.38","Mac OS","21","female","right","Sat Oct 12 2024 17:34:34 GMT+0200 (Mitteleuropäische Sommerzeit)","1","33","1","1728750181301"
"1117","j","SpeechGestureMatch","../RequiredFiles/videos/NeinDaumenhoch_m.mp4","Ist der Ball in der blauen Box?","Blue","Green","F","affirmation","mismatch","gesture","no","ThumbUp","male","gesture-speech","1470","920","safari","30.38","Mac OS","21","female","right","Sat Oct 12 2024 17:34:41 GMT+0200 (Mitteleuropäische Sommerzeit)","1","34","1","1728750181301"
"1139","f","SpeechGestureMatch","../RequiredFiles/videos/JaDaumenhoch_f_no_sound.mp4","Ist der Ball in der blauen Box?","Blue","Green","F","affirmation","na","gesture","na","ThumbUp","female","gesture-speech","1470","920","safari","30.38","Mac OS","21","female","right","Sat Oct 12 2024 17:34:48 GMT+0200 (Mitteleuropäische Sommerzeit)","1","35","0","1728750181301"
"1240","f","SpeechGestureMatch","../RequiredFiles/videos/JaDaumenhoch_f.mp4","Ist der Ball in der blauen Box?","Blue","Green","F","affirmation","match","gesture","yes","ThumbUp","female","gesture-speech","1470","920","safari","30.38","Mac OS","21","female","right","Sat Oct 12 2024 17:34:54 GMT+0200 (Mitteleuropäische Sommerzeit)","1","36","0","1728750181301"
"1163","f","SpeechGestureMatch","../RequiredFiles/videos/JaDaumenhoch_m_no_sound.mp4","Ist der Ball in der blauen Box?","Green","Blue","J","affirmation","na","gesture","na","ThumbUp","male","gesture-speech","1470","920","safari","30.38","Mac OS","21","female","right","Sat Oct 12 2024 17:35:01 GMT+0200 (Mitteleuropäische Sommerzeit)","1","37","1","1728750181301"
"1309","j","SpeechGestureMatch","../RequiredFiles/videos/NeinDaumenhoch_f.mp4","Ist der Ball in der blauen Box?","Blue","Green","F","affirmation","mismatch","gesture","no","ThumbUp","female","gesture-speech","1470","920","safari","30.38","Mac OS","21","female","right","Sat Oct 12 2024 17:35:08 GMT+0200 (Mitteleuropäische Sommerzeit)","1","38","1","1728750181301"
"1258","f","SpeechGestureMatch","../RequiredFiles/videos/JaDaumenhoch_f.mp4","Ist der Ball in der blauen Box?","Green","Blue","J","affirmation","match","gesture","yes","ThumbUp","female","gesture-speech","1470","920","safari","30.38","Mac OS","21","female","right","Sat Oct 12 2024 17:35:15 GMT+0200 (Mitteleuropäische Sommerzeit)","1","39","1","1728750181301"
"1322","f","SpeechGestureMatch","../RequiredFiles/videos/JaDaumenrunter_m.mp4","Ist der Ball in der blauen Box?","Green","Blue","F","negation","mismatch","gesture","yes","ThumbDown","male","gesture-speech","1470","920","safari","30.38","Mac OS","21","female","right","Sat Oct 12 2024 17:35:21 GMT+0200 (Mitteleuropäische Sommerzeit)","1","40","0","1728750181301"
"1192","j","SpeechGestureMatch","../RequiredFiles/videos/JaDaumenrunter_m.mp4","Ist der Ball in der grünen Box?","Blue","Green","F","negation","mismatch","gesture","yes","ThumbDown","male","gesture-speech","1470","920","safari","30.38","Mac OS","21","female","right","Sat Oct 12 2024 17:35:28 GMT+0200 (Mitteleuropäische Sommerzeit)","1","41","1","1728750181301"
"1202","f","SpeechGestureMatch","../RequiredFiles/videos/JaDaumenhoch_f.mp4","Ist der Ball in der grünen Box?","Blue","Green","J","affirmation","match","gesture","yes","ThumbUp","female","gesture-speech","1470","920","safari","30.38","Mac OS","21","female","right","Sat Oct 12 2024 17:35:35 GMT+0200 (Mitteleuropäische Sommerzeit)","1","42","1","1728750181301"
"1281","j","SpeechGestureMatch","../RequiredFiles/videos/JaDaumenrunter_m.mp4","Ist der Ball in der blauen Box?","Blue","Green","J","negation","mismatch","gesture","yes","ThumbDown","male","gesture-speech","1470","920","safari","30.38","Mac OS","21","female","right","Sat Oct 12 2024 17:35:42 GMT+0200 (Mitteleuropäische Sommerzeit)","1","43","0","1728750181301"
"1630","j","SpeechGestureMatch","../RequiredFiles/videos/JaDaumenrunter_f_no_sound.mp4","Ist der Ball in der grünen Box?","Green","Blue","J","negation","na","gesture","na","ThumbDown","female","gesture-speech","1470","920","safari","30.38","Mac OS","21","female","right","Sat Oct 12 2024 17:35:49 GMT+0200 (Mitteleuropäische Sommerzeit)","1","44","0","1728750181301"
"1226","j","SpeechGestureMatch","../RequiredFiles/videos/NeinDaumenhoch_f_no_sound.mp4","Ist der Ball in der grünen Box?","Blue","Green","J","affirmation","na","gesture","na","ThumbUp","female","gesture-speech","1470","920","safari","30.38","Mac OS","21","female","right","Sat Oct 12 2024 17:35:56 GMT+0200 (Mitteleuropäische Sommerzeit)","1","45","0","1728750181301"
"534","j","SpeechGestureMatch","../RequiredFiles/videos/NeinDaumenrunter_m.mp4","Ist der Ball in der blauen Box?","Blue","Green","J","negation","match","gesture","no","ThumbDown","male","gesture-speech","1470","920","safari","30.38","Mac OS","21","female","right","Sat Oct 12 2024 17:36:02 GMT+0200 (Mitteleuropäische Sommerzeit)","1","46","0","1728750181301"
"650","j","SpeechGestureMatch","../RequiredFiles/videos/JaDaumenrunter_m_no_sound.mp4","Ist der Ball in der blauen Box?","Blue","Green","J","negation","na","gesture","na","ThumbDown","male","gesture-speech","1470","920","safari","30.38","Mac OS","21","female","right","Sat Oct 12 2024 17:36:08 GMT+0200 (Mitteleuropäische Sommerzeit)","1","47","0","1728750181301"
"1231","j","SpeechGestureMatch","../RequiredFiles/videos/NeinDaumenhoch_m.mp4","Ist der Ball in der grünen Box?","Blue","Green","J","affirmation","mismatch","gesture","no","ThumbUp","male","gesture-speech","1470","920","safari","30.38","Mac OS","21","female","right","Sat Oct 12 2024 17:36:15 GMT+0200 (Mitteleuropäische Sommerzeit)","1","48","0","1728750181301"
"1033","j","SpeechGestureMatch","../RequiredFiles/videos/NeinDaumenhoch_m_no_sound.mp4","Ist der Ball in der blauen Box?","Green","Blue","J","affirmation","na","gesture","na","ThumbUp","male","gesture-speech","1470","920","safari","30.38","Mac OS","21","female","right","Sat Oct 12 2024 17:36:21 GMT+0200 (Mitteleuropäische Sommerzeit)","1","49","0","1728750181301"
"1407","j","SpeechGestureMatch","../RequiredFiles/videos/NeinDaumenrunter_f.mp4","Ist der Ball in der grünen Box?","Blue","Green","F","negation","match","gesture","no","ThumbDown","female","gesture-speech","1470","920","safari","30.38","Mac OS","21","female","right","Sat Oct 12 2024 17:36:28 GMT+0200 (Mitteleuropäische Sommerzeit)","1","50","1","1728750181301"
"1102","j","SpeechGestureMatch","../RequiredFiles/videos/NeinDaumenrunter_m_no_sound.mp4","Ist der Ball in der grünen Box?","Blue","Green","F","negation","na","gesture","na","ThumbDown","male","gesture-speech","1470","920","safari","30.38","Mac OS","21","female","right","Sat Oct 12 2024 17:36:35 GMT+0200 (Mitteleuropäische Sommerzeit)","1","51","1","1728750181301"
"1507","j","SpeechGestureMatch","../RequiredFiles/videos/JaDaumenrunter_m.mp4","Ist der Ball in der blauen Box?","Blue","Green","J","negation","mismatch","gesture","yes","ThumbDown","male","gesture-speech","1470","920","safari","30.38","Mac OS","21","female","right","Sat Oct 12 2024 17:36:42 GMT+0200 (Mitteleuropäische Sommerzeit)","1","52","0","1728750181301"
"4460","j","SpeechGestureMatch","../RequiredFiles/videos/JaDaumenrunter_m.mp4","Ist der Ball in der blauen Box?","Green","Blue","F","negation","mismatch","gesture","yes","ThumbDown","male","gesture-speech","1470","920","safari","30.38","Mac OS","21","female","right","Sat Oct 12 2024 17:36:52 GMT+0200 (Mitteleuropäische Sommerzeit)","1","53","1","1728750181301"
"815","f","SpeechGestureMatch","../RequiredFiles/videos/JaDaumenhoch_m.mp4","Ist der Ball in der blauen Box?","Blue","Green","F","affirmation","match","gesture","yes","ThumbUp","male","gesture-speech","1470","920","safari","30.38","Mac OS","21","female","right","Sat Oct 12 2024 17:36:58 GMT+0200 (Mitteleuropäische Sommerzeit)","1","54","0","1728750181301"
"1382","j","SpeechGestureMatch","../RequiredFiles/videos/JaDaumenhoch_f_no_sound.mp4","Ist der Ball in der grünen Box?","Blue","Green","J","affirmation","na","gesture","na","ThumbUp","female","gesture-speech","1470","920","safari","30.38","Mac OS","21","female","right","Sat Oct 12 2024 17:37:05 GMT+0200 (Mitteleuropäische Sommerzeit)","1","55","0","1728750181301"
"1760","f","SpeechGestureMatch","../RequiredFiles/videos/NeinDaumenrunter_f.mp4","Ist der Ball in der blauen Box?","Blue","Green","J","negation","match","gesture","no","ThumbDown","female","gesture-speech","1470","920","safari","30.38","Mac OS","21","female","right","Sat Oct 12 2024 17:37:13 GMT+0200 (Mitteleuropäische Sommerzeit)","1","56","1","1728750181301"
"1701","j","SpeechGestureMatch","../RequiredFiles/videos/JaDaumenrunter_f_no_sound.mp4","Ist der Ball in der blauen Box?","Green","Blue","F","negation","na","gesture","na","ThumbDown","female","gesture-speech","1470","920","safari","30.38","Mac OS","21","female","right","Sat Oct 12 2024 17:37:20 GMT+0200 (Mitteleuropäische Sommerzeit)","1","57","1","1728750181301"
"1410","f","SpeechGestureMatch","../RequiredFiles/videos/JaDaumenhoch_m.mp4","Ist der Ball in der grünen Box?","Green","Blue","F","affirmation","match","gesture","yes","ThumbUp","male","gesture-speech","1470","920","safari","30.38","Mac OS","21","female","right","Sat Oct 12 2024 17:37:27 GMT+0200 (Mitteleuropäische Sommerzeit)","1","58","0","1728750181301"
"1243","j","SpeechGestureMatch","../RequiredFiles/videos/NeinDaumenrunter_m_no_sound.mp4","Ist der Ball in der grünen Box?","Green","Blue","J","negation","na","gesture","na","ThumbDown","male","gesture-speech","1470","920","safari","30.38","Mac OS","21","female","right","Sat Oct 12 2024 17:37:34 GMT+0200 (Mitteleuropäische Sommerzeit)","1","59","0","1728750181301"
"1142","f","SpeechGestureMatch","../RequiredFiles/videos/JaDaumenrunter_m_no_sound.mp4","Ist der Ball in der grünen Box?","Green","Blue","J","negation","na","gesture","na","ThumbDown","male","gesture-speech","1470","920","safari","30.38","Mac OS","21","female","right","Sat Oct 12 2024 17:37:40 GMT+0200 (Mitteleuropäische Sommerzeit)","1","60","1","1728750181301"
"1325","j","SpeechGestureMatch","../RequiredFiles/videos/NeinDaumenrunter_f.mp4","Ist der Ball in der blauen Box?","Green","Blue","F","negation","match","gesture","no","ThumbDown","female","gesture-speech","1470","920","safari","30.38","Mac OS","21","female","right","Sat Oct 12 2024 17:37:47 GMT+0200 (Mitteleuropäische Sommerzeit)","1","61","1","1728750181301"
"1423","f","SpeechGestureMatch","../RequiredFiles/videos/NeinDaumenhoch_m.mp4","Ist der Ball in der blauen Box?","Green","Blue","J","affirmation","mismatch","gesture","no","ThumbUp","male","gesture-speech","1470","920","safari","30.38","Mac OS","21","female","right","Sat Oct 12 2024 17:37:54 GMT+0200 (Mitteleuropäische Sommerzeit)","1","62","1","1728750181301"
"1349","j","SpeechGestureMatch","../RequiredFiles/videos/NeinDaumenhoch_m_no_sound.mp4","Ist der Ball in der grünen Box?","Green","Blue","F","affirmation","na","gesture","na","ThumbUp","male","gesture-speech","1470","920","safari","30.38","Mac OS","21","female","right","Sat Oct 12 2024 17:38:01 GMT+0200 (Mitteleuropäische Sommerzeit)","1","63","1","1728750181301"
"1204","j","SpeechGestureMatch","../RequiredFiles/videos/NeinDaumenhoch_f.mp4","Ist der Ball in der grünen Box?","Blue","Green","J","affirmation","mismatch","gesture","no","ThumbUp","female","gesture-speech","1470","920","safari","30.38","Mac OS","21","female","right","Sat Oct 12 2024 17:38:08 GMT+0200 (Mitteleuropäische Sommerzeit)","1","64","0","1728750181301"
"1637","j","SpeechGestureMatch","../RequiredFiles/videos/JaDaumenrunter_f.mp4","Ist der Ball in der grünen Box?","Green","Blue","J","negation","mismatch","gesture","yes","ThumbDown","female","gesture-speech","1470","920","safari","30.38","Mac OS","21","female","right","Sat Oct 12 2024 17:38:15 GMT+0200 (Mitteleuropäische Sommerzeit)","1","65","0","1728750181301"
"674","j","SpeechGestureMatch","../RequiredFiles/videos/NeinDaumenrunter_m.mp4","Ist der Ball in der grünen Box?","Green","Blue","J","negation","match","gesture","no","ThumbDown","male","gesture-speech","1470","920","safari","30.38","Mac OS","21","female","right","Sat Oct 12 2024 17:38:21 GMT+0200 (Mitteleuropäische Sommerzeit)","1","66","0","1728750181301"
"1209","j","SpeechGestureMatch","../RequiredFiles/videos/JaDaumenrunter_f.mp4","Ist der Ball in der blauen Box?","Blue","Green","J","negation","mismatch","gesture","yes","ThumbDown","female","gesture-speech","1470","920","safari","30.38","Mac OS","21","female","right","Sat Oct 12 2024 17:38:28 GMT+0200 (Mitteleuropäische Sommerzeit)","1","67","0","1728750181301"
"1237","j","SpeechGestureMatch","../RequiredFiles/videos/JaDaumenrunter_f.mp4","Ist der Ball in der blauen Box?","Blue","Green","J","negation","mismatch","gesture","yes","ThumbDown","female","gesture-speech","1470","920","safari","30.38","Mac OS","21","female","right","Sat Oct 12 2024 17:38:35 GMT+0200 (Mitteleuropäische Sommerzeit)","1","68","0","1728750181301"
"1511","j","SpeechGestureMatch","../RequiredFiles/videos/JaDaumenhoch_m.mp4","Ist der Ball in der grünen Box?","Blue","Green","J","affirmation","match","gesture","yes","ThumbUp","male","gesture-speech","1470","920","safari","30.38","Mac OS","21","female","right","Sat Oct 12 2024 17:38:42 GMT+0200 (Mitteleuropäische Sommerzeit)","1","69","0","1728750181301"
"1326","j","SpeechGestureMatch","../RequiredFiles/videos/JaDaumenrunter_f.mp4","Ist der Ball in der blauen Box?","Green","Blue","F","negation","mismatch","gesture","yes","ThumbDown","female","gesture-speech","1470","920","safari","30.38","Mac OS","21","female","right","Sat Oct 12 2024 17:38:48 GMT+0200 (Mitteleuropäische Sommerzeit)","1","70","1","1728750181301"
"4132","j","SpeechGestureMatch","../RequiredFiles/videos/NeinDaumenhoch_f_no_sound.mp4","Ist der Ball in der blauen Box?","Green","Blue","J","affirmation","na","gesture","na","ThumbUp","female","gesture-speech","1470","920","safari","30.38","Mac OS","21","female","right","Sat Oct 12 2024 17:38:58 GMT+0200 (Mitteleuropäische Sommerzeit)","1","71","0","1728750181301"
"3426","j","SpeechGestureMatch","../RequiredFiles/videos/JaDaumenrunter_m_no_sound.mp4","Ist der Ball in der blauen Box?","Green","Blue","F","negation","na","gesture","na","ThumbDown","male","gesture-speech","1470","920","safari","30.38","Mac OS","21","female","right","Sat Oct 12 2024 17:39:07 GMT+0200 (Mitteleuropäische Sommerzeit)","1","72","1","1728750181301"
"2287","j","SpeechGestureMatch","../RequiredFiles/videos/JaDaumenrunter_f.mp4","Ist der Ball in der grünen Box?","Blue","Green","F","negation","mismatch","gesture","yes","ThumbDown","female","gesture-speech","1470","920","safari","30.38","Mac OS","21","female","right","Sat Oct 12 2024 17:39:15 GMT+0200 (Mitteleuropäische Sommerzeit)","1","73","1","1728750181301"
"3550","j","SpeechGestureMatch","../RequiredFiles/videos/JaDaumenhoch_m.mp4","Ist der Ball in der grünen Box?","Blue","Green","J","affirmation","match","gesture","yes","ThumbUp","male","gesture-speech","1470","920","safari","30.38","Mac OS","21","female","right","Sat Oct 12 2024 17:39:24 GMT+0200 (Mitteleuropäische Sommerzeit)","1","74","0","1728750181301"
"1414","j","SpeechGestureMatch","../RequiredFiles/videos/NeinDaumenhoch_f.mp4","Ist der Ball in der blauen Box?","Green","Blue","J","affirmation","mismatch","gesture","no","ThumbUp","female","gesture-speech","1470","920","safari","30.38","Mac OS","21","female","right","Sat Oct 12 2024 17:39:31 GMT+0200 (Mitteleuropäische Sommerzeit)","1","75","0","1728750181301"
"2674","j","SpeechGestureMatch","../RequiredFiles/videos/NeinDaumenhoch_f_no_sound.mp4","Ist der Ball in der grünen Box?","Green","Blue","F","affirmation","na","gesture","na","ThumbUp","female","gesture-speech","1470","920","safari","30.38","Mac OS","21","female","right","Sat Oct 12 2024 17:39:39 GMT+0200 (Mitteleuropäische Sommerzeit)","1","76","1","1728750181301"
"8867","j","SpeechGestureMatch","../RequiredFiles/videos/NeinDaumenrunter_m_no_sound.mp4","Ist der Ball in der blauen Box?","Green","Blue","F","negation","na","gesture","na","ThumbDown","male","gesture-speech","1470","920","safari","30.38","Mac OS","21","female","right","Sat Oct 12 2024 17:39:54 GMT+0200 (Mitteleuropäische Sommerzeit)","1","77","1","1728750181301"
"774","j","SpeechGestureMatch","../RequiredFiles/videos/JaDaumenhoch_m_no_sound.mp4","Ist der Ball in der grünen Box?","Blue","Green","J","affirmation","na","gesture","na","ThumbUp","male","gesture-speech","1470","920","safari","30.38","Mac OS","21","female","right","Sat Oct 12 2024 17:40:00 GMT+0200 (Mitteleuropäische Sommerzeit)","1","78","0","1728750181301"
"3104","j","SpeechGestureMatch","../RequiredFiles/videos/JaDaumenrunter_f_no_sound.mp4","Ist der Ball in der grünen Box?","Blue","Green","F","negation","na","gesture","na","ThumbDown","female","gesture-speech","1470","920","safari","30.38","Mac OS","21","female","right","Sat Oct 12 2024 17:40:09 GMT+0200 (Mitteleuropäische Sommerzeit)","1","79","1","1728750181301"
"1944","j","SpeechGestureMatch","../RequiredFiles/videos/NeinDaumenhoch_m.mp4","Ist der Ball in der grünen Box?","Blue","Green","J","affirmation","mismatch","gesture","no","ThumbUp","male","gesture-speech","1470","920","safari","30.38","Mac OS","21","female","right","Sat Oct 12 2024 17:40:16 GMT+0200 (Mitteleuropäische Sommerzeit)","1","80","0","1728750181301"
"591","j","SpeechGestureMatch","../RequiredFiles/videos/JaDaumenrunter_m.mp4","Ist der Ball in der grünen Box?","Green","Blue","J","negation","mismatch","gesture","yes","ThumbDown","male","gesture-speech","1470","920","safari","30.38","Mac OS","21","female","right","Sat Oct 12 2024 17:40:22 GMT+0200 (Mitteleuropäische Sommerzeit)","1","81","0","1728750181301"
"387","j","SpeechGestureMatch","../RequiredFiles/videos/JaDaumenhoch_m.mp4","Ist der Ball in der blauen Box?","Green","Blue","J","affirmation","match","gesture","yes","ThumbUp","male","gesture-speech","1470","920","safari","30.38","Mac OS","21","female","right","Sat Oct 12 2024 17:40:28 GMT+0200 (Mitteleuropäische Sommerzeit)","1","82","0","1728750181301"
"8668","j","SpeechGestureMatch","../RequiredFiles/videos/NeinDaumenrunter_m.mp4","Ist der Ball in der grünen Box?","Green","Blue","J","negation","match","gesture","no","ThumbDown","male","gesture-speech","1470","920","safari","30.38","Mac OS","21","female","right","Sat Oct 12 2024 17:40:42 GMT+0200 (Mitteleuropäische Sommerzeit)","1","83","0","1728750181301"
"727","j","SpeechGestureMatch","../RequiredFiles/videos/JaDaumenrunter_m_no_sound.mp4","Ist der Ball in der grünen Box?","Blue","Green","F","negation","na","gesture","na","ThumbDown","male","gesture-speech","1470","920","safari","30.38","Mac OS","21","female","right","Sat Oct 12 2024 17:40:49 GMT+0200 (Mitteleuropäische Sommerzeit)","1","84","1","1728750181301"
"595","j","SpeechGestureMatch","../RequiredFiles/videos/NeinDaumenhoch_f.mp4","Ist der Ball in der grünen Box?","Green","Blue","F","affirmation","mismatch","gesture","no","ThumbUp","female","gesture-speech","1470","920","safari","30.38","Mac OS","21","female","right","Sat Oct 12 2024 17:40:55 GMT+0200 (Mitteleuropäische Sommerzeit)","1","85","1","1728750181301"
"704","j","SpeechGestureMatch","../RequiredFiles/videos/NeinDaumenhoch_m.mp4","Ist der Ball in der blauen Box?","Blue","Green","F","affirmation","mismatch","gesture","no","ThumbUp","male","gesture-speech","1470","920","safari","30.38","Mac OS","21","female","right","Sat Oct 12 2024 17:41:01 GMT+0200 (Mitteleuropäische Sommerzeit)","1","86","1","1728750181301"
"670","j","SpeechGestureMatch","../RequiredFiles/videos/JaDaumenhoch_m_no_sound.mp4","Ist der Ball in der blauen Box?","Blue","Green","F","affirmation","na","gesture","na","ThumbUp","male","gesture-speech","1470","920","safari","30.38","Mac OS","21","female","right","Sat Oct 12 2024 17:41:07 GMT+0200 (Mitteleuropäische Sommerzeit)","1","87","1","1728750181301"
"512","f","SpeechGestureMatch","../RequiredFiles/videos/JaDaumenhoch_f.mp4","Ist der Ball in der blauen Box?","Green","Blue","J","affirmation","match","gesture","yes","ThumbUp","female","gesture-speech","1470","920","safari","30.38","Mac OS","21","female","right","Sat Oct 12 2024 17:41:13 GMT+0200 (Mitteleuropäische Sommerzeit)","1","88","1","1728750181301"
"1170","j","SpeechGestureMatch","../RequiredFiles/videos/NeinDaumenhoch_m.mp4","Ist der Ball in der blauen Box?","Green","Blue","J","affirmation","mismatch","gesture","no","ThumbUp","male","gesture-speech","1470","920","safari","30.38","Mac OS","21","female","right","Sat Oct 12 2024 17:41:20 GMT+0200 (Mitteleuropäische Sommerzeit)","1","89","0","1728750181301"
"1807","j","SpeechGestureMatch","../RequiredFiles/videos/NeinDaumenrunter_f.mp4","Ist der Ball in der blauen Box?","Blue","Green","J","negation","match","gesture","no","ThumbDown","female","gesture-speech","1470","920","safari","30.38","Mac OS","21","female","right","Sat Oct 12 2024 17:41:27 GMT+0200 (Mitteleuropäische Sommerzeit)","1","90","0","1728750181301"
"1090","j","SpeechGestureMatch","../RequiredFiles/videos/NeinDaumenrunter_m.mp4","Ist der Ball in der blauen Box?","Green","Blue","F","negation","match","gesture","no","ThumbDown","male","gesture-speech","1470","920","safari","30.38","Mac OS","21","female","right","Sat Oct 12 2024 17:41:34 GMT+0200 (Mitteleuropäische Sommerzeit)","1","91","1","1728750181301"
"591","j","SpeechGestureMatch","../RequiredFiles/videos/NeinDaumenrunter_f_no_sound.mp4","Ist der Ball in der blauen Box?","Green","Blue","F","negation","na","gesture","na","ThumbDown","female","gesture-speech","1470","920","safari","30.38","Mac OS","21","female","right","Sat Oct 12 2024 17:41:40 GMT+0200 (Mitteleuropäische Sommerzeit)","1","92","1","1728750181301"
"1213","j","SpeechGestureMatch","../RequiredFiles/videos/JaDaumenrunter_m.mp4","Ist der Ball in der grünen Box?","Green","Blue","J","negation","mismatch","gesture","yes","ThumbDown","male","gesture-speech","1470","920","safari","30.38","Mac OS","21","female","right","Sat Oct 12 2024 17:41:47 GMT+0200 (Mitteleuropäische Sommerzeit)","1","93","0","1728750181301"
"1293","j","SpeechGestureMatch","../RequiredFiles/videos/JaDaumenhoch_m.mp4","Ist der Ball in der blauen Box?","Blue","Green","F","affirmation","match","gesture","yes","ThumbUp","male","gesture-speech","1470","920","safari","30.38","Mac OS","21","female","right","Sat Oct 12 2024 17:41:54 GMT+0200 (Mitteleuropäische Sommerzeit)","1","94","1","1728750181301"
"515","j","SpeechGestureMatch","../RequiredFiles/videos/NeinDaumenrunter_f.mp4","Ist der Ball in der grünen Box?","Green","Blue","J","negation","match","gesture","no","ThumbDown","female","gesture-speech","1470","920","safari","30.38","Mac OS","21","female","right","Sat Oct 12 2024 17:42:00 GMT+0200 (Mitteleuropäische Sommerzeit)","1","95","0","1728750181301"
"404","j","SpeechGestureMatch","../RequiredFiles/videos/NeinDaumenrunter_f_no_sound.mp4","Ist der Ball in der grünen Box?","Blue","Green","F","negation","na","gesture","na","ThumbDown","female","gesture-speech","1470","920","safari","30.38","Mac OS","21","female","right","Sat Oct 12 2024 17:42:06 GMT+0200 (Mitteleuropäische Sommerzeit)","1","96","1","1728750181301"
"982","j","SpeechGestureMatch","../RequiredFiles/videos/NeinDaumenrunter_f_no_sound.mp4","Ist der Ball in der grünen Box?","Green","Blue","J","negation","na","gesture","na","ThumbDown","female","gesture-speech","1470","920","safari","30.38","Mac OS","21","female","right","Sat Oct 12 2024 17:42:19 GMT+0200 (Mitteleuropäische Sommerzeit)","2","1","0","1728750181301"
"1346","f","SpeechGestureMatch","../RequiredFiles/videos/NeinDaumenhoch_m.mp4","Ist der Ball in der grünen Box?","Green","Blue","F","affirmation","mismatch","gesture","no","ThumbUp","male","gesture-speech","1470","920","safari","30.38","Mac OS","21","female","right","Sat Oct 12 2024 17:42:25 GMT+0200 (Mitteleuropäische Sommerzeit)","2","2","0","1728750181301"
"1347","f","SpeechGestureMatch","../RequiredFiles/videos/JaDaumenhoch_f.mp4","Ist der Ball in der grünen Box?","Blue","Green","J","affirmation","match","gesture","yes","ThumbUp","female","gesture-speech","1470","920","safari","30.38","Mac OS","21","female","right","Sat Oct 12 2024 17:42:32 GMT+0200 (Mitteleuropäische Sommerzeit)","2","3","1","1728750181301"
"1932","j","SpeechGestureMatch","../RequiredFiles/videos/NeinDaumenhoch_m.mp4","Ist der Ball in der blauen Box?","Blue","Green","F","affirmation","mismatch","gesture","no","ThumbUp","male","gesture-speech","1470","920","safari","30.38","Mac OS","21","female","right","Sat Oct 12 2024 17:42:40 GMT+0200 (Mitteleuropäische Sommerzeit)","2","4","1","1728750181301"
"1657","f","SpeechGestureMatch","../RequiredFiles/videos/NeinDaumenhoch_f.mp4","Ist der Ball in der grünen Box?","Green","Blue","F","affirmation","mismatch","gesture","no","ThumbUp","female","gesture-speech","1470","920","safari","30.38","Mac OS","21","female","right","Sat Oct 12 2024 17:42:47 GMT+0200 (Mitteleuropäische Sommerzeit)","2","5","0","1728750181301"
"1168","f","SpeechGestureMatch","../RequiredFiles/videos/NeinDaumenhoch_f.mp4","Ist der Ball in der blauen Box?","Green","Blue","J","affirmation","mismatch","gesture","no","ThumbUp","female","gesture-speech","1470","920","safari","30.38","Mac OS","21","female","right","Sat Oct 12 2024 17:42:54 GMT+0200 (Mitteleuropäische Sommerzeit)","2","6","1","1728750181301"
"1176","f","SpeechGestureMatch","../RequiredFiles/videos/NeinDaumenhoch_f.mp4","Ist der Ball in der grünen Box?","Green","Blue","F","affirmation","mismatch","gesture","no","ThumbUp","female","gesture-speech","1470","920","safari","30.38","Mac OS","21","female","right","Sat Oct 12 2024 17:43:00 GMT+0200 (Mitteleuropäische Sommerzeit)","2","7","0","1728750181301"
"1128","f","SpeechGestureMatch","../RequiredFiles/videos/NeinDaumenhoch_f.mp4","Ist der Ball in der blauen Box?","Green","Blue","J","affirmation","mismatch","gesture","no","ThumbUp","female","gesture-speech","1470","920","safari","30.38","Mac OS","21","female","right","Sat Oct 12 2024 17:43:07 GMT+0200 (Mitteleuropäische Sommerzeit)","2","8","1","1728750181301"
"1251","j","SpeechGestureMatch","../RequiredFiles/videos/NeinDaumenrunter_m.mp4","Ist der Ball in der grünen Box?","Blue","Green","F","negation","match","gesture","no","ThumbDown","male","gesture-speech","1470","920","safari","30.38","Mac OS","21","female","right","Sat Oct 12 2024 17:43:14 GMT+0200 (Mitteleuropäische Sommerzeit)","2","9","1","1728750181301"
"1327","j","SpeechGestureMatch","../RequiredFiles/videos/JaDaumenrunter_f_no_sound.mp4","Ist der Ball in der blauen Box?","Green","Blue","F","negation","na","gesture","na","ThumbDown","female","gesture-speech","1470","920","safari","30.38","Mac OS","21","female","right","Sat Oct 12 2024 17:43:21 GMT+0200 (Mitteleuropäische Sommerzeit)","2","10","1","1728750181301"
"1249","j","SpeechGestureMatch","../RequiredFiles/videos/JaDaumenrunter_m.mp4","Ist der Ball in der blauen Box?","Green","Blue","F","negation","mismatch","gesture","yes","ThumbDown","male","gesture-speech","1470","920","safari","30.38","Mac OS","21","female","right","Sat Oct 12 2024 17:43:28 GMT+0200 (Mitteleuropäische Sommerzeit)","2","11","1","1728750181301"
"1020","j","SpeechGestureMatch","../RequiredFiles/videos/JaDaumenhoch_m_no_sound.mp4","Ist der Ball in der grünen Box?","Blue","Green","J","affirmation","na","gesture","na","ThumbUp","male","gesture-speech","1470","920","safari","30.38","Mac OS","21","female","right","Sat Oct 12 2024 17:43:34 GMT+0200 (Mitteleuropäische Sommerzeit)","2","12","0","1728750181301"
"1033","j","SpeechGestureMatch","../RequiredFiles/videos/JaDaumenrunter_m_no_sound.mp4","Ist der Ball in der grünen Box?","Green","Blue","J","negation","na","gesture","na","ThumbDown","male","gesture-speech","1470","920","safari","30.38","Mac OS","21","female","right","Sat Oct 12 2024 17:43:41 GMT+0200 (Mitteleuropäische Sommerzeit)","2","13","0","1728750181301"
"1181","j","SpeechGestureMatch","../RequiredFiles/videos/JaDaumenrunter_f.mp4","Ist der Ball in der grünen Box?","Green","Blue","J","negation","mismatch","gesture","yes","ThumbDown","female","gesture-speech","1470","920","safari","30.38","Mac OS","21","female","right","Sat Oct 12 2024 17:43:47 GMT+0200 (Mitteleuropäische Sommerzeit)","2","14","0","1728750181301"
"1403","j","SpeechGestureMatch","../RequiredFiles/videos/JaDaumenrunter_f_no_sound.mp4","Ist der Ball in der blauen Box?","Blue","Green","J","negation","na","gesture","na","ThumbDown","female","gesture-speech","1470","920","safari","30.38","Mac OS","21","female","right","Sat Oct 12 2024 17:43:54 GMT+0200 (Mitteleuropäische Sommerzeit)","2","15","0","1728750181301"
"1268","j","SpeechGestureMatch","../RequiredFiles/videos/JaDaumenhoch_m.mp4","Ist der Ball in der blauen Box?","Blue","Green","F","affirmation","match","gesture","yes","ThumbUp","male","gesture-speech","1470","920","safari","30.38","Mac OS","21","female","right","Sat Oct 12 2024 17:44:01 GMT+0200 (Mitteleuropäische Sommerzeit)","2","16","1","1728750181301"
"1450","j","SpeechGestureMatch","../RequiredFiles/videos/NeinDaumenhoch_m_no_sound.mp4","Ist der Ball in der blauen Box?","Green","Blue","J","affirmation","na","gesture","na","ThumbUp","male","gesture-speech","1470","920","safari","30.38","Mac OS","21","female","right","Sat Oct 12 2024 17:44:08 GMT+0200 (Mitteleuropäische Sommerzeit)","2","17","0","1728750181301"
"1244","j","SpeechGestureMatch","../RequiredFiles/videos/NeinDaumenrunter_m.mp4","Ist der Ball in der blauen Box?","Blue","Green","J","negation","match","gesture","no","ThumbDown","male","gesture-speech","1470","920","safari","30.38","Mac OS","21","female","right","Sat Oct 12 2024 17:44:15 GMT+0200 (Mitteleuropäische Sommerzeit)","2","18","0","1728750181301"
"1211","j","SpeechGestureMatch","../RequiredFiles/videos/NeinDaumenrunter_m_no_sound.mp4","Ist der Ball in der blauen Box?","Green","Blue","F","negation","na","gesture","na","ThumbDown","male","gesture-speech","1470","920","safari","30.38","Mac OS","21","female","right","Sat Oct 12 2024 17:44:22 GMT+0200 (Mitteleuropäische Sommerzeit)","2","19","1","1728750181301"
"1142","j","SpeechGestureMatch","../RequiredFiles/videos/JaDaumenrunter_f_no_sound.mp4","Ist der Ball in der grünen Box?","Blue","Green","F","negation","na","gesture","na","ThumbDown","female","gesture-speech","1470","920","safari","30.38","Mac OS","21","female","right","Sat Oct 12 2024 17:44:28 GMT+0200 (Mitteleuropäische Sommerzeit)","2","20","1","1728750181301"
"1083","j","SpeechGestureMatch","../RequiredFiles/videos/JaDaumenhoch_f.mp4","Ist der Ball in der blauen Box?","Blue","Green","F","affirmation","match","gesture","yes","ThumbUp","female","gesture-speech","1470","920","safari","30.38","Mac OS","21","female","right","Sat Oct 12 2024 17:44:35 GMT+0200 (Mitteleuropäische Sommerzeit)","2","21","1","1728750181301"
"544","j","SpeechGestureMatch","../RequiredFiles/videos/NeinDaumenrunter_m.mp4","Ist der Ball in der blauen Box?","Green","Blue","F","negation","match","gesture","no","ThumbDown","male","gesture-speech","1470","920","safari","30.38","Mac OS","21","female","right","Sat Oct 12 2024 17:44:41 GMT+0200 (Mitteleuropäische Sommerzeit)","2","22","1","1728750181301"
"536","j","SpeechGestureMatch","../RequiredFiles/videos/NeinDaumenhoch_m.mp4","Ist der Ball in der grünen Box?","Blue","Green","J","affirmation","mismatch","gesture","no","ThumbUp","male","gesture-speech","1470","920","safari","30.38","Mac OS","21","female","right","Sat Oct 12 2024 17:44:47 GMT+0200 (Mitteleuropäische Sommerzeit)","2","23","0","1728750181301"
"934","j","SpeechGestureMatch","../RequiredFiles/videos/JaDaumenhoch_m.mp4","Ist der Ball in der grünen Box?","Green","Blue","F","affirmation","match","gesture","yes","ThumbUp","male","gesture-speech","1470","920","safari","30.38","Mac OS","21","female","right","Sat Oct 12 2024 17:44:54 GMT+0200 (Mitteleuropäische Sommerzeit)","2","24","1","1728750181301"
"498","j","SpeechGestureMatch","../RequiredFiles/videos/JaDaumenhoch_f.mp4","Ist der Ball in der blauen Box?","Blue","Green","F","affirmation","match","gesture","yes","ThumbUp","female","gesture-speech","1470","920","safari","30.38","Mac OS","21","female","right","Sat Oct 12 2024 17:45:00 GMT+0200 (Mitteleuropäische Sommerzeit)","2","25","1","1728750181301"
"1142","j","SpeechGestureMatch","../RequiredFiles/videos/JaDaumenhoch_m.mp4","Ist der Ball in der grünen Box?","Green","Blue","F","affirmation","match","gesture","yes","ThumbUp","male","gesture-speech","1470","920","safari","30.38","Mac OS","21","female","right","Sat Oct 12 2024 17:45:06 GMT+0200 (Mitteleuropäische Sommerzeit)","2","26","1","1728750181301"
"1254","j","SpeechGestureMatch","../RequiredFiles/videos/JaDaumenrunter_m.mp4","Ist der Ball in der blauen Box?","Green","Blue","F","negation","mismatch","gesture","yes","ThumbDown","male","gesture-speech","1470","920","safari","30.38","Mac OS","21","female","right","Sat Oct 12 2024 17:45:13 GMT+0200 (Mitteleuropäische Sommerzeit)","2","27","1","1728750181301"
"1083","j","SpeechGestureMatch","../RequiredFiles/videos/JaDaumenhoch_m.mp4","Ist der Ball in der grünen Box?","Blue","Green","J","affirmation","match","gesture","yes","ThumbUp","male","gesture-speech","1470","920","safari","30.38","Mac OS","21","female","right","Sat Oct 12 2024 17:45:20 GMT+0200 (Mitteleuropäische Sommerzeit)","2","28","0","1728750181301"
"5944","j","SpeechGestureMatch","../RequiredFiles/videos/NeinDaumenhoch_f_no_sound.mp4","Ist der Ball in der grünen Box?","Green","Blue","F","affirmation","na","gesture","na","ThumbUp","female","gesture-speech","1470","920","safari","30.38","Mac OS","21","female","right","Sat Oct 12 2024 17:45:31 GMT+0200 (Mitteleuropäische Sommerzeit)","2","29","1","1728750181301"
"3109","j","SpeechGestureMatch","../RequiredFiles/videos/JaDaumenhoch_f.mp4","Ist der Ball in der grünen Box?","Green","Blue","F","affirmation","match","gesture","yes","ThumbUp","female","gesture-speech","1470","920","safari","30.38","Mac OS","21","female","right","Sat Oct 12 2024 17:45:40 GMT+0200 (Mitteleuropäische Sommerzeit)","2","30","1","1728750181301"
"601","j","SpeechGestureMatch","../RequiredFiles/videos/JaDaumenhoch_f_no_sound.mp4","Ist der Ball in der blauen Box?","Green","Blue","J","affirmation","na","gesture","na","ThumbUp","female","gesture-speech","1470","920","safari","30.38","Mac OS","21","female","right","Sat Oct 12 2024 17:45:46 GMT+0200 (Mitteleuropäische Sommerzeit)","2","31","0","1728750181301"
"473","j","SpeechGestureMatch","../RequiredFiles/videos/NeinDaumenhoch_m.mp4","Ist der Ball in der grünen Box?","Green","Blue","F","affirmation","mismatch","gesture","no","ThumbUp","male","gesture-speech","1470","920","safari","30.38","Mac OS","21","female","right","Sat Oct 12 2024 17:45:52 GMT+0200 (Mitteleuropäische Sommerzeit)","2","32","1","1728750181301"
"1204","j","SpeechGestureMatch","../RequiredFiles/videos/JaDaumenhoch_f_no_sound.mp4","Ist der Ball in der grünen Box?","Blue","Green","J","affirmation","na","gesture","na","ThumbUp","female","gesture-speech","1470","920","safari","30.38","Mac OS","21","female","right","Sat Oct 12 2024 17:45:59 GMT+0200 (Mitteleuropäische Sommerzeit)","2","33","0","1728750181301"
"1319","j","SpeechGestureMatch","../RequiredFiles/videos/NeinDaumenrunter_f_no_sound.mp4","Ist der Ball in der grünen Box?","Blue","Green","F","negation","na","gesture","na","ThumbDown","female","gesture-speech","1470","920","safari","30.38","Mac OS","21","female","right","Sat Oct 12 2024 17:46:06 GMT+0200 (Mitteleuropäische Sommerzeit)","2","34","1","1728750181301"
"678","j","SpeechGestureMatch","../RequiredFiles/videos/JaDaumenrunter_f.mp4","Ist der Ball in der blauen Box?","Blue","Green","J","negation","mismatch","gesture","yes","ThumbDown","female","gesture-speech","1470","920","safari","30.38","Mac OS","21","female","right","Sat Oct 12 2024 17:46:12 GMT+0200 (Mitteleuropäische Sommerzeit)","2","35","0","1728750181301"
"737","j","SpeechGestureMatch","../RequiredFiles/videos/NeinDaumenrunter_m_no_sound.mp4","Ist der Ball in der grünen Box?","Blue","Green","F","negation","na","gesture","na","ThumbDown","male","gesture-speech","1470","920","safari","30.38","Mac OS","21","female","right","Sat Oct 12 2024 17:46:18 GMT+0200 (Mitteleuropäische Sommerzeit)","2","36","1","1728750181301"
"866","j","SpeechGestureMatch","../RequiredFiles/videos/NeinDaumenhoch_f.mp4","Ist der Ball in der grünen Box?","Blue","Green","J","affirmation","mismatch","gesture","no","ThumbUp","female","gesture-speech","1470","920","safari","30.38","Mac OS","21","female","right","Sat Oct 12 2024 17:46:24 GMT+0200 (Mitteleuropäische Sommerzeit)","2","37","0","1728750181301"
"588","j","SpeechGestureMatch","../RequiredFiles/videos/NeinDaumenrunter_f.mp4","Ist der Ball in der grünen Box?","Blue","Green","F","negation","match","gesture","no","ThumbDown","female","gesture-speech","1470","920","safari","30.38","Mac OS","21","female","right","Sat Oct 12 2024 17:46:31 GMT+0200 (Mitteleuropäische Sommerzeit)","2","38","1","1728750181301"
"2312","j","SpeechGestureMatch","../RequiredFiles/videos/JaDaumenhoch_f_no_sound.mp4","Ist der Ball in der blauen Box?","Blue","Green","F","affirmation","na","gesture","na","ThumbUp","female","gesture-speech","1470","920","safari","30.38","Mac OS","21","female","right","Sat Oct 12 2024 17:46:38 GMT+0200 (Mitteleuropäische Sommerzeit)","2","39","1","1728750181301"
"1267","j","SpeechGestureMatch","../RequiredFiles/videos/JaDaumenrunter_f_no_sound.mp4","Ist der Ball in der grünen Box?","Green","Blue","J","negation","na","gesture","na","ThumbDown","female","gesture-speech","1470","920","safari","30.38","Mac OS","21","female","right","Sat Oct 12 2024 17:46:45 GMT+0200 (Mitteleuropäische Sommerzeit)","2","40","0","1728750181301"
"2182","j","SpeechGestureMatch","../RequiredFiles/videos/NeinDaumenrunter_m.mp4","Ist der Ball in der grünen Box?","Blue","Green","F","negation","match","gesture","no","ThumbDown","male","gesture-speech","1470","920","safari","30.38","Mac OS","21","female","right","Sat Oct 12 2024 17:46:53 GMT+0200 (Mitteleuropäische Sommerzeit)","2","41","1","1728750181301"
"1039","j","SpeechGestureMatch","../RequiredFiles/videos/NeinDaumenrunter_m.mp4","Ist der Ball in der blauen Box?","Green","Blue","F","negation","match","gesture","no","ThumbDown","male","gesture-speech","1470","920","safari","30.38","Mac OS","21","female","right","Sat Oct 12 2024 17:47:00 GMT+0200 (Mitteleuropäische Sommerzeit)","2","42","1","1728750181301"
"577","j","SpeechGestureMatch","../RequiredFiles/videos/JaDaumenrunter_f.mp4","Ist der Ball in der grünen Box?","Blue","Green","F","negation","mismatch","gesture","yes","ThumbDown","female","gesture-speech","1470","920","safari","30.38","Mac OS","21","female","right","Sat Oct 12 2024 17:47:06 GMT+0200 (Mitteleuropäische Sommerzeit)","2","43","1","1728750181301"
"281","j","SpeechGestureMatch","../RequiredFiles/videos/JaDaumenhoch_f.mp4","Ist der Ball in der blauen Box?","Green","Blue","J","affirmation","match","gesture","yes","ThumbUp","female","gesture-speech","1470","920","safari","30.38","Mac OS","21","female","right","Sat Oct 12 2024 17:47:12 GMT+0200 (Mitteleuropäische Sommerzeit)","2","44","0","1728750181301"
"393","j","SpeechGestureMatch","../RequiredFiles/videos/JaDaumenrunter_f.mp4","Ist der Ball in der blauen Box?","Blue","Green","J","negation","mismatch","gesture","yes","ThumbDown","female","gesture-speech","1470","920","safari","30.38","Mac OS","21","female","right","Sat Oct 12 2024 17:47:17 GMT+0200 (Mitteleuropäische Sommerzeit)","2","45","0","1728750181301"
"443","j","SpeechGestureMatch","../RequiredFiles/videos/JaDaumenhoch_m_no_sound.mp4","Ist der Ball in der blauen Box?","Green","Blue","J","affirmation","na","gesture","na","ThumbUp","male","gesture-speech","1470","920","safari","30.38","Mac OS","21","female","right","Sat Oct 12 2024 17:47:23 GMT+0200 (Mitteleuropäische Sommerzeit)","2","46","0","1728750181301"
"925","j","SpeechGestureMatch","../RequiredFiles/videos/NeinDaumenhoch_f.mp4","Ist der Ball in der blauen Box?","Blue","Green","F","affirmation","mismatch","gesture","no","ThumbUp","female","gesture-speech","1470","920","safari","30.38","Mac OS","21","female","right","Sat Oct 12 2024 17:47:30 GMT+0200 (Mitteleuropäische Sommerzeit)","2","47","1","1728750181301"
"495","j","SpeechGestureMatch","../RequiredFiles/videos/JaDaumenrunter_m.mp4","Ist der Ball in der grünen Box?","Green","Blue","J","negation","mismatch","gesture","yes","ThumbDown","male","gesture-speech","1470","920","safari","30.38","Mac OS","21","female","right","Sat Oct 12 2024 17:47:36 GMT+0200 (Mitteleuropäische Sommerzeit)","2","48","0","1728750181301"
"1241","j","SpeechGestureMatch","../RequiredFiles/videos/NeinDaumenhoch_f_no_sound.mp4","Ist der Ball in der blauen Box?","Green","Blue","J","affirmation","na","gesture","na","ThumbUp","female","gesture-speech","1470","920","safari","30.38","Mac OS","21","female","right","Sat Oct 12 2024 17:47:43 GMT+0200 (Mitteleuropäische Sommerzeit)","2","49","0","1728750181301"
"542","j","SpeechGestureMatch","../RequiredFiles/videos/NeinDaumenrunter_f.mp4","Ist der Ball in der grünen Box?","Green","Blue","J","negation","match","gesture","no","ThumbDown","female","gesture-speech","1470","920","safari","30.38","Mac OS","21","female","right","Sat Oct 12 2024 17:47:49 GMT+0200 (Mitteleuropäische Sommerzeit)","2","50","0","1728750181301"
"1473","j","SpeechGestureMatch","../RequiredFiles/videos/JaDaumenrunter_f.mp4","Ist der Ball in der blauen Box?","Green","Blue","F","negation","mismatch","gesture","yes","ThumbDown","female","gesture-speech","1470","920","safari","30.38","Mac OS","21","female","right","Sat Oct 12 2024 17:47:56 GMT+0200 (Mitteleuropäische Sommerzeit)","2","51","1","1728750181301"
"670","j","SpeechGestureMatch","../RequiredFiles/videos/NeinDaumenhoch_m_no_sound.mp4","Ist der Ball in der blauen Box?","Blue","Green","F","affirmation","na","gesture","na","ThumbUp","male","gesture-speech","1470","920","safari","30.38","Mac OS","21","female","right","Sat Oct 12 2024 17:48:02 GMT+0200 (Mitteleuropäische Sommerzeit)","2","52","1","1728750181301"
"472","j","SpeechGestureMatch","../RequiredFiles/videos/JaDaumenrunter_m.mp4","Ist der Ball in der blauen Box?","Blue","Green","J","negation","mismatch","gesture","yes","ThumbDown","male","gesture-speech","1470","920","safari","30.38","Mac OS","21","female","right","Sat Oct 12 2024 17:48:08 GMT+0200 (Mitteleuropäische Sommerzeit)","2","53","0","1728750181301"
"732","j","SpeechGestureMatch","../RequiredFiles/videos/JaDaumenrunter_f.mp4","Ist der Ball in der grünen Box?","Green","Blue","J","negation","mismatch","gesture","yes","ThumbDown","female","gesture-speech","1470","920","safari","30.38","Mac OS","21","female","right","Sat Oct 12 2024 17:48:14 GMT+0200 (Mitteleuropäische Sommerzeit)","2","54","0","1728750181301"
"7053","j","SpeechGestureMatch","../RequiredFiles/videos/JaDaumenhoch_f.mp4","Ist der Ball in der grünen Box?","Green","Blue","F","affirmation","match","gesture","yes","ThumbUp","female","gesture-speech","1470","920","safari","30.38","Mac OS","21","female","right","Sat Oct 12 2024 17:48:27 GMT+0200 (Mitteleuropäische Sommerzeit)","2","55","1","1728750181301"
"629","j","SpeechGestureMatch","../RequiredFiles/videos/NeinDaumenhoch_m.mp4","Ist der Ball in der blauen Box?","Blue","Green","F","affirmation","mismatch","gesture","no","ThumbUp","male","gesture-speech","1470","920","safari","30.38","Mac OS","21","female","right","Sat Oct 12 2024 17:48:33 GMT+0200 (Mitteleuropäische Sommerzeit)","2","56","1","1728750181301"
"1236","j","SpeechGestureMatch","../RequiredFiles/videos/JaDaumenrunter_m.mp4","Ist der Ball in der blauen Box?","Blue","Green","J","negation","mismatch","gesture","yes","ThumbDown","male","gesture-speech","1470","920","safari","30.38","Mac OS","21","female","right","Sat Oct 12 2024 17:48:40 GMT+0200 (Mitteleuropäische Sommerzeit)","2","57","0","1728750181301"
"5836","j","SpeechGestureMatch","../RequiredFiles/videos/NeinDaumenrunter_m.mp4","Ist der Ball in der blauen Box?","Blue","Green","J","negation","match","gesture","no","ThumbDown","male","gesture-speech","1470","920","safari","30.38","Mac OS","21","female","right","Sat Oct 12 2024 17:48:51 GMT+0200 (Mitteleuropäische Sommerzeit)","2","58","0","1728750181301"
"634","j","SpeechGestureMatch","../RequiredFiles/videos/NeinDaumenrunter_m.mp4","Ist der Ball in der grünen Box?","Green","Blue","J","negation","match","gesture","no","ThumbDown","male","gesture-speech","1470","920","safari","30.38","Mac OS","21","female","right","Sat Oct 12 2024 17:48:57 GMT+0200 (Mitteleuropäische Sommerzeit)","2","59","0","1728750181301"
"2537","j","SpeechGestureMatch","../RequiredFiles/videos/NeinDaumenhoch_f.mp4","Ist der Ball in der grünen Box?","Blue","Green","J","affirmation","mismatch","gesture","no","ThumbUp","female","gesture-speech","1470","920","safari","30.38","Mac OS","21","female","right","Sat Oct 12 2024 17:49:05 GMT+0200 (Mitteleuropäische Sommerzeit)","2","60","0","1728750181301"
"1092","j","SpeechGestureMatch","../RequiredFiles/videos/NeinDaumenhoch_m.mp4","Ist der Ball in der grünen Box?","Blue","Green","J","affirmation","mismatch","gesture","no","ThumbUp","male","gesture-speech","1470","920","safari","30.38","Mac OS","21","female","right","Sat Oct 12 2024 17:49:12 GMT+0200 (Mitteleuropäische Sommerzeit)","2","61","0","1728750181301"
"3685","j","SpeechGestureMatch","../RequiredFiles/videos/JaDaumenrunter_m_no_sound.mp4","Ist der Ball in der blauen Box?","Green","Blue","F","negation","na","gesture","na","ThumbDown","male","gesture-speech","1470","920","safari","30.38","Mac OS","21","female","right","Sat Oct 12 2024 17:49:21 GMT+0200 (Mitteleuropäische Sommerzeit)","2","62","1","1728750181301"
"1922","j","SpeechGestureMatch","../RequiredFiles/videos/JaDaumenhoch_f.mp4","Ist der Ball in der blauen Box?","Green","Blue","J","affirmation","match","gesture","yes","ThumbUp","female","gesture-speech","1470","920","safari","30.38","Mac OS","21","female","right","Sat Oct 12 2024 17:49:29 GMT+0200 (Mitteleuropäische Sommerzeit)","2","63","0","1728750181301"
"814","j","SpeechGestureMatch","../RequiredFiles/videos/JaDaumenrunter_m_no_sound.mp4","Ist der Ball in der grünen Box?","Blue","Green","F","negation","na","gesture","na","ThumbDown","male","gesture-speech","1470","920","safari","30.38","Mac OS","21","female","right","Sat Oct 12 2024 17:49:35 GMT+0200 (Mitteleuropäische Sommerzeit)","2","64","1","1728750181301"
"2813","j","SpeechGestureMatch","../RequiredFiles/videos/NeinDaumenrunter_f_no_sound.mp4","Ist der Ball in der blauen Box?","Green","Blue","F","negation","na","gesture","na","ThumbDown","female","gesture-speech","1470","920","safari","30.38","Mac OS","21","female","right","Sat Oct 12 2024 17:49:43 GMT+0200 (Mitteleuropäische Sommerzeit)","2","65","1","1728750181301"
"7499","j","SpeechGestureMatch","../RequiredFiles/videos/JaDaumenhoch_m_no_sound.mp4","Ist der Ball in der grünen Box?","Green","Blue","F","affirmation","na","gesture","na","ThumbUp","male","gesture-speech","1470","920","safari","30.38","Mac OS","21","female","right","Sat Oct 12 2024 17:49:57 GMT+0200 (Mitteleuropäische Sommerzeit)","2","66","1","1728750181301"
"2801","j","SpeechGestureMatch","../RequiredFiles/videos/JaDaumenhoch_m.mp4","Ist der Ball in der blauen Box?","Blue","Green","F","affirmation","match","gesture","yes","ThumbUp","male","gesture-speech","1470","920","safari","30.38","Mac OS","21","female","right","Sat Oct 12 2024 17:50:05 GMT+0200 (Mitteleuropäische Sommerzeit)","2","67","1","1728750181301"
"3270","j","SpeechGestureMatch","../RequiredFiles/videos/NeinDaumenhoch_f_no_sound.mp4","Ist der Ball in der grünen Box?","Blue","Green","J","affirmation","na","gesture","na","ThumbUp","female","gesture-speech","1470","920","safari","30.38","Mac OS","21","female","right","Sat Oct 12 2024 17:50:14 GMT+0200 (Mitteleuropäische Sommerzeit)","2","68","0","1728750181301"
"6698","j","SpeechGestureMatch","../RequiredFiles/videos/NeinDaumenrunter_f.mp4","Ist der Ball in der grünen Box?","Green","Blue","J","negation","match","gesture","no","ThumbDown","female","gesture-speech","1470","920","safari","30.38","Mac OS","21","female","right","Sat Oct 12 2024 17:50:26 GMT+0200 (Mitteleuropäische Sommerzeit)","2","69","0","1728750181301"
"1360","j","SpeechGestureMatch","../RequiredFiles/videos/NeinDaumenhoch_m.mp4","Ist der Ball in der blauen Box?","Green","Blue","J","affirmation","mismatch","gesture","no","ThumbUp","male","gesture-speech","1470","920","safari","30.38","Mac OS","21","female","right","Sat Oct 12 2024 17:50:33 GMT+0200 (Mitteleuropäische Sommerzeit)","2","70","0","1728750181301"
"1218","j","SpeechGestureMatch","../RequiredFiles/videos/JaDaumenrunter_m.mp4","Ist der Ball in der grünen Box?","Blue","Green","F","negation","mismatch","gesture","yes","ThumbDown","male","gesture-speech","1470","920","safari","30.38","Mac OS","21","female","right","Sat Oct 12 2024 17:50:40 GMT+0200 (Mitteleuropäische Sommerzeit)","2","71","1","1728750181301"
"2856","j","SpeechGestureMatch","../RequiredFiles/videos/JaDaumenhoch_f_no_sound.mp4","Ist der Ball in der grünen Box?","Green","Blue","F","affirmation","na","gesture","na","ThumbUp","female","gesture-speech","1470","920","safari","30.38","Mac OS","21","female","right","Sat Oct 12 2024 17:50:48 GMT+0200 (Mitteleuropäische Sommerzeit)","2","72","1","1728750181301"
"7446","j","SpeechGestureMatch","../RequiredFiles/videos/NeinDaumenhoch_m_no_sound.mp4","Ist der Ball in der grünen Box?","Blue","Green","J","affirmation","na","gesture","na","ThumbUp","male","gesture-speech","1470","920","safari","30.38","Mac OS","21","female","right","Sat Oct 12 2024 17:51:01 GMT+0200 (Mitteleuropäische Sommerzeit)","2","73","0","1728750181301"
"1651","j","SpeechGestureMatch","../RequiredFiles/videos/NeinDaumenrunter_f.mp4","Ist der Ball in der blauen Box?","Green","Blue","F","negation","match","gesture","no","ThumbDown","female","gesture-speech","1470","920","safari","30.38","Mac OS","21","female","right","Sat Oct 12 2024 17:51:08 GMT+0200 (Mitteleuropäische Sommerzeit)","2","74","1","1728750181301"
"681","j","SpeechGestureMatch","../RequiredFiles/videos/NeinDaumenrunter_f.mp4","Ist der Ball in der blauen Box?","Green","Blue","F","negation","match","gesture","no","ThumbDown","female","gesture-speech","1470","920","safari","30.38","Mac OS","21","female","right","Sat Oct 12 2024 17:51:14 GMT+0200 (Mitteleuropäische Sommerzeit)","2","75","1","1728750181301"
"11073","j","SpeechGestureMatch","../RequiredFiles/videos/JaDaumenrunter_m.mp4","Ist der Ball in der grünen Box?","Blue","Green","F","negation","mismatch","gesture","yes","ThumbDown","male","gesture-speech","1470","920","safari","30.38","Mac OS","21","female","right","Sat Oct 12 2024 17:51:31 GMT+0200 (Mitteleuropäische Sommerzeit)","2","76","1","1728750181301"
"6406","j","SpeechGestureMatch","../RequiredFiles/videos/JaDaumenhoch_m.mp4","Ist der Ball in der grünen Box?","Blue","Green","J","affirmation","match","gesture","yes","ThumbUp","male","gesture-speech","1470","920","safari","30.38","Mac OS","21","female","right","Sat Oct 12 2024 17:51:43 GMT+0200 (Mitteleuropäische Sommerzeit)","2","77","0","1728750181301"
"3697","j","SpeechGestureMatch","../RequiredFiles/videos/NeinDaumenrunter_f.mp4","Ist der Ball in der grünen Box?","Blue","Green","F","negation","match","gesture","no","ThumbDown","female","gesture-speech","1470","920","safari","30.38","Mac OS","21","female","right","Sat Oct 12 2024 17:51:52 GMT+0200 (Mitteleuropäische Sommerzeit)","2","78","1","1728750181301"
"1340","j","SpeechGestureMatch","../RequiredFiles/videos/NeinDaumenrunter_m.mp4","Ist der Ball in der grünen Box?","Green","Blue","J","negation","match","gesture","no","ThumbDown","male","gesture-speech","1470","920","safari","30.38","Mac OS","21","female","right","Sat Oct 12 2024 17:51:59 GMT+0200 (Mitteleuropäische Sommerzeit)","2","79","0","1728750181301"
"4548","j","SpeechGestureMatch","../RequiredFiles/videos/JaDaumenrunter_f.mp4","Ist der Ball in der blauen Box?","Green","Blue","F","negation","mismatch","gesture","yes","ThumbDown","female","gesture-speech","1470","920","safari","30.38","Mac OS","21","female","right","Sat Oct 12 2024 17:52:09 GMT+0200 (Mitteleuropäische Sommerzeit)","2","80","1","1728750181301"
"10339","j","SpeechGestureMatch","../RequiredFiles/videos/NeinDaumenrunter_f.mp4","Ist der Ball in der blauen Box?","Blue","Green","J","negation","match","gesture","no","ThumbDown","female","gesture-speech","1470","920","safari","30.38","Mac OS","21","female","right","Sat Oct 12 2024 17:52:25 GMT+0200 (Mitteleuropäische Sommerzeit)","2","81","0","1728750181301"
"962","j","SpeechGestureMatch","../RequiredFiles/videos/JaDaumenrunter_m.mp4","Ist der Ball in der grünen Box?","Green","Blue","J","negation","mismatch","gesture","yes","ThumbDown","male","gesture-speech","1470","920","safari","30.38","Mac OS","21","female","right","Sat Oct 12 2024 17:52:31 GMT+0200 (Mitteleuropäische Sommerzeit)","2","82","0","1728750181301"
"8073","j","SpeechGestureMatch","../RequiredFiles/videos/JaDaumenrunter_m_no_sound.mp4","Ist der Ball in der blauen Box?","Blue","Green","J","negation","na","gesture","na","ThumbDown","male","gesture-speech","1470","920","safari","30.38","Mac OS","21","female","right","Sat Oct 12 2024 17:52:45 GMT+0200 (Mitteleuropäische Sommerzeit)","2","83","0","1728750181301"
"1064","j","SpeechGestureMatch","../RequiredFiles/videos/JaDaumenhoch_m.mp4","Ist der Ball in der blauen Box?","Green","Blue","J","affirmation","match","gesture","yes","ThumbUp","male","gesture-speech","1470","920","safari","30.38","Mac OS","21","female","right","Sat Oct 12 2024 17:52:52 GMT+0200 (Mitteleuropäische Sommerzeit)","2","84","0","1728750181301"
"747","j","SpeechGestureMatch","../RequiredFiles/videos/NeinDaumenhoch_f.mp4","Ist der Ball in der blauen Box?","Blue","Green","F","affirmation","mismatch","gesture","no","ThumbUp","female","gesture-speech","1470","920","safari","30.38","Mac OS","21","female","right","Sat Oct 12 2024 17:52:58 GMT+0200 (Mitteleuropäische Sommerzeit)","2","85","1","1728750181301"
"1520","j","SpeechGestureMatch","../RequiredFiles/videos/NeinDaumenrunter_m_no_sound.mp4","Ist der Ball in der grünen Box?","Green","Blue","J","negation","na","gesture","na","ThumbDown","male","gesture-speech","1470","920","safari","30.38","Mac OS","21","female","right","Sat Oct 12 2024 17:53:05 GMT+0200 (Mitteleuropäische Sommerzeit)","2","86","0","1728750181301"
"534","j","SpeechGestureMatch","../RequiredFiles/videos/NeinDaumenhoch_m.mp4","Ist der Ball in der blauen Box?","Green","Blue","J","affirmation","mismatch","gesture","no","ThumbUp","male","gesture-speech","1470","920","safari","30.38","Mac OS","21","female","right","Sat Oct 12 2024 17:53:11 GMT+0200 (Mitteleuropäische Sommerzeit)","2","87","0","1728750181301"
"1323","j","SpeechGestureMatch","../RequiredFiles/videos/JaDaumenhoch_m_no_sound.mp4","Ist der Ball in der blauen Box?","Blue","Green","F","affirmation","na","gesture","na","ThumbUp","male","gesture-speech","1470","920","safari","30.38","Mac OS","21","female","right","Sat Oct 12 2024 17:53:18 GMT+0200 (Mitteleuropäische Sommerzeit)","2","88","1","1728750181301"
"757","j","SpeechGestureMatch","../RequiredFiles/videos/JaDaumenrunter_f.mp4","Ist der Ball in der grünen Box?","Blue","Green","F","negation","mismatch","gesture","yes","ThumbDown","female","gesture-speech","1470","920","safari","30.38","Mac OS","21","female","right","Sat Oct 12 2024 17:53:24 GMT+0200 (Mitteleuropäische Sommerzeit)","2","89","1","1728750181301"
"668","j","SpeechGestureMatch","../RequiredFiles/videos/NeinDaumenrunter_f_no_sound.mp4","Ist der Ball in der blauen Box?","Blue","Green","J","negation","na","gesture","na","ThumbDown","female","gesture-speech","1470","920","safari","30.38","Mac OS","21","female","right","Sat Oct 12 2024 17:53:30 GMT+0200 (Mitteleuropäische Sommerzeit)","2","90","0","1728750181301"
"882","j","SpeechGestureMatch","../RequiredFiles/videos/NeinDaumenhoch_f_no_sound.mp4","Ist der Ball in der blauen Box?","Blue","Green","F","affirmation","na","gesture","na","ThumbUp","female","gesture-speech","1470","920","safari","30.38","Mac OS","21","female","right","Sat Oct 12 2024 17:53:37 GMT+0200 (Mitteleuropäische Sommerzeit)","2","91","1","1728750181301"
"1239","j","SpeechGestureMatch","../RequiredFiles/videos/JaDaumenhoch_f.mp4","Ist der Ball in der grünen Box?","Blue","Green","J","affirmation","match","gesture","yes","ThumbUp","female","gesture-speech","1470","920","safari","30.38","Mac OS","21","female","right","Sat Oct 12 2024 17:53:44 GMT+0200 (Mitteleuropäische Sommerzeit)","2","92","0","1728750181301"
"643","j","SpeechGestureMatch","../RequiredFiles/videos/JaDaumenhoch_m.mp4","Ist der Ball in der blauen Box?","Green","Blue","J","affirmation","match","gesture","yes","ThumbUp","male","gesture-speech","1470","920","safari","30.38","Mac OS","21","female","right","Sat Oct 12 2024 17:53:50 GMT+0200 (Mitteleuropäische Sommerzeit)","2","93","0","1728750181301"
"759","j","SpeechGestureMatch","../RequiredFiles/videos/NeinDaumenrunter_m_no_sound.mp4","Ist der Ball in der blauen Box?","Blue","Green","J","negation","na","gesture","na","ThumbDown","male","gesture-speech","1470","920","safari","30.38","Mac OS","21","female","right","Sat Oct 12 2024 17:53:56 GMT+0200 (Mitteleuropäische Sommerzeit)","2","94","0","1728750181301"
"990","j","SpeechGestureMatch","../RequiredFiles/videos/NeinDaumenhoch_m_no_sound.mp4","Ist der Ball in der grünen Box?","Green","Blue","F","affirmation","na","gesture","na","ThumbUp","male","gesture-speech","1470","920","safari","30.38","Mac OS","21","female","right","Sat Oct 12 2024 17:54:03 GMT+0200 (Mitteleuropäische Sommerzeit)","2","95","1","1728750181301"
"1452","j","SpeechGestureMatch","../RequiredFiles/videos/NeinDaumenrunter_f.mp4","Ist der Ball in der blauen Box?","Blue","Green","J","negation","match","gesture","no","ThumbDown","female","gesture-speech","1470","920","safari","30.38","Mac OS","21","female","right","Sat Oct 12 2024 17:54:10 GMT+0200 (Mitteleuropäische Sommerzeit)","2","96","0","1728750181301"
"937","j","SpeechGestureMatch","../RequiredFiles/videos/NeinDaumenrunter_f_no_gesture.mp4","Ist der Ball in der grünen Box?","Green","Blue","J","negation","na","speech","no","na","female","gesture-speech","1470","920","safari","30.38","Mac OS","21","female","right","Sat Oct 12 2024 17:57:53 GMT+0200 (Mitteleuropäische Sommerzeit)","3","1","0","1728750181301"
"1705","j","SpeechGestureMatch","../RequiredFiles/videos/NeinDaumenhoch_f_no_gesture.mp4","Ist der Ball in der grünen Box?","Green","Blue","J","negation","na","speech","no","na","female","gesture-speech","1470","920","safari","30.38","Mac OS","21","female","right","Sat Oct 12 2024 17:58:00 GMT+0200 (Mitteleuropäische Sommerzeit)","3","2","0","1728750181301"
"1506","j","SpeechGestureMatch","../RequiredFiles/videos/NeinDaumenhoch_m.mp4","Ist der Ball in der grünen Box?","Blue","Green","F","negation","mismatch","speech","no","ThumbUp","male","gesture-speech","1470","920","safari","30.38","Mac OS","21","female","right","Sat Oct 12 2024 17:58:07 GMT+0200 (Mitteleuropäische Sommerzeit)","3","3","1","1728750181301"
"996","j","SpeechGestureMatch","../RequiredFiles/videos/JaDaumenhoch_m.mp4","Ist der Ball in der blauen Box?","Blue","Green","F","affirmation","match","speech","yes","ThumbUp","male","gesture-speech","1470","920","safari","30.38","Mac OS","21","female","right","Sat Oct 12 2024 17:58:14 GMT+0200 (Mitteleuropäische Sommerzeit)","3","4","1","1728750181301"
"716","j","SpeechGestureMatch","../RequiredFiles/videos/JaDaumenrunter_f_no_gesture.mp4","Ist der Ball in der blauen Box?","Blue","Green","F","affirmation","na","speech","yes","na","female","gesture-speech","1470","920","safari","30.38","Mac OS","21","female","right","Sat Oct 12 2024 17:58:20 GMT+0200 (Mitteleuropäische Sommerzeit)","3","5","1","1728750181301"
"4082","j","SpeechGestureMatch","../RequiredFiles/videos/NeinDaumenhoch_m.mp4","Ist der Ball in der grünen Box?","Blue","Green","F","negation","mismatch","speech","no","ThumbUp","male","gesture-speech","1470","920","safari","30.38","Mac OS","21","female","right","Sat Oct 12 2024 17:58:29 GMT+0200 (Mitteleuropäische Sommerzeit)","3","6","1","1728750181301"
"536","j","SpeechGestureMatch","../RequiredFiles/videos/NeinDaumenrunter_m_no_gesture.mp4","Ist der Ball in der blauen Box?","Blue","Green","J","negation","na","speech","no","na","male","gesture-speech","1470","920","safari","30.38","Mac OS","21","female","right","Sat Oct 12 2024 17:58:36 GMT+0200 (Mitteleuropäische Sommerzeit)","3","7","0","1728750181301"
"351","j","SpeechGestureMatch","../RequiredFiles/videos/JaDaumenhoch_m.mp4","Ist der Ball in der blauen Box?","Green","Blue","J","affirmation","match","speech","yes","ThumbUp","male","gesture-speech","1470","920","safari","30.38","Mac OS","21","female","right","Sat Oct 12 2024 17:58:41 GMT+0200 (Mitteleuropäische Sommerzeit)","3","8","0","1728750181301"
"4850","j","SpeechGestureMatch","../RequiredFiles/videos/NeinDaumenhoch_m.mp4","Ist der Ball in der grünen Box?","Green","Blue","J","negation","mismatch","speech","no","ThumbUp","male","gesture-speech","1470","920","safari","30.38","Mac OS","21","female","right","Sat Oct 12 2024 17:58:52 GMT+0200 (Mitteleuropäische Sommerzeit)","3","9","0","1728750181301"
"3441","j","SpeechGestureMatch","../RequiredFiles/videos/NeinDaumenrunter_m.mp4","Ist der Ball in der blauen Box?","Green","Blue","F","negation","match","speech","no","ThumbDown","male","gesture-speech","1470","920","safari","30.38","Mac OS","21","female","right","Sat Oct 12 2024 17:59:01 GMT+0200 (Mitteleuropäische Sommerzeit)","3","10","1","1728750181301"
"1299","j","SpeechGestureMatch","../RequiredFiles/videos/NeinDaumenrunter_f.mp4","Ist der Ball in der blauen Box?","Green","Blue","F","negation","match","speech","no","ThumbDown","female","gesture-speech","1470","920","safari","30.38","Mac OS","21","female","right","Sat Oct 12 2024 17:59:08 GMT+0200 (Mitteleuropäische Sommerzeit)","3","11","1","1728750181301"
"983","j","SpeechGestureMatch","../RequiredFiles/videos/NeinDaumenhoch_f.mp4","Ist der Ball in der blauen Box?","Green","Blue","F","negation","mismatch","speech","no","ThumbUp","female","gesture-speech","1470","920","safari","30.38","Mac OS","21","female","right","Sat Oct 12 2024 17:59:14 GMT+0200 (Mitteleuropäische Sommerzeit)","3","12","1","1728750181301"
"541","j","SpeechGestureMatch","../RequiredFiles/videos/NeinDaumenhoch_m_no_gesture.mp4","Ist der Ball in der grünen Box?","Blue","Green","F","negation","na","speech","no","na","male","gesture-speech","1470","920","safari","30.38","Mac OS","21","female","right","Sat Oct 12 2024 17:59:20 GMT+0200 (Mitteleuropäische Sommerzeit)","3","13","1","1728750181301"
"733","j","SpeechGestureMatch","../RequiredFiles/videos/JaDaumenhoch_f.mp4","Ist der Ball in der grünen Box?","Green","Blue","F","affirmation","match","speech","yes","ThumbUp","female","gesture-speech","1470","920","safari","30.38","Mac OS","21","female","right","Sat Oct 12 2024 17:59:26 GMT+0200 (Mitteleuropäische Sommerzeit)","3","14","1","1728750181301"
"1044","j","SpeechGestureMatch","../RequiredFiles/videos/NeinDaumenrunter_f.mp4","Ist der Ball in der blauen Box?","Blue","Green","J","negation","match","speech","no","ThumbDown","female","gesture-speech","1470","920","safari","30.38","Mac OS","21","female","right","Sat Oct 12 2024 17:59:33 GMT+0200 (Mitteleuropäische Sommerzeit)","3","15","0","1728750181301"
"975","j","SpeechGestureMatch","../RequiredFiles/videos/NeinDaumenhoch_m.mp4","Ist der Ball in der grünen Box?","Green","Blue","J","negation","mismatch","speech","no","ThumbUp","male","gesture-speech","1470","920","safari","30.38","Mac OS","21","female","right","Sat Oct 12 2024 17:59:40 GMT+0200 (Mitteleuropäische Sommerzeit)","3","16","0","1728750181301"
"853","j","SpeechGestureMatch","../RequiredFiles/videos/JaDaumenrunter_m.mp4","Ist der Ball in der grünen Box?","Blue","Green","J","affirmation","mismatch","speech","yes","ThumbDown","male","gesture-speech","1470","920","safari","30.38","Mac OS","21","female","right","Sat Oct 12 2024 17:59:46 GMT+0200 (Mitteleuropäische Sommerzeit)","3","17","0","1728750181301"
"663","j","SpeechGestureMatch","../RequiredFiles/videos/NeinDaumenhoch_f.mp4","Ist der Ball in der blauen Box?","Blue","Green","J","negation","mismatch","speech","no","ThumbUp","female","gesture-speech","1470","920","safari","30.38","Mac OS","21","female","right","Sat Oct 12 2024 17:59:52 GMT+0200 (Mitteleuropäische Sommerzeit)","3","18","0","1728750181301"
"879","j","SpeechGestureMatch","../RequiredFiles/videos/JaDaumenhoch_m_no_gesture.mp4","Ist der Ball in der blauen Box?","Green","Blue","J","affirmation","na","speech","yes","na","male","gesture-speech","1470","920","safari","30.38","Mac OS","21","female","right","Sat Oct 12 2024 17:59:59 GMT+0200 (Mitteleuropäische Sommerzeit)","3","19","0","1728750181301"
"640","j","SpeechGestureMatch","../RequiredFiles/videos/NeinDaumenrunter_f.mp4","Ist der Ball in der grünen Box?","Green","Blue","J","negation","match","speech","no","ThumbDown","female","gesture-speech","1470","920","safari","30.38","Mac OS","21","female","right","Sat Oct 12 2024 18:00:05 GMT+0200 (Mitteleuropäische Sommerzeit)","3","20","0","1728750181301"
"1006","j","SpeechGestureMatch","../RequiredFiles/videos/NeinDaumenhoch_f.mp4","Ist der Ball in der grünen Box?","Green","Blue","J","negation","mismatch","speech","no","ThumbUp","female","gesture-speech","1470","920","safari","30.38","Mac OS","21","female","right","Sat Oct 12 2024 18:00:11 GMT+0200 (Mitteleuropäische Sommerzeit)","3","21","0","1728750181301"
"904","j","SpeechGestureMatch","../RequiredFiles/videos/JaDaumenhoch_m_no_gesture.mp4","Ist der Ball in der grünen Box?","Blue","Green","J","affirmation","na","speech","yes","na","male","gesture-speech","1470","920","safari","30.38","Mac OS","21","female","right","Sat Oct 12 2024 18:00:18 GMT+0200 (Mitteleuropäische Sommerzeit)","3","22","0","1728750181301"
"537","j","SpeechGestureMatch","../RequiredFiles/videos/JaDaumenhoch_m.mp4","Ist der Ball in der blauen Box?","Green","Blue","J","affirmation","match","speech","yes","ThumbUp","male","gesture-speech","1470","920","safari","30.38","Mac OS","21","female","right","Sat Oct 12 2024 18:00:24 GMT+0200 (Mitteleuropäische Sommerzeit)","3","23","0","1728750181301"
"409","j","SpeechGestureMatch","../RequiredFiles/videos/JaDaumenrunter_f.mp4","Ist der Ball in der grünen Box?","Green","Blue","F","affirmation","mismatch","speech","yes","ThumbDown","female","gesture-speech","1470","920","safari","30.38","Mac OS","21","female","right","Sat Oct 12 2024 18:00:30 GMT+0200 (Mitteleuropäische Sommerzeit)","3","24","1","1728750181301"
"1754","j","SpeechGestureMatch","../RequiredFiles/videos/JaDaumenhoch_f_no_gesture.mp4","Ist der Ball in der blauen Box?","Green","Blue","J","affirmation","na","speech","yes","na","female","gesture-speech","1470","920","safari","30.38","Mac OS","21","female","right","Sat Oct 12 2024 18:00:37 GMT+0200 (Mitteleuropäische Sommerzeit)","3","25","0","1728750181301"
"1174","j","SpeechGestureMatch","../RequiredFiles/videos/NeinDaumenrunter_f.mp4","Ist der Ball in der grünen Box?","Blue","Green","F","negation","match","speech","no","ThumbDown","female","gesture-speech","1470","920","safari","30.38","Mac OS","21","female","right","Sat Oct 12 2024 18:00:44 GMT+0200 (Mitteleuropäische Sommerzeit)","3","26","1","1728750181301"
"865","j","SpeechGestureMatch","../RequiredFiles/videos/NeinDaumenrunter_m_no_gesture.mp4","Ist der Ball in der grünen Box?","Green","Blue","J","negation","na","speech","no","na","male","gesture-speech","1470","920","safari","30.38","Mac OS","21","female","right","Sat Oct 12 2024 18:00:50 GMT+0200 (Mitteleuropäische Sommerzeit)","3","27","0","1728750181301"
"5681","j","SpeechGestureMatch","../RequiredFiles/videos/JaDaumenrunter_m.mp4","Ist der Ball in der blauen Box?","Blue","Green","F","affirmation","mismatch","speech","yes","ThumbDown","male","gesture-speech","1470","920","safari","30.38","Mac OS","21","female","right","Sat Oct 12 2024 18:01:01 GMT+0200 (Mitteleuropäische Sommerzeit)","3","28","1","1728750181301"
"1729","j","SpeechGestureMatch","../RequiredFiles/videos/JaDaumenrunter_m.mp4","Ist der Ball in der blauen Box?","Green","Blue","J","affirmation","mismatch","speech","yes","ThumbDown","male","gesture-speech","1470","920","safari","30.38","Mac OS","21","female","right","Sat Oct 12 2024 18:01:09 GMT+0200 (Mitteleuropäische Sommerzeit)","3","29","0","1728750181301"
"4192","j","SpeechGestureMatch","../RequiredFiles/videos/JaDaumenrunter_m_no_gesture.mp4","Ist der Ball in der grünen Box?","Green","Blue","F","affirmation","na","speech","yes","na","male","gesture-speech","1470","920","safari","30.38","Mac OS","21","female","right","Sat Oct 12 2024 18:01:18 GMT+0200 (Mitteleuropäische Sommerzeit)","3","30","1","1728750181301"
"589","j","SpeechGestureMatch","../RequiredFiles/videos/JaDaumenrunter_f_no_gesture.mp4","Ist der Ball in der grünen Box?","Blue","Green","J","affirmation","na","speech","yes","na","female","gesture-speech","1470","920","safari","30.38","Mac OS","21","female","right","Sat Oct 12 2024 18:01:25 GMT+0200 (Mitteleuropäische Sommerzeit)","3","31","0","1728750181301"
"378","j","SpeechGestureMatch","../RequiredFiles/videos/JaDaumenrunter_f.mp4","Ist der Ball in der blauen Box?","Blue","Green","F","affirmation","mismatch","speech","yes","ThumbDown","female","gesture-speech","1470","920","safari","30.38","Mac OS","21","female","right","Sat Oct 12 2024 18:01:30 GMT+0200 (Mitteleuropäische Sommerzeit)","3","32","1","1728750181301"
"12243","j","SpeechGestureMatch","../RequiredFiles/videos/JaDaumenrunter_f.mp4","Ist der Ball in der grünen Box?","Blue","Green","J","affirmation","mismatch","speech","yes","ThumbDown","female","gesture-speech","1470","920","safari","30.38","Mac OS","21","female","right","Sat Oct 12 2024 18:01:48 GMT+0200 (Mitteleuropäische Sommerzeit)","3","33","0","1728750181301"
"732","j","SpeechGestureMatch","../RequiredFiles/videos/JaDaumenhoch_f_no_gesture.mp4","Ist der Ball in der grünen Box?","Blue","Green","J","affirmation","na","speech","yes","na","female","gesture-speech","1470","920","safari","30.38","Mac OS","21","female","right","Sat Oct 12 2024 18:01:54 GMT+0200 (Mitteleuropäische Sommerzeit)","3","34","0","1728750181301"
"705","j","SpeechGestureMatch","../RequiredFiles/videos/NeinDaumenhoch_f_no_gesture.mp4","Ist der Ball in der blauen Box?","Green","Blue","F","negation","na","speech","no","na","female","gesture-speech","1470","920","safari","30.38","Mac OS","21","female","right","Sat Oct 12 2024 18:02:01 GMT+0200 (Mitteleuropäische Sommerzeit)","3","35","1","1728750181301"
"7095","j","SpeechGestureMatch","../RequiredFiles/videos/NeinDaumenrunter_f.mp4","Ist der Ball in der grünen Box?","Blue","Green","F","negation","match","speech","no","ThumbDown","female","gesture-speech","1470","920","safari","30.38","Mac OS","21","female","right","Sat Oct 12 2024 18:02:13 GMT+0200 (Mitteleuropäische Sommerzeit)","3","36","1","1728750181301"
"1256","j","SpeechGestureMatch","../RequiredFiles/videos/JaDaumenhoch_m.mp4","Ist der Ball in der grünen Box?","Blue","Green","J","affirmation","match","speech","yes","ThumbUp","male","gesture-speech","1470","920","safari","30.38","Mac OS","21","female","right","Sat Oct 12 2024 18:02:20 GMT+0200 (Mitteleuropäische Sommerzeit)","3","37","0","1728750181301"
"3362","j","SpeechGestureMatch","../RequiredFiles/videos/NeinDaumenhoch_f_no_gesture.mp4","Ist der Ball in der blauen Box?","Blue","Green","J","negation","na","speech","no","na","female","gesture-speech","1470","920","safari","30.38","Mac OS","21","female","right","Sat Oct 12 2024 18:02:29 GMT+0200 (Mitteleuropäische Sommerzeit)","3","38","0","1728750181301"
"1058","j","SpeechGestureMatch","../RequiredFiles/videos/NeinDaumenrunter_m.mp4","Ist der Ball in der grünen Box?","Blue","Green","F","negation","match","speech","no","ThumbDown","male","gesture-speech","1470","920","safari","30.38","Mac OS","21","female","right","Sat Oct 12 2024 18:02:36 GMT+0200 (Mitteleuropäische Sommerzeit)","3","39","1","1728750181301"
"748","j","SpeechGestureMatch","../RequiredFiles/videos/JaDaumenhoch_f.mp4","Ist der Ball in der grünen Box?","Green","Blue","F","affirmation","match","speech","yes","ThumbUp","female","gesture-speech","1470","920","safari","30.38","Mac OS","21","female","right","Sat Oct 12 2024 18:02:42 GMT+0200 (Mitteleuropäische Sommerzeit)","3","40","1","1728750181301"
"4986","j","SpeechGestureMatch","../RequiredFiles/videos/NeinDaumenrunter_f.mp4","Ist der Ball in der blauen Box?","Blue","Green","J","negation","match","speech","no","ThumbDown","female","gesture-speech","1470","920","safari","30.38","Mac OS","21","female","right","Sat Oct 12 2024 18:02:52 GMT+0200 (Mitteleuropäische Sommerzeit)","3","41","0","1728750181301"
"1394","j","SpeechGestureMatch","../RequiredFiles/videos/JaDaumenrunter_f.mp4","Ist der Ball in der grünen Box?","Blue","Green","J","affirmation","mismatch","speech","yes","ThumbDown","female","gesture-speech","1470","920","safari","30.38","Mac OS","21","female","right","Sat Oct 12 2024 18:02:59 GMT+0200 (Mitteleuropäische Sommerzeit)","3","42","0","1728750181301"
"865","j","SpeechGestureMatch","../RequiredFiles/videos/JaDaumenrunter_f.mp4","Ist der Ball in der blauen Box?","Blue","Green","F","affirmation","mismatch","speech","yes","ThumbDown","female","gesture-speech","1470","920","safari","30.38","Mac OS","21","female","right","Sat Oct 12 2024 18:03:06 GMT+0200 (Mitteleuropäische Sommerzeit)","3","43","1","1728750181301"
"938","j","SpeechGestureMatch","../RequiredFiles/videos/NeinDaumenhoch_m.mp4","Ist der Ball in der blauen Box?","Blue","Green","J","negation","mismatch","speech","no","ThumbUp","male","gesture-speech","1470","920","safari","30.38","Mac OS","21","female","right","Sat Oct 12 2024 18:03:12 GMT+0200 (Mitteleuropäische Sommerzeit)","3","44","0","1728750181301"
"594","j","SpeechGestureMatch","../RequiredFiles/videos/JaDaumenhoch_m.mp4","Ist der Ball in der blauen Box?","Blue","Green","F","affirmation","match","speech","yes","ThumbUp","male","gesture-speech","1470","920","safari","30.38","Mac OS","21","female","right","Sat Oct 12 2024 18:03:18 GMT+0200 (Mitteleuropäische Sommerzeit)","3","45","1","1728750181301"
"7433","j","SpeechGestureMatch","../RequiredFiles/videos/JaDaumenhoch_m_no_gesture.mp4","Ist der Ball in der grünen Box?","Green","Blue","F","affirmation","na","speech","yes","na","male","gesture-speech","1470","920","safari","30.38","Mac OS","21","female","right","Sat Oct 12 2024 18:03:31 GMT+0200 (Mitteleuropäische Sommerzeit)","3","46","1","1728750181301"
"545","j","SpeechGestureMatch","../RequiredFiles/videos/NeinDaumenhoch_f.mp4","Ist der Ball in der blauen Box?","Green","Blue","F","negation","mismatch","speech","no","ThumbUp","female","gesture-speech","1470","920","safari","30.38","Mac OS","21","female","right","Sat Oct 12 2024 18:03:37 GMT+0200 (Mitteleuropäische Sommerzeit)","3","47","1","1728750181301"
"832","j","SpeechGestureMatch","../RequiredFiles/videos/NeinDaumenrunter_m_no_gesture.mp4","Ist der Ball in der blauen Box?","Green","Blue","F","negation","na","speech","no","na","male","gesture-speech","1470","920","safari","30.38","Mac OS","21","female","right","Sat Oct 12 2024 18:03:44 GMT+0200 (Mitteleuropäische Sommerzeit)","3","48","1","1728750181301"
"2973","j","SpeechGestureMatch","../RequiredFiles/videos/JaDaumenhoch_f.mp4","Ist der Ball in der blauen Box?","Blue","Green","F","affirmation","match","speech","yes","ThumbUp","female","gesture-speech","1470","920","safari","30.38","Mac OS","21","female","right","Sat Oct 12 2024 18:03:52 GMT+0200 (Mitteleuropäische Sommerzeit)","3","49","1","1728750181301"
"3226","j","SpeechGestureMatch","../RequiredFiles/videos/JaDaumenhoch_f.mp4","Ist der Ball in der grünen Box?","Blue","Green","J","affirmation","match","speech","yes","ThumbUp","female","gesture-speech","1470","920","safari","30.38","Mac OS","21","female","right","Sat Oct 12 2024 18:04:01 GMT+0200 (Mitteleuropäische Sommerzeit)","3","50","0","1728750181301"
"1134","j","SpeechGestureMatch","../RequiredFiles/videos/NeinDaumenhoch_f.mp4","Ist der Ball in der grünen Box?","Blue","Green","F","negation","mismatch","speech","no","ThumbUp","female","gesture-speech","1470","920","safari","30.38","Mac OS","21","female","right","Sat Oct 12 2024 18:04:08 GMT+0200 (Mitteleuropäische Sommerzeit)","3","51","1","1728750181301"
"5134","j","SpeechGestureMatch","../RequiredFiles/videos/JaDaumenrunter_m_no_gesture.mp4","Ist der Ball in der grünen Box?","Blue","Green","J","affirmation","na","speech","yes","na","male","gesture-speech","1470","920","safari","30.38","Mac OS","21","female","right","Sat Oct 12 2024 18:04:18 GMT+0200 (Mitteleuropäische Sommerzeit)","3","52","0","1728750181301"
"1752","j","SpeechGestureMatch","../RequiredFiles/videos/JaDaumenhoch_m.mp4","Ist der Ball in der grünen Box?","Green","Blue","F","affirmation","match","speech","yes","ThumbUp","male","gesture-speech","1470","920","safari","30.38","Mac OS","21","female","right","Sat Oct 12 2024 18:04:26 GMT+0200 (Mitteleuropäische Sommerzeit)","3","53","1","1728750181301"
"2691","j","SpeechGestureMatch","../RequiredFiles/videos/NeinDaumenrunter_m.mp4","Ist der Ball in der grünen Box?","Blue","Green","F","negation","match","speech","no","ThumbDown","male","gesture-speech","1470","920","safari","30.38","Mac OS","21","female","right","Sat Oct 12 2024 18:04:34 GMT+0200 (Mitteleuropäische Sommerzeit)","3","54","1","1728750181301"
"2112","f","SpeechGestureMatch","../RequiredFiles/videos/NeinDaumenrunter_m_no_gesture.mp4","Ist der Ball in der grünen Box?","Blue","Green","F","negation","na","speech","no","na","male","gesture-speech","1470","920","safari","30.38","Mac OS","21","female","right","Sat Oct 12 2024 18:04:42 GMT+0200 (Mitteleuropäische Sommerzeit)","3","55","0","1728750181301"
"1241","f","SpeechGestureMatch","../RequiredFiles/videos/JaDaumenhoch_m.mp4","Ist der Ball in der grünen Box?","Green","Blue","F","affirmation","match","speech","yes","ThumbUp","male","gesture-speech","1470","920","safari","30.38","Mac OS","21","female","right","Sat Oct 12 2024 18:04:48 GMT+0200 (Mitteleuropäische Sommerzeit)","3","56","0","1728750181301"
"3106","j","SpeechGestureMatch","../RequiredFiles/videos/NeinDaumenhoch_m_no_gesture.mp4","Ist der Ball in der blauen Box?","Blue","Green","J","negation","na","speech","no","na","male","gesture-speech","1470","920","safari","30.38","Mac OS","21","female","right","Sat Oct 12 2024 18:04:57 GMT+0200 (Mitteleuropäische Sommerzeit)","3","57","0","1728750181301"
"29237","j","SpeechGestureMatch","../RequiredFiles/videos/NeinDaumenhoch_f.mp4","Ist der Ball in der blauen Box?","Blue","Green","J","negation","mismatch","speech","no","ThumbUp","female","gesture-speech","1470","920","safari","30.38","Mac OS","21","female","right","Sat Oct 12 2024 18:05:32 GMT+0200 (Mitteleuropäische Sommerzeit)","3","58","0","1728750181301"
"381","j","SpeechGestureMatch","../RequiredFiles/videos/JaDaumenhoch_f_no_gesture.mp4","Ist der Ball in der blauen Box?","Blue","Green","F","affirmation","na","speech","yes","na","female","gesture-speech","1470","920","safari","30.38","Mac OS","21","female","right","Sat Oct 12 2024 18:05:38 GMT+0200 (Mitteleuropäische Sommerzeit)","3","59","1","1728750181301"
"611","j","SpeechGestureMatch","../RequiredFiles/videos/NeinDaumenrunter_f_no_gesture.mp4","Ist der Ball in der blauen Box?","Green","Blue","F","negation","na","speech","no","na","female","gesture-speech","1470","920","safari","30.38","Mac OS","21","female","right","Sat Oct 12 2024 18:05:44 GMT+0200 (Mitteleuropäische Sommerzeit)","3","60","1","1728750181301"
"3796","j","SpeechGestureMatch","../RequiredFiles/videos/NeinDaumenrunter_f.mp4","Ist der Ball in der grünen Box?","Green","Blue","J","negation","match","speech","no","ThumbDown","female","gesture-speech","1470","920","safari","30.38","Mac OS","21","female","right","Sat Oct 12 2024 18:05:53 GMT+0200 (Mitteleuropäische Sommerzeit)","3","61","0","1728750181301"
"823","j","SpeechGestureMatch","../RequiredFiles/videos/NeinDaumenhoch_f.mp4","Ist der Ball in der grünen Box?","Green","Blue","J","negation","mismatch","speech","no","ThumbUp","female","gesture-speech","1470","920","safari","30.38","Mac OS","21","female","right","Sat Oct 12 2024 18:06:00 GMT+0200 (Mitteleuropäische Sommerzeit)","3","62","0","1728750181301"
"994","j","SpeechGestureMatch","../RequiredFiles/videos/NeinDaumenrunter_m.mp4","Ist der Ball in der blauen Box?","Blue","Green","J","negation","match","speech","no","ThumbDown","male","gesture-speech","1470","920","safari","30.38","Mac OS","21","female","right","Sat Oct 12 2024 18:06:06 GMT+0200 (Mitteleuropäische Sommerzeit)","3","63","0","1728750181301"
"563","j","SpeechGestureMatch","../RequiredFiles/videos/JaDaumenhoch_f.mp4","Ist der Ball in der blauen Box?","Green","Blue","J","affirmation","match","speech","yes","ThumbUp","female","gesture-speech","1470","920","safari","30.38","Mac OS","21","female","right","Sat Oct 12 2024 18:06:12 GMT+0200 (Mitteleuropäische Sommerzeit)","3","64","0","1728750181301"
"567","j","SpeechGestureMatch","../RequiredFiles/videos/JaDaumenrunter_m.mp4","Ist der Ball in der grünen Box?","Blue","Green","J","affirmation","mismatch","speech","yes","ThumbDown","male","gesture-speech","1470","920","safari","30.38","Mac OS","21","female","right","Sat Oct 12 2024 18:06:18 GMT+0200 (Mitteleuropäische Sommerzeit)","3","65","0","1728750181301"
"662","j","SpeechGestureMatch","../RequiredFiles/videos/NeinDaumenhoch_f_no_gesture.mp4","Ist der Ball in der grünen Box?","Blue","Green","F","negation","na","speech","no","na","female","gesture-speech","1470","920","safari","30.38","Mac OS","21","female","right","Sat Oct 12 2024 18:06:24 GMT+0200 (Mitteleuropäische Sommerzeit)","3","66","1","1728750181301"
"3131","j","SpeechGestureMatch","../RequiredFiles/videos/JaDaumenrunter_m.mp4","Ist der Ball in der grünen Box?","Green","Blue","F","affirmation","mismatch","speech","yes","ThumbDown","male","gesture-speech","1470","920","safari","30.38","Mac OS","21","female","right","Sat Oct 12 2024 18:06:33 GMT+0200 (Mitteleuropäische Sommerzeit)","3","67","1","1728750181301"
"4904","j","SpeechGestureMatch","../RequiredFiles/videos/NeinDaumenrunter_f.mp4","Ist der Ball in der blauen Box?","Green","Blue","F","negation","match","speech","no","ThumbDown","female","gesture-speech","1470","920","safari","30.38","Mac OS","21","female","right","Sat Oct 12 2024 18:06:44 GMT+0200 (Mitteleuropäische Sommerzeit)","3","68","1","1728750181301"
"971","j","SpeechGestureMatch","../RequiredFiles/videos/NeinDaumenrunter_m.mp4","Ist der Ball in der grünen Box?","Green","Blue","J","negation","match","speech","no","ThumbDown","male","gesture-speech","1470","920","safari","30.38","Mac OS","21","female","right","Sat Oct 12 2024 18:06:50 GMT+0200 (Mitteleuropäische Sommerzeit)","3","69","0","1728750181301"
"656","j","SpeechGestureMatch","../RequiredFiles/videos/JaDaumenrunter_f.mp4","Ist der Ball in der blauen Box?","Green","Blue","J","affirmation","mismatch","speech","yes","ThumbDown","female","gesture-speech","1470","920","safari","30.38","Mac OS","21","female","right","Sat Oct 12 2024 18:06:56 GMT+0200 (Mitteleuropäische Sommerzeit)","3","70","0","1728750181301"
"593","j","SpeechGestureMatch","../RequiredFiles/videos/JaDaumenrunter_m_no_gesture.mp4","Ist der Ball in der blauen Box?","Blue","Green","F","affirmation","na","speech","yes","na","male","gesture-speech","1470","920","safari","30.38","Mac OS","21","female","right","Sat Oct 12 2024 18:07:02 GMT+0200 (Mitteleuropäische Sommerzeit)","3","71","1","1728750181301"
"554","j","SpeechGestureMatch","../RequiredFiles/videos/JaDaumenrunter_f.mp4","Ist der Ball in der grünen Box?","Green","Blue","F","affirmation","mismatch","speech","yes","ThumbDown","female","gesture-speech","1470","920","safari","30.38","Mac OS","21","female","right","Sat Oct 12 2024 18:07:08 GMT+0200 (Mitteleuropäische Sommerzeit)","3","72","1","1728750181301"
"1035","j","SpeechGestureMatch","../RequiredFiles/videos/JaDaumenrunter_m_no_gesture.mp4","Ist der Ball in der blauen Box?","Green","Blue","J","affirmation","na","speech","yes","na","male","gesture-speech","1470","920","safari","30.38","Mac OS","21","female","right","Sat Oct 12 2024 18:07:15 GMT+0200 (Mitteleuropäische Sommerzeit)","3","73","0","1728750181301"
"3532","j","SpeechGestureMatch","../RequiredFiles/videos/JaDaumenhoch_f_no_gesture.mp4","Ist der Ball in der grünen Box?","Green","Blue","F","affirmation","na","speech","yes","na","female","gesture-speech","1470","920","safari","30.38","Mac OS","21","female","right","Sat Oct 12 2024 18:07:24 GMT+0200 (Mitteleuropäische Sommerzeit)","3","74","1","1728750181301"
"3542","j","SpeechGestureMatch","../RequiredFiles/videos/NeinDaumenhoch_m.mp4","Ist der Ball in der blauen Box?","Green","Blue","F","negation","mismatch","speech","no","ThumbUp","male","gesture-speech","1470","920","safari","30.38","Mac OS","21","female","right","Sat Oct 12 2024 18:07:33 GMT+0200 (Mitteleuropäische Sommerzeit)","3","75","1","1728750181301"
"5139","j","SpeechGestureMatch","../RequiredFiles/videos/JaDaumenrunter_f_no_gesture.mp4","Ist der Ball in der blauen Box?","Green","Blue","J","affirmation","na","speech","yes","na","female","gesture-speech","1470","920","safari","30.38","Mac OS","21","female","right","Sat Oct 12 2024 18:07:44 GMT+0200 (Mitteleuropäische Sommerzeit)","3","76","0","1728750181301"
"2349","j","SpeechGestureMatch","../RequiredFiles/videos/JaDaumenhoch_f.mp4","Ist der Ball in der blauen Box?","Green","Blue","J","affirmation","match","speech","yes","ThumbUp","female","gesture-speech","1470","920","safari","30.38","Mac OS","21","female","right","Sat Oct 12 2024 18:07:52 GMT+0200 (Mitteleuropäische Sommerzeit)","3","77","0","1728750181301"
"5904","j","SpeechGestureMatch","../RequiredFiles/videos/JaDaumenhoch_f.mp4","Ist der Ball in der grünen Box?","Blue","Green","J","affirmation","match","speech","yes","ThumbUp","female","gesture-speech","1470","920","safari","30.38","Mac OS","21","female","right","Sat Oct 12 2024 18:08:03 GMT+0200 (Mitteleuropäische Sommerzeit)","3","78","0","1728750181301"
"1312","j","SpeechGestureMatch","../RequiredFiles/videos/NeinDaumenhoch_m_no_gesture.mp4","Ist der Ball in der blauen Box?","Green","Blue","F","negation","na","speech","no","na","male","gesture-speech","1470","920","safari","30.38","Mac OS","21","female","right","Sat Oct 12 2024 18:08:10 GMT+0200 (Mitteleuropäische Sommerzeit)","3","79","1","1728750181301"
"102","j","SpeechGestureMatch","../RequiredFiles/videos/JaDaumenrunter_f_no_gesture.mp4","Ist der Ball in der grünen Box?","Green","Blue","F","affirmation","na","speech","yes","na","female","gesture-speech","1470","920","safari","30.38","Mac OS","21","female","right","Sat Oct 12 2024 18:08:16 GMT+0200 (Mitteleuropäische Sommerzeit)","3","80","1","1728750181301"
"2839","j","SpeechGestureMatch","../RequiredFiles/videos/JaDaumenrunter_m.mp4","Ist der Ball in der blauen Box?","Green","Blue","J","affirmation","mismatch","speech","yes","ThumbDown","male","gesture-speech","1470","920","safari","30.38","Mac OS","21","female","right","Sat Oct 12 2024 18:08:24 GMT+0200 (Mitteleuropäische Sommerzeit)","3","81","0","1728750181301"
"660","j","SpeechGestureMatch","../RequiredFiles/videos/NeinDaumenhoch_f.mp4","Ist der Ball in der grünen Box?","Blue","Green","F","negation","mismatch","speech","no","ThumbUp","female","gesture-speech","1470","920","safari","30.38","Mac OS","21","female","right","Sat Oct 12 2024 18:08:30 GMT+0200 (Mitteleuropäische Sommerzeit)","3","82","1","1728750181301"
