"rt","response","stim","video","question","box_colour_left","box_colour_right","correct_key","polarity","matching","modality","verbal","gesture","speaker","order","width","height","browser","vsync_rate","os","age","gender","handedness","date","blockNum","trialNum","error","vpNum"
"1539","f","SpeechGestureMatch","../RequiredFiles/videos/NeinDaumenrunter_m_no_gesture.mp4","Ist der Ball in der grünen Box?","Blue","Green","F","negation","na","speech","no","na","male","speech-gesture","1470","920","safari","30.24","Mac OS","20","female","right","Wed Oct 16 2024 14:41:56 GMT+0200 (Mitteleuropäische Sommerzeit)","1","1","0","1729085660079"
"1218","j","SpeechGestureMatch","../RequiredFiles/videos/JaDaumenrunter_f.mp4","Ist der Ball in der grünen Box?","Blue","Green","J","affirmation","mismatch","speech","yes","ThumbDown","female","speech-gesture","1470","920","safari","30.24","Mac OS","20","female","right","Wed Oct 16 2024 14:42:03 GMT+0200 (Mitteleuropäische Sommerzeit)","1","2","0","1729085660079"
"1083","j","SpeechGestureMatch","../RequiredFiles/videos/NeinDaumenrunter_f.mp4","Ist der Ball in der grünen Box?","Green","Blue","J","negation","match","speech","no","ThumbDown","female","speech-gesture","1470","920","safari","30.24","Mac OS","20","female","right","Wed Oct 16 2024 14:42:09 GMT+0200 (Mitteleuropäische Sommerzeit)","1","3","0","1729085660079"
"1116","f","SpeechGestureMatch","../RequiredFiles/videos/JaDaumenrunter_f.mp4","Ist der Ball in der blauen Box?","Blue","Green","F","affirmation","mismatch","speech","yes","ThumbDown","female","speech-gesture","1470","920","safari","30.24","Mac OS","20","female","right","Wed Oct 16 2024 14:42:16 GMT+0200 (Mitteleuropäische Sommerzeit)","1","4","0","1729085660079"
"1071","j","SpeechGestureMatch","../RequiredFiles/videos/JaDaumenhoch_f.mp4","Ist der Ball in der grünen Box?","Blue","Green","J","affirmation","match","speech","yes","ThumbUp","female","speech-gesture","1470","920","safari","30.24","Mac OS","20","female","right","Wed Oct 16 2024 14:42:23 GMT+0200 (Mitteleuropäische Sommerzeit)","1","5","0","1729085660079"
"1051","f","SpeechGestureMatch","../RequiredFiles/videos/NeinDaumenhoch_f_no_gesture.mp4","Ist der Ball in der grünen Box?","Blue","Green","F","negation","na","speech","no","na","female","speech-gesture","1470","920","safari","30.24","Mac OS","20","female","right","Wed Oct 16 2024 14:42:29 GMT+0200 (Mitteleuropäische Sommerzeit)","1","6","0","1729085660079"
"1201","f","SpeechGestureMatch","../RequiredFiles/videos/NeinDaumenhoch_f.mp4","Ist der Ball in der blauen Box?","Green","Blue","F","negation","mismatch","speech","no","ThumbUp","female","speech-gesture","1470","920","safari","30.24","Mac OS","20","female","right","Wed Oct 16 2024 14:42:36 GMT+0200 (Mitteleuropäische Sommerzeit)","1","7","0","1729085660079"
"1167","j","SpeechGestureMatch","../RequiredFiles/videos/NeinDaumenrunter_f_no_gesture.mp4","Ist der Ball in der blauen Box?","Blue","Green","J","negation","na","speech","no","na","female","speech-gesture","1470","920","safari","30.24","Mac OS","20","female","right","Wed Oct 16 2024 14:42:43 GMT+0200 (Mitteleuropäische Sommerzeit)","1","8","0","1729085660079"
"1034","j","SpeechGestureMatch","../RequiredFiles/videos/JaDaumenrunter_f.mp4","Ist der Ball in der blauen Box?","Green","Blue","J","affirmation","mismatch","speech","yes","ThumbDown","female","speech-gesture","1470","920","safari","30.24","Mac OS","20","female","right","Wed Oct 16 2024 14:42:49 GMT+0200 (Mitteleuropäische Sommerzeit)","1","9","0","1729085660079"
"1115","f","SpeechGestureMatch","../RequiredFiles/videos/NeinDaumenhoch_m_no_gesture.mp4","Ist der Ball in der blauen Box?","Green","Blue","F","negation","na","speech","no","na","male","speech-gesture","1470","920","safari","30.24","Mac OS","20","female","right","Wed Oct 16 2024 14:42:56 GMT+0200 (Mitteleuropäische Sommerzeit)","1","10","0","1729085660079"
"1088","j","SpeechGestureMatch","../RequiredFiles/videos/NeinDaumenrunter_m.mp4","Ist der Ball in der blauen Box?","Blue","Green","J","negation","match","speech","no","ThumbDown","male","speech-gesture","1470","920","safari","30.24","Mac OS","20","female","right","Wed Oct 16 2024 14:43:03 GMT+0200 (Mitteleuropäische Sommerzeit)","1","11","0","1729085660079"
"1207","j","SpeechGestureMatch","../RequiredFiles/videos/NeinDaumenrunter_f.mp4","Ist der Ball in der blauen Box?","Blue","Green","J","negation","match","speech","no","ThumbDown","female","speech-gesture","1470","920","safari","30.24","Mac OS","20","female","right","Wed Oct 16 2024 14:43:09 GMT+0200 (Mitteleuropäische Sommerzeit)","1","12","0","1729085660079"
"1024","f","SpeechGestureMatch","../RequiredFiles/videos/JaDaumenhoch_f.mp4","Ist der Ball in der grünen Box?","Green","Blue","F","affirmation","match","speech","yes","ThumbUp","female","speech-gesture","1470","920","safari","30.24","Mac OS","20","female","right","Wed Oct 16 2024 14:43:16 GMT+0200 (Mitteleuropäische Sommerzeit)","1","13","0","1729085660079"
"1286","f","SpeechGestureMatch","../RequiredFiles/videos/NeinDaumenhoch_m.mp4","Ist der Ball in der blauen Box?","Green","Blue","F","negation","mismatch","speech","no","ThumbUp","male","speech-gesture","1470","920","safari","30.24","Mac OS","20","female","right","Wed Oct 16 2024 14:43:23 GMT+0200 (Mitteleuropäische Sommerzeit)","1","14","0","1729085660079"
"1122","j","SpeechGestureMatch","../RequiredFiles/videos/NeinDaumenhoch_f.mp4","Ist der Ball in der grünen Box?","Green","Blue","J","negation","mismatch","speech","no","ThumbUp","female","speech-gesture","1470","920","safari","30.24","Mac OS","20","female","right","Wed Oct 16 2024 14:43:29 GMT+0200 (Mitteleuropäische Sommerzeit)","1","15","0","1729085660079"
"1129","j","SpeechGestureMatch","../RequiredFiles/videos/NeinDaumenhoch_f_no_gesture.mp4","Ist der Ball in der grünen Box?","Green","Blue","J","negation","na","speech","no","na","female","speech-gesture","1470","920","safari","30.24","Mac OS","20","female","right","Wed Oct 16 2024 14:43:36 GMT+0200 (Mitteleuropäische Sommerzeit)","1","16","0","1729085660079"
"1129","j","SpeechGestureMatch","../RequiredFiles/videos/NeinDaumenhoch_m_no_gesture.mp4","Ist der Ball in der blauen Box?","Blue","Green","J","negation","na","speech","no","na","male","speech-gesture","1470","920","safari","30.24","Mac OS","20","female","right","Wed Oct 16 2024 14:43:43 GMT+0200 (Mitteleuropäische Sommerzeit)","1","17","0","1729085660079"
"1148","f","SpeechGestureMatch","../RequiredFiles/videos/NeinDaumenrunter_f_no_gesture.mp4","Ist der Ball in der grünen Box?","Blue","Green","F","negation","na","speech","no","na","female","speech-gesture","1470","920","safari","30.24","Mac OS","20","female","right","Wed Oct 16 2024 14:43:49 GMT+0200 (Mitteleuropäische Sommerzeit)","1","18","0","1729085660079"
"1229","j","SpeechGestureMatch","../RequiredFiles/videos/NeinDaumenhoch_m_no_gesture.mp4","Ist der Ball in der grünen Box?","Green","Blue","J","negation","na","speech","no","na","male","speech-gesture","1470","920","safari","30.24","Mac OS","20","female","right","Wed Oct 16 2024 14:43:56 GMT+0200 (Mitteleuropäische Sommerzeit)","1","19","0","1729085660079"
"1126","j","SpeechGestureMatch","../RequiredFiles/videos/JaDaumenrunter_f_no_gesture.mp4","Ist der Ball in der blauen Box?","Green","Blue","J","affirmation","na","speech","yes","na","female","speech-gesture","1470","920","safari","30.24","Mac OS","20","female","right","Wed Oct 16 2024 14:44:03 GMT+0200 (Mitteleuropäische Sommerzeit)","1","20","0","1729085660079"
"1125","j","SpeechGestureMatch","../RequiredFiles/videos/NeinDaumenrunter_m_no_gesture.mp4","Ist der Ball in der grünen Box?","Green","Blue","J","negation","na","speech","no","na","male","speech-gesture","1470","920","safari","30.24","Mac OS","20","female","right","Wed Oct 16 2024 14:44:09 GMT+0200 (Mitteleuropäische Sommerzeit)","1","21","0","1729085660079"
"1103","j","SpeechGestureMatch","../RequiredFiles/videos/JaDaumenrunter_f.mp4","Ist der Ball in der blauen Box?","Green","Blue","J","affirmation","mismatch","speech","yes","ThumbDown","female","speech-gesture","1470","920","safari","30.24","Mac OS","20","female","right","Wed Oct 16 2024 14:44:16 GMT+0200 (Mitteleuropäische Sommerzeit)","1","22","0","1729085660079"
"1265","f","SpeechGestureMatch","../RequiredFiles/videos/JaDaumenrunter_f.mp4","Ist der Ball in der grünen Box?","Green","Blue","F","affirmation","mismatch","speech","yes","ThumbDown","female","speech-gesture","1470","920","safari","30.24","Mac OS","20","female","right","Wed Oct 16 2024 14:44:23 GMT+0200 (Mitteleuropäische Sommerzeit)","1","23","0","1729085660079"
"2649","j","SpeechGestureMatch","../RequiredFiles/videos/JaDaumenrunter_m.mp4","Ist der Ball in der grünen Box?","Blue","Green","J","affirmation","mismatch","speech","yes","ThumbDown","male","speech-gesture","1470","920","safari","30.24","Mac OS","20","female","right","Wed Oct 16 2024 14:44:31 GMT+0200 (Mitteleuropäische Sommerzeit)","1","24","0","1729085660079"
"1106","f","SpeechGestureMatch","../RequiredFiles/videos/JaDaumenhoch_m.mp4","Ist der Ball in der grünen Box?","Green","Blue","F","affirmation","match","speech","yes","ThumbUp","male","speech-gesture","1470","920","safari","30.24","Mac OS","20","female","right","Wed Oct 16 2024 14:44:38 GMT+0200 (Mitteleuropäische Sommerzeit)","1","25","0","1729085660079"
"1091","f","SpeechGestureMatch","../RequiredFiles/videos/NeinDaumenhoch_f.mp4","Ist der Ball in der grünen Box?","Blue","Green","F","negation","mismatch","speech","no","ThumbUp","female","speech-gesture","1470","920","safari","30.24","Mac OS","20","female","right","Wed Oct 16 2024 14:44:44 GMT+0200 (Mitteleuropäische Sommerzeit)","1","26","0","1729085660079"
"1074","f","SpeechGestureMatch","../RequiredFiles/videos/JaDaumenhoch_m.mp4","Ist der Ball in der grünen Box?","Green","Blue","F","affirmation","match","speech","yes","ThumbUp","male","speech-gesture","1470","920","safari","30.24","Mac OS","20","female","right","Wed Oct 16 2024 14:44:51 GMT+0200 (Mitteleuropäische Sommerzeit)","1","27","0","1729085660079"
"1131","j","SpeechGestureMatch","../RequiredFiles/videos/NeinDaumenhoch_f.mp4","Ist der Ball in der blauen Box?","Blue","Green","J","negation","mismatch","speech","no","ThumbUp","female","speech-gesture","1470","920","safari","30.24","Mac OS","20","female","right","Wed Oct 16 2024 14:44:58 GMT+0200 (Mitteleuropäische Sommerzeit)","1","28","0","1729085660079"
"1198","f","SpeechGestureMatch","../RequiredFiles/videos/JaDaumenhoch_m_no_gesture.mp4","Ist der Ball in der grünen Box?","Green","Blue","F","affirmation","na","speech","yes","na","male","speech-gesture","1470","920","safari","30.24","Mac OS","20","female","right","Wed Oct 16 2024 14:45:04 GMT+0200 (Mitteleuropäische Sommerzeit)","1","29","0","1729085660079"
"1172","j","SpeechGestureMatch","../RequiredFiles/videos/JaDaumenrunter_m.mp4","Ist der Ball in der blauen Box?","Green","Blue","J","affirmation","mismatch","speech","yes","ThumbDown","male","speech-gesture","1470","920","safari","30.24","Mac OS","20","female","right","Wed Oct 16 2024 14:45:11 GMT+0200 (Mitteleuropäische Sommerzeit)","1","30","0","1729085660079"
"1279","f","SpeechGestureMatch","../RequiredFiles/videos/JaDaumenrunter_m.mp4","Ist der Ball in der grünen Box?","Green","Blue","F","affirmation","mismatch","speech","yes","ThumbDown","male","speech-gesture","1470","920","safari","30.24","Mac OS","20","female","right","Wed Oct 16 2024 14:45:18 GMT+0200 (Mitteleuropäische Sommerzeit)","1","31","0","1729085660079"
"1170","j","SpeechGestureMatch","../RequiredFiles/videos/JaDaumenhoch_m.mp4","Ist der Ball in der blauen Box?","Green","Blue","J","affirmation","match","speech","yes","ThumbUp","male","speech-gesture","1470","920","safari","30.24","Mac OS","20","female","right","Wed Oct 16 2024 14:45:25 GMT+0200 (Mitteleuropäische Sommerzeit)","1","32","0","1729085660079"
"1105","j","SpeechGestureMatch","../RequiredFiles/videos/JaDaumenhoch_m.mp4","Ist der Ball in der grünen Box?","Blue","Green","J","affirmation","match","speech","yes","ThumbUp","male","speech-gesture","1470","920","safari","30.24","Mac OS","20","female","right","Wed Oct 16 2024 14:45:31 GMT+0200 (Mitteleuropäische Sommerzeit)","1","33","0","1729085660079"
"1130","f","SpeechGestureMatch","../RequiredFiles/videos/NeinDaumenrunter_f_no_gesture.mp4","Ist der Ball in der blauen Box?","Green","Blue","F","negation","na","speech","no","na","female","speech-gesture","1470","920","safari","30.24","Mac OS","20","female","right","Wed Oct 16 2024 14:45:38 GMT+0200 (Mitteleuropäische Sommerzeit)","1","34","0","1729085660079"
"1797","f","SpeechGestureMatch","../RequiredFiles/videos/NeinDaumenrunter_f.mp4","Ist der Ball in der blauen Box?","Green","Blue","F","negation","match","speech","no","ThumbDown","female","speech-gesture","1470","920","safari","30.24","Mac OS","20","female","right","Wed Oct 16 2024 14:45:45 GMT+0200 (Mitteleuropäische Sommerzeit)","1","35","0","1729085660079"
"1270","f","SpeechGestureMatch","../RequiredFiles/videos/JaDaumenrunter_f_no_gesture.mp4","Ist der Ball in der grünen Box?","Green","Blue","F","affirmation","na","speech","yes","na","female","speech-gesture","1470","920","safari","30.24","Mac OS","20","female","right","Wed Oct 16 2024 14:45:52 GMT+0200 (Mitteleuropäische Sommerzeit)","1","36","0","1729085660079"
"1124","f","SpeechGestureMatch","../RequiredFiles/videos/JaDaumenhoch_m_no_gesture.mp4","Ist der Ball in der blauen Box?","Blue","Green","F","affirmation","na","speech","yes","na","male","speech-gesture","1470","920","safari","30.24","Mac OS","20","female","right","Wed Oct 16 2024 14:45:59 GMT+0200 (Mitteleuropäische Sommerzeit)","1","37","0","1729085660079"
"1184","f","SpeechGestureMatch","../RequiredFiles/videos/JaDaumenhoch_f.mp4","Ist der Ball in der blauen Box?","Blue","Green","F","affirmation","match","speech","yes","ThumbUp","female","speech-gesture","1470","920","safari","30.24","Mac OS","20","female","right","Wed Oct 16 2024 14:46:06 GMT+0200 (Mitteleuropäische Sommerzeit)","1","38","0","1729085660079"
"1185","j","SpeechGestureMatch","../RequiredFiles/videos/NeinDaumenrunter_f_no_gesture.mp4","Ist der Ball in der grünen Box?","Green","Blue","J","negation","na","speech","no","na","female","speech-gesture","1470","920","safari","30.24","Mac OS","20","female","right","Wed Oct 16 2024 14:46:12 GMT+0200 (Mitteleuropäische Sommerzeit)","1","39","0","1729085660079"
"1153","j","SpeechGestureMatch","../RequiredFiles/videos/JaDaumenhoch_f.mp4","Ist der Ball in der blauen Box?","Green","Blue","J","affirmation","match","speech","yes","ThumbUp","female","speech-gesture","1470","920","safari","30.24","Mac OS","20","female","right","Wed Oct 16 2024 14:46:19 GMT+0200 (Mitteleuropäische Sommerzeit)","1","40","0","1729085660079"
"1145","j","SpeechGestureMatch","../RequiredFiles/videos/NeinDaumenhoch_m.mp4","Ist der Ball in der grünen Box?","Green","Blue","J","negation","mismatch","speech","no","ThumbUp","male","speech-gesture","1470","920","safari","30.24","Mac OS","20","female","right","Wed Oct 16 2024 14:46:26 GMT+0200 (Mitteleuropäische Sommerzeit)","1","41","0","1729085660079"
"1074","f","SpeechGestureMatch","../RequiredFiles/videos/NeinDaumenrunter_m.mp4","Ist der Ball in der blauen Box?","Green","Blue","F","negation","match","speech","no","ThumbDown","male","speech-gesture","1470","920","safari","30.24","Mac OS","20","female","right","Wed Oct 16 2024 14:46:32 GMT+0200 (Mitteleuropäische Sommerzeit)","1","42","0","1729085660079"
"1143","f","SpeechGestureMatch","../RequiredFiles/videos/NeinDaumenhoch_f_no_gesture.mp4","Ist der Ball in der blauen Box?","Green","Blue","F","negation","na","speech","no","na","female","speech-gesture","1470","920","safari","30.24","Mac OS","20","female","right","Wed Oct 16 2024 14:46:39 GMT+0200 (Mitteleuropäische Sommerzeit)","1","43","0","1729085660079"
"1087","j","SpeechGestureMatch","../RequiredFiles/videos/JaDaumenhoch_f.mp4","Ist der Ball in der blauen Box?","Green","Blue","J","affirmation","match","speech","yes","ThumbUp","female","speech-gesture","1470","920","safari","30.24","Mac OS","20","female","right","Wed Oct 16 2024 14:46:46 GMT+0200 (Mitteleuropäische Sommerzeit)","1","44","0","1729085660079"
"1116","j","SpeechGestureMatch","../RequiredFiles/videos/JaDaumenhoch_f.mp4","Ist der Ball in der grünen Box?","Blue","Green","J","affirmation","match","speech","yes","ThumbUp","female","speech-gesture","1470","920","safari","30.24","Mac OS","20","female","right","Wed Oct 16 2024 14:46:52 GMT+0200 (Mitteleuropäische Sommerzeit)","1","45","0","1729085660079"
"1093","f","SpeechGestureMatch","../RequiredFiles/videos/NeinDaumenrunter_m.mp4","Ist der Ball in der grünen Box?","Blue","Green","F","negation","match","speech","no","ThumbDown","male","speech-gesture","1470","920","safari","30.24","Mac OS","20","female","right","Wed Oct 16 2024 14:46:59 GMT+0200 (Mitteleuropäische Sommerzeit)","1","46","0","1729085660079"
"1140","f","SpeechGestureMatch","../RequiredFiles/videos/JaDaumenhoch_m.mp4","Ist der Ball in der blauen Box?","Blue","Green","F","affirmation","match","speech","yes","ThumbUp","male","speech-gesture","1470","920","safari","30.24","Mac OS","20","female","right","Wed Oct 16 2024 14:47:06 GMT+0200 (Mitteleuropäische Sommerzeit)","1","47","0","1729085660079"
"1073","j","SpeechGestureMatch","../RequiredFiles/videos/JaDaumenhoch_f_no_gesture.mp4","Ist der Ball in der blauen Box?","Green","Blue","J","affirmation","na","speech","yes","na","female","speech-gesture","1470","920","safari","30.24","Mac OS","20","female","right","Wed Oct 16 2024 14:47:12 GMT+0200 (Mitteleuropäische Sommerzeit)","1","48","0","1729085660079"
"1090","j","SpeechGestureMatch","../RequiredFiles/videos/JaDaumenrunter_m_no_gesture.mp4","Ist der Ball in der blauen Box?","Green","Blue","J","affirmation","na","speech","yes","na","male","speech-gesture","1470","920","safari","30.24","Mac OS","20","female","right","Wed Oct 16 2024 14:47:19 GMT+0200 (Mitteleuropäische Sommerzeit)","1","49","0","1729085660079"
"1232","j","SpeechGestureMatch","../RequiredFiles/videos/NeinDaumenhoch_m.mp4","Ist der Ball in der blauen Box?","Blue","Green","J","negation","mismatch","speech","no","ThumbUp","male","speech-gesture","1470","920","safari","30.24","Mac OS","20","female","right","Wed Oct 16 2024 14:47:26 GMT+0200 (Mitteleuropäische Sommerzeit)","1","50","0","1729085660079"
"1222","j","SpeechGestureMatch","../RequiredFiles/videos/NeinDaumenrunter_f.mp4","Ist der Ball in der blauen Box?","Blue","Green","J","negation","match","speech","no","ThumbDown","female","speech-gesture","1470","920","safari","30.24","Mac OS","20","female","right","Wed Oct 16 2024 14:47:32 GMT+0200 (Mitteleuropäische Sommerzeit)","1","51","0","1729085660079"
"1089","f","SpeechGestureMatch","../RequiredFiles/videos/JaDaumenhoch_m.mp4","Ist der Ball in der blauen Box?","Blue","Green","F","affirmation","match","speech","yes","ThumbUp","male","speech-gesture","1470","920","safari","30.24","Mac OS","20","female","right","Wed Oct 16 2024 14:47:39 GMT+0200 (Mitteleuropäische Sommerzeit)","1","52","0","1729085660079"
"1027","f","SpeechGestureMatch","../RequiredFiles/videos/NeinDaumenhoch_f.mp4","Ist der Ball in der blauen Box?","Green","Blue","F","negation","mismatch","speech","no","ThumbUp","female","speech-gesture","1470","920","safari","30.24","Mac OS","20","female","right","Wed Oct 16 2024 14:47:46 GMT+0200 (Mitteleuropäische Sommerzeit)","1","53","0","1729085660079"
"1093","f","SpeechGestureMatch","../RequiredFiles/videos/NeinDaumenrunter_f.mp4","Ist der Ball in der blauen Box?","Green","Blue","F","negation","match","speech","no","ThumbDown","female","speech-gesture","1470","920","safari","30.24","Mac OS","20","female","right","Wed Oct 16 2024 14:47:52 GMT+0200 (Mitteleuropäische Sommerzeit)","1","54","0","1729085660079"
"1304","j","SpeechGestureMatch","../RequiredFiles/videos/NeinDaumenhoch_m.mp4","Ist der Ball in der blauen Box?","Blue","Green","J","negation","mismatch","speech","no","ThumbUp","male","speech-gesture","1470","920","safari","30.24","Mac OS","20","female","right","Wed Oct 16 2024 14:47:59 GMT+0200 (Mitteleuropäische Sommerzeit)","1","55","0","1729085660079"
"1602","f","SpeechGestureMatch","../RequiredFiles/videos/JaDaumenrunter_m.mp4","Ist der Ball in der blauen Box?","Blue","Green","F","affirmation","mismatch","speech","yes","ThumbDown","male","speech-gesture","1470","920","safari","30.24","Mac OS","20","female","right","Wed Oct 16 2024 14:48:06 GMT+0200 (Mitteleuropäische Sommerzeit)","1","56","0","1729085660079"
"1149","f","SpeechGestureMatch","../RequiredFiles/videos/JaDaumenhoch_f_no_gesture.mp4","Ist der Ball in der blauen Box?","Blue","Green","F","affirmation","na","speech","yes","na","female","speech-gesture","1470","920","safari","30.24","Mac OS","20","female","right","Wed Oct 16 2024 14:48:13 GMT+0200 (Mitteleuropäische Sommerzeit)","1","57","0","1729085660079"
"1192","f","SpeechGestureMatch","../RequiredFiles/videos/NeinDaumenhoch_m.mp4","Ist der Ball in der grünen Box?","Blue","Green","F","negation","mismatch","speech","no","ThumbUp","male","speech-gesture","1470","920","safari","30.24","Mac OS","20","female","right","Wed Oct 16 2024 14:48:20 GMT+0200 (Mitteleuropäische Sommerzeit)","1","58","0","1729085660079"
"1184","j","SpeechGestureMatch","../RequiredFiles/videos/JaDaumenhoch_m.mp4","Ist der Ball in der grünen Box?","Blue","Green","J","affirmation","match","speech","yes","ThumbUp","male","speech-gesture","1470","920","safari","30.24","Mac OS","20","female","right","Wed Oct 16 2024 14:48:26 GMT+0200 (Mitteleuropäische Sommerzeit)","1","59","0","1729085660079"
"1265","f","SpeechGestureMatch","../RequiredFiles/videos/JaDaumenhoch_f_no_gesture.mp4","Ist der Ball in der grünen Box?","Green","Blue","F","affirmation","na","speech","yes","na","female","speech-gesture","1470","920","safari","30.24","Mac OS","20","female","right","Wed Oct 16 2024 14:48:33 GMT+0200 (Mitteleuropäische Sommerzeit)","1","60","0","1729085660079"
"1601","j","SpeechGestureMatch","../RequiredFiles/videos/JaDaumenhoch_m_no_gesture.mp4","Ist der Ball in der grünen Box?","Blue","Green","J","affirmation","na","speech","yes","na","male","speech-gesture","1470","920","safari","30.24","Mac OS","20","female","right","Wed Oct 16 2024 14:48:40 GMT+0200 (Mitteleuropäische Sommerzeit)","1","61","0","1729085660079"
"1101","j","SpeechGestureMatch","../RequiredFiles/videos/NeinDaumenrunter_m.mp4","Ist der Ball in der grünen Box?","Green","Blue","J","negation","match","speech","no","ThumbDown","male","speech-gesture","1470","920","safari","30.24","Mac OS","20","female","right","Wed Oct 16 2024 14:48:47 GMT+0200 (Mitteleuropäische Sommerzeit)","1","62","0","1729085660079"
"1145","f","SpeechGestureMatch","../RequiredFiles/videos/JaDaumenhoch_f.mp4","Ist der Ball in der blauen Box?","Blue","Green","F","affirmation","match","speech","yes","ThumbUp","female","speech-gesture","1470","920","safari","30.24","Mac OS","20","female","right","Wed Oct 16 2024 14:48:54 GMT+0200 (Mitteleuropäische Sommerzeit)","1","63","0","1729085660079"
"1128","f","SpeechGestureMatch","../RequiredFiles/videos/NeinDaumenrunter_m.mp4","Ist der Ball in der grünen Box?","Blue","Green","F","negation","match","speech","no","ThumbDown","male","speech-gesture","1470","920","safari","30.24","Mac OS","20","female","right","Wed Oct 16 2024 14:49:00 GMT+0200 (Mitteleuropäische Sommerzeit)","1","64","0","1729085660079"
"1089","j","SpeechGestureMatch","../RequiredFiles/videos/JaDaumenrunter_m.mp4","Ist der Ball in der grünen Box?","Blue","Green","J","affirmation","mismatch","speech","yes","ThumbDown","male","speech-gesture","1470","920","safari","30.24","Mac OS","20","female","right","Wed Oct 16 2024 14:49:07 GMT+0200 (Mitteleuropäische Sommerzeit)","1","65","0","1729085660079"
"1147","j","SpeechGestureMatch","../RequiredFiles/videos/NeinDaumenrunter_m.mp4","Ist der Ball in der blauen Box?","Blue","Green","J","negation","match","speech","no","ThumbDown","male","speech-gesture","1470","920","safari","30.24","Mac OS","20","female","right","Wed Oct 16 2024 14:49:14 GMT+0200 (Mitteleuropäische Sommerzeit)","1","66","0","1729085660079"
"1147","j","SpeechGestureMatch","../RequiredFiles/videos/NeinDaumenhoch_m.mp4","Ist der Ball in der grünen Box?","Green","Blue","J","negation","mismatch","speech","no","ThumbUp","male","speech-gesture","1470","920","safari","30.24","Mac OS","20","female","right","Wed Oct 16 2024 14:49:20 GMT+0200 (Mitteleuropäische Sommerzeit)","1","67","0","1729085660079"
"1308","f","SpeechGestureMatch","../RequiredFiles/videos/NeinDaumenhoch_f.mp4","Ist der Ball in der grünen Box?","Blue","Green","F","negation","mismatch","speech","no","ThumbUp","female","speech-gesture","1470","920","safari","30.24","Mac OS","20","female","right","Wed Oct 16 2024 14:49:27 GMT+0200 (Mitteleuropäische Sommerzeit)","1","68","0","1729085660079"
"1209","f","SpeechGestureMatch","../RequiredFiles/videos/NeinDaumenrunter_f.mp4","Ist der Ball in der grünen Box?","Blue","Green","F","negation","match","speech","no","ThumbDown","female","speech-gesture","1470","920","safari","30.24","Mac OS","20","female","right","Wed Oct 16 2024 14:49:34 GMT+0200 (Mitteleuropäische Sommerzeit)","1","69","0","1729085660079"
"1362","j","SpeechGestureMatch","../RequiredFiles/videos/NeinDaumenhoch_f.mp4","Ist der Ball in der grünen Box?","Green","Blue","J","negation","mismatch","speech","no","ThumbUp","female","speech-gesture","1470","920","safari","30.24","Mac OS","20","female","right","Wed Oct 16 2024 14:49:41 GMT+0200 (Mitteleuropäische Sommerzeit)","1","70","0","1729085660079"
"1389","j","SpeechGestureMatch","../RequiredFiles/videos/NeinDaumenhoch_f.mp4","Ist der Ball in der blauen Box?","Blue","Green","J","negation","mismatch","speech","no","ThumbUp","female","speech-gesture","1470","920","safari","30.24","Mac OS","20","female","right","Wed Oct 16 2024 14:49:48 GMT+0200 (Mitteleuropäische Sommerzeit)","1","71","0","1729085660079"
"1665","f","SpeechGestureMatch","../RequiredFiles/videos/NeinDaumenrunter_m_no_gesture.mp4","Ist der Ball in der blauen Box?","Green","Blue","F","negation","na","speech","no","na","male","speech-gesture","1470","920","safari","30.24","Mac OS","20","female","right","Wed Oct 16 2024 14:49:55 GMT+0200 (Mitteleuropäische Sommerzeit)","1","72","0","1729085660079"
"1410","j","SpeechGestureMatch","../RequiredFiles/videos/NeinDaumenrunter_m.mp4","Ist der Ball in der grünen Box?","Green","Blue","J","negation","match","speech","no","ThumbDown","male","speech-gesture","1470","920","safari","30.24","Mac OS","20","female","right","Wed Oct 16 2024 14:50:02 GMT+0200 (Mitteleuropäische Sommerzeit)","1","73","0","1729085660079"
"1663","j","SpeechGestureMatch","../RequiredFiles/videos/NeinDaumenrunter_f.mp4","Ist der Ball in der grünen Box?","Green","Blue","J","negation","match","speech","no","ThumbDown","female","speech-gesture","1470","920","safari","30.24","Mac OS","20","female","right","Wed Oct 16 2024 14:50:09 GMT+0200 (Mitteleuropäische Sommerzeit)","1","74","0","1729085660079"
"1375","j","SpeechGestureMatch","../RequiredFiles/videos/JaDaumenrunter_m.mp4","Ist der Ball in der blauen Box?","Green","Blue","J","affirmation","mismatch","speech","yes","ThumbDown","male","speech-gesture","1470","920","safari","30.24","Mac OS","20","female","right","Wed Oct 16 2024 14:50:16 GMT+0200 (Mitteleuropäische Sommerzeit)","1","75","0","1729085660079"
"1384","j","SpeechGestureMatch","../RequiredFiles/videos/NeinDaumenhoch_f_no_gesture.mp4","Ist der Ball in der blauen Box?","Blue","Green","J","negation","na","speech","no","na","female","speech-gesture","1470","920","safari","30.24","Mac OS","20","female","right","Wed Oct 16 2024 14:50:23 GMT+0200 (Mitteleuropäische Sommerzeit)","1","76","0","1729085660079"
"1247","f","SpeechGestureMatch","../RequiredFiles/videos/NeinDaumenhoch_m_no_gesture.mp4","Ist der Ball in der grünen Box?","Blue","Green","F","negation","na","speech","no","na","male","speech-gesture","1470","920","safari","30.24","Mac OS","20","female","right","Wed Oct 16 2024 14:50:30 GMT+0200 (Mitteleuropäische Sommerzeit)","1","77","0","1729085660079"
"1151","j","SpeechGestureMatch","../RequiredFiles/videos/JaDaumenrunter_m_no_gesture.mp4","Ist der Ball in der grünen Box?","Blue","Green","J","affirmation","na","speech","yes","na","male","speech-gesture","1470","920","safari","30.24","Mac OS","20","female","right","Wed Oct 16 2024 14:50:36 GMT+0200 (Mitteleuropäische Sommerzeit)","1","78","0","1729085660079"
"1212","f","SpeechGestureMatch","../RequiredFiles/videos/JaDaumenrunter_f.mp4","Ist der Ball in der blauen Box?","Blue","Green","F","affirmation","mismatch","speech","yes","ThumbDown","female","speech-gesture","1470","920","safari","30.24","Mac OS","20","female","right","Wed Oct 16 2024 14:50:43 GMT+0200 (Mitteleuropäische Sommerzeit)","1","79","0","1729085660079"
"1228","f","SpeechGestureMatch","../RequiredFiles/videos/JaDaumenrunter_m_no_gesture.mp4","Ist der Ball in der grünen Box?","Green","Blue","F","affirmation","na","speech","yes","na","male","speech-gesture","1470","920","safari","30.24","Mac OS","20","female","right","Wed Oct 16 2024 14:50:50 GMT+0200 (Mitteleuropäische Sommerzeit)","1","80","0","1729085660079"
"1159","f","SpeechGestureMatch","../RequiredFiles/videos/JaDaumenhoch_f.mp4","Ist der Ball in der grünen Box?","Green","Blue","F","affirmation","match","speech","yes","ThumbUp","female","speech-gesture","1470","920","safari","30.24","Mac OS","20","female","right","Wed Oct 16 2024 14:50:57 GMT+0200 (Mitteleuropäische Sommerzeit)","1","81","0","1729085660079"
"1152","j","SpeechGestureMatch","../RequiredFiles/videos/JaDaumenrunter_f_no_gesture.mp4","Ist der Ball in der grünen Box?","Blue","Green","J","affirmation","na","speech","yes","na","female","speech-gesture","1470","920","safari","30.24","Mac OS","20","female","right","Wed Oct 16 2024 14:51:03 GMT+0200 (Mitteleuropäische Sommerzeit)","1","82","0","1729085660079"
"1116","f","SpeechGestureMatch","../RequiredFiles/videos/NeinDaumenrunter_m.mp4","Ist der Ball in der blauen Box?","Green","Blue","F","negation","match","speech","no","ThumbDown","male","speech-gesture","1470","920","safari","30.24","Mac OS","20","female","right","Wed Oct 16 2024 14:51:10 GMT+0200 (Mitteleuropäische Sommerzeit)","1","83","0","1729085660079"
"1139","f","SpeechGestureMatch","../RequiredFiles/videos/JaDaumenrunter_m.mp4","Ist der Ball in der grünen Box?","Green","Blue","F","affirmation","mismatch","speech","yes","ThumbDown","male","speech-gesture","1470","920","safari","30.24","Mac OS","20","female","right","Wed Oct 16 2024 14:51:17 GMT+0200 (Mitteleuropäische Sommerzeit)","1","84","0","1729085660079"
"1117","j","SpeechGestureMatch","../RequiredFiles/videos/JaDaumenrunter_f.mp4","Ist der Ball in der grünen Box?","Blue","Green","J","affirmation","mismatch","speech","yes","ThumbDown","female","speech-gesture","1470","920","safari","30.24","Mac OS","20","female","right","Wed Oct 16 2024 14:51:23 GMT+0200 (Mitteleuropäische Sommerzeit)","1","85","0","1729085660079"
"1416","j","SpeechGestureMatch","../RequiredFiles/videos/NeinDaumenrunter_m_no_gesture.mp4","Ist der Ball in der blauen Box?","Blue","Green","J","negation","na","speech","no","na","male","speech-gesture","1470","920","safari","30.24","Mac OS","20","female","right","Wed Oct 16 2024 14:51:30 GMT+0200 (Mitteleuropäische Sommerzeit)","1","86","0","1729085660079"
"1131","f","SpeechGestureMatch","../RequiredFiles/videos/JaDaumenrunter_m_no_gesture.mp4","Ist der Ball in der blauen Box?","Blue","Green","F","affirmation","na","speech","yes","na","male","speech-gesture","1470","920","safari","30.24","Mac OS","20","female","right","Wed Oct 16 2024 14:51:37 GMT+0200 (Mitteleuropäische Sommerzeit)","1","87","0","1729085660079"
"1207","f","SpeechGestureMatch","../RequiredFiles/videos/NeinDaumenrunter_f.mp4","Ist der Ball in der grünen Box?","Blue","Green","F","negation","match","speech","no","ThumbDown","female","speech-gesture","1470","920","safari","30.24","Mac OS","20","female","right","Wed Oct 16 2024 14:51:44 GMT+0200 (Mitteleuropäische Sommerzeit)","1","88","0","1729085660079"
"1286","f","SpeechGestureMatch","../RequiredFiles/videos/NeinDaumenhoch_m.mp4","Ist der Ball in der grünen Box?","Blue","Green","F","negation","mismatch","speech","no","ThumbUp","male","speech-gesture","1470","920","safari","30.24","Mac OS","20","female","right","Wed Oct 16 2024 14:51:50 GMT+0200 (Mitteleuropäische Sommerzeit)","1","89","0","1729085660079"
"1148","j","SpeechGestureMatch","../RequiredFiles/videos/JaDaumenhoch_m_no_gesture.mp4","Ist der Ball in der blauen Box?","Green","Blue","J","affirmation","na","speech","yes","na","male","speech-gesture","1470","920","safari","30.24","Mac OS","20","female","right","Wed Oct 16 2024 14:51:57 GMT+0200 (Mitteleuropäische Sommerzeit)","1","90","0","1729085660079"
"1432","f","SpeechGestureMatch","../RequiredFiles/videos/NeinDaumenhoch_m.mp4","Ist der Ball in der blauen Box?","Green","Blue","F","negation","mismatch","speech","no","ThumbUp","male","speech-gesture","1470","920","safari","30.24","Mac OS","20","female","right","Wed Oct 16 2024 14:52:04 GMT+0200 (Mitteleuropäische Sommerzeit)","1","91","0","1729085660079"
"1070","j","SpeechGestureMatch","../RequiredFiles/videos/JaDaumenhoch_m.mp4","Ist der Ball in der blauen Box?","Green","Blue","J","affirmation","match","speech","yes","ThumbUp","male","speech-gesture","1470","920","safari","30.24","Mac OS","20","female","right","Wed Oct 16 2024 14:52:11 GMT+0200 (Mitteleuropäische Sommerzeit)","1","92","0","1729085660079"
"1148","f","SpeechGestureMatch","../RequiredFiles/videos/JaDaumenrunter_m.mp4","Ist der Ball in der blauen Box?","Blue","Green","F","affirmation","mismatch","speech","yes","ThumbDown","male","speech-gesture","1470","920","safari","30.24","Mac OS","20","female","right","Wed Oct 16 2024 14:52:17 GMT+0200 (Mitteleuropäische Sommerzeit)","1","93","0","1729085660079"
"1180","j","SpeechGestureMatch","../RequiredFiles/videos/JaDaumenhoch_f_no_gesture.mp4","Ist der Ball in der grünen Box?","Blue","Green","J","affirmation","na","speech","yes","na","female","speech-gesture","1470","920","safari","30.24","Mac OS","20","female","right","Wed Oct 16 2024 14:52:24 GMT+0200 (Mitteleuropäische Sommerzeit)","1","94","0","1729085660079"
"1219","f","SpeechGestureMatch","../RequiredFiles/videos/JaDaumenrunter_f_no_gesture.mp4","Ist der Ball in der blauen Box?","Blue","Green","F","affirmation","na","speech","yes","na","female","speech-gesture","1470","920","safari","30.24","Mac OS","20","female","right","Wed Oct 16 2024 14:52:31 GMT+0200 (Mitteleuropäische Sommerzeit)","1","95","0","1729085660079"
"1226","f","SpeechGestureMatch","../RequiredFiles/videos/JaDaumenrunter_f.mp4","Ist der Ball in der grünen Box?","Green","Blue","F","affirmation","mismatch","speech","yes","ThumbDown","female","speech-gesture","1470","920","safari","30.24","Mac OS","20","female","right","Wed Oct 16 2024 14:52:38 GMT+0200 (Mitteleuropäische Sommerzeit)","1","96","0","1729085660079"
"1629","j","SpeechGestureMatch","../RequiredFiles/videos/NeinDaumenhoch_m.mp4","Ist der Ball in der grünen Box?","Green","Blue","J","negation","mismatch","speech","no","ThumbUp","male","speech-gesture","1470","920","safari","30.24","Mac OS","20","female","right","Wed Oct 16 2024 14:54:41 GMT+0200 (Mitteleuropäische Sommerzeit)","2","1","0","1729085660079"
"1080","j","SpeechGestureMatch","../RequiredFiles/videos/JaDaumenrunter_m_no_gesture.mp4","Ist der Ball in der grünen Box?","Blue","Green","J","affirmation","na","speech","yes","na","male","speech-gesture","1470","920","safari","30.24","Mac OS","20","female","right","Wed Oct 16 2024 14:54:48 GMT+0200 (Mitteleuropäische Sommerzeit)","2","2","0","1729085660079"
"1076","j","SpeechGestureMatch","../RequiredFiles/videos/NeinDaumenrunter_m.mp4","Ist der Ball in der blauen Box?","Blue","Green","J","negation","match","speech","no","ThumbDown","male","speech-gesture","1470","920","safari","30.24","Mac OS","20","female","right","Wed Oct 16 2024 14:54:55 GMT+0200 (Mitteleuropäische Sommerzeit)","2","3","0","1729085660079"
"1064","j","SpeechGestureMatch","../RequiredFiles/videos/JaDaumenhoch_f.mp4","Ist der Ball in der blauen Box?","Green","Blue","J","affirmation","match","speech","yes","ThumbUp","female","speech-gesture","1470","920","safari","30.24","Mac OS","20","female","right","Wed Oct 16 2024 14:55:01 GMT+0200 (Mitteleuropäische Sommerzeit)","2","4","0","1729085660079"
"1184","j","SpeechGestureMatch","../RequiredFiles/videos/JaDaumenrunter_m.mp4","Ist der Ball in der blauen Box?","Green","Blue","J","affirmation","mismatch","speech","yes","ThumbDown","male","speech-gesture","1470","920","safari","30.24","Mac OS","20","female","right","Wed Oct 16 2024 14:55:08 GMT+0200 (Mitteleuropäische Sommerzeit)","2","5","0","1729085660079"
"1115","j","SpeechGestureMatch","../RequiredFiles/videos/NeinDaumenhoch_f.mp4","Ist der Ball in der blauen Box?","Blue","Green","J","negation","mismatch","speech","no","ThumbUp","female","speech-gesture","1470","920","safari","30.24","Mac OS","20","female","right","Wed Oct 16 2024 14:55:15 GMT+0200 (Mitteleuropäische Sommerzeit)","2","6","0","1729085660079"
"1191","f","SpeechGestureMatch","../RequiredFiles/videos/NeinDaumenhoch_m.mp4","Ist der Ball in der grünen Box?","Blue","Green","F","negation","mismatch","speech","no","ThumbUp","male","speech-gesture","1470","920","safari","30.24","Mac OS","20","female","right","Wed Oct 16 2024 14:55:21 GMT+0200 (Mitteleuropäische Sommerzeit)","2","7","0","1729085660079"
"1168","f","SpeechGestureMatch","../RequiredFiles/videos/NeinDaumenrunter_m.mp4","Ist der Ball in der grünen Box?","Blue","Green","F","negation","match","speech","no","ThumbDown","male","speech-gesture","1470","920","safari","30.24","Mac OS","20","female","right","Wed Oct 16 2024 14:55:28 GMT+0200 (Mitteleuropäische Sommerzeit)","2","8","0","1729085660079"
"1144","f","SpeechGestureMatch","../RequiredFiles/videos/JaDaumenhoch_f.mp4","Ist der Ball in der grünen Box?","Green","Blue","F","affirmation","match","speech","yes","ThumbUp","female","speech-gesture","1470","920","safari","30.24","Mac OS","20","female","right","Wed Oct 16 2024 14:55:35 GMT+0200 (Mitteleuropäische Sommerzeit)","2","9","0","1729085660079"
"1160","f","SpeechGestureMatch","../RequiredFiles/videos/NeinDaumenhoch_m.mp4","Ist der Ball in der blauen Box?","Green","Blue","F","negation","mismatch","speech","no","ThumbUp","male","speech-gesture","1470","920","safari","30.24","Mac OS","20","female","right","Wed Oct 16 2024 14:55:41 GMT+0200 (Mitteleuropäische Sommerzeit)","2","10","0","1729085660079"
"1127","j","SpeechGestureMatch","../RequiredFiles/videos/NeinDaumenhoch_f.mp4","Ist der Ball in der grünen Box?","Green","Blue","J","negation","mismatch","speech","no","ThumbUp","female","speech-gesture","1470","920","safari","30.24","Mac OS","20","female","right","Wed Oct 16 2024 14:55:48 GMT+0200 (Mitteleuropäische Sommerzeit)","2","11","0","1729085660079"
"1080","f","SpeechGestureMatch","../RequiredFiles/videos/JaDaumenhoch_f.mp4","Ist der Ball in der grünen Box?","Green","Blue","F","affirmation","match","speech","yes","ThumbUp","female","speech-gesture","1470","920","safari","30.24","Mac OS","20","female","right","Wed Oct 16 2024 14:55:55 GMT+0200 (Mitteleuropäische Sommerzeit)","2","12","0","1729085660079"
"1121","f","SpeechGestureMatch","../RequiredFiles/videos/JaDaumenrunter_m_no_gesture.mp4","Ist der Ball in der grünen Box?","Green","Blue","F","affirmation","na","speech","yes","na","male","speech-gesture","1470","920","safari","30.24","Mac OS","20","female","right","Wed Oct 16 2024 14:56:01 GMT+0200 (Mitteleuropäische Sommerzeit)","2","13","0","1729085660079"
"1049","f","SpeechGestureMatch","../RequiredFiles/videos/JaDaumenhoch_m.mp4","Ist der Ball in der blauen Box?","Blue","Green","F","affirmation","match","speech","yes","ThumbUp","male","speech-gesture","1470","920","safari","30.24","Mac OS","20","female","right","Wed Oct 16 2024 14:56:08 GMT+0200 (Mitteleuropäische Sommerzeit)","2","14","0","1729085660079"
"1071","f","SpeechGestureMatch","../RequiredFiles/videos/NeinDaumenrunter_m.mp4","Ist der Ball in der grünen Box?","Blue","Green","F","negation","match","speech","no","ThumbDown","male","speech-gesture","1470","920","safari","30.24","Mac OS","20","female","right","Wed Oct 16 2024 14:56:15 GMT+0200 (Mitteleuropäische Sommerzeit)","2","15","0","1729085660079"
"1270","j","SpeechGestureMatch","../RequiredFiles/videos/NeinDaumenrunter_f_no_gesture.mp4","Ist der Ball in der blauen Box?","Blue","Green","J","negation","na","speech","no","na","female","speech-gesture","1470","920","safari","30.24","Mac OS","20","female","right","Wed Oct 16 2024 14:56:21 GMT+0200 (Mitteleuropäische Sommerzeit)","2","16","0","1729085660079"
"1193","j","SpeechGestureMatch","../RequiredFiles/videos/NeinDaumenrunter_f.mp4","Ist der Ball in der blauen Box?","Blue","Green","J","negation","match","speech","no","ThumbDown","female","speech-gesture","1470","920","safari","30.24","Mac OS","20","female","right","Wed Oct 16 2024 14:56:28 GMT+0200 (Mitteleuropäische Sommerzeit)","2","17","0","1729085660079"
"1168","f","SpeechGestureMatch","../RequiredFiles/videos/NeinDaumenrunter_m_no_gesture.mp4","Ist der Ball in der grünen Box?","Blue","Green","F","negation","na","speech","no","na","male","speech-gesture","1470","920","safari","30.24","Mac OS","20","female","right","Wed Oct 16 2024 14:56:35 GMT+0200 (Mitteleuropäische Sommerzeit)","2","18","0","1729085660079"
"1185","f","SpeechGestureMatch","../RequiredFiles/videos/JaDaumenrunter_m.mp4","Ist der Ball in der grünen Box?","Green","Blue","F","affirmation","mismatch","speech","yes","ThumbDown","male","speech-gesture","1470","920","safari","30.24","Mac OS","20","female","right","Wed Oct 16 2024 14:56:42 GMT+0200 (Mitteleuropäische Sommerzeit)","2","19","0","1729085660079"
"1199","j","SpeechGestureMatch","../RequiredFiles/videos/JaDaumenhoch_f.mp4","Ist der Ball in der grünen Box?","Blue","Green","J","affirmation","match","speech","yes","ThumbUp","female","speech-gesture","1470","920","safari","30.24","Mac OS","20","female","right","Wed Oct 16 2024 14:56:48 GMT+0200 (Mitteleuropäische Sommerzeit)","2","20","0","1729085660079"
"1138","f","SpeechGestureMatch","../RequiredFiles/videos/NeinDaumenhoch_f.mp4","Ist der Ball in der blauen Box?","Green","Blue","F","negation","mismatch","speech","no","ThumbUp","female","speech-gesture","1470","920","safari","30.24","Mac OS","20","female","right","Wed Oct 16 2024 14:56:55 GMT+0200 (Mitteleuropäische Sommerzeit)","2","21","0","1729085660079"
"1229","j","SpeechGestureMatch","../RequiredFiles/videos/JaDaumenhoch_m.mp4","Ist der Ball in der grünen Box?","Blue","Green","J","affirmation","match","speech","yes","ThumbUp","male","speech-gesture","1470","920","safari","30.24","Mac OS","20","female","right","Wed Oct 16 2024 14:57:02 GMT+0200 (Mitteleuropäische Sommerzeit)","2","22","0","1729085660079"
"1322","f","SpeechGestureMatch","../RequiredFiles/videos/JaDaumenrunter_m.mp4","Ist der Ball in der blauen Box?","Blue","Green","F","affirmation","mismatch","speech","yes","ThumbDown","male","speech-gesture","1470","920","safari","30.24","Mac OS","20","female","right","Wed Oct 16 2024 14:57:09 GMT+0200 (Mitteleuropäische Sommerzeit)","2","23","0","1729085660079"
"1184","f","SpeechGestureMatch","../RequiredFiles/videos/JaDaumenhoch_f.mp4","Ist der Ball in der blauen Box?","Blue","Green","F","affirmation","match","speech","yes","ThumbUp","female","speech-gesture","1470","920","safari","30.24","Mac OS","20","female","right","Wed Oct 16 2024 14:57:15 GMT+0200 (Mitteleuropäische Sommerzeit)","2","24","0","1729085660079"
"1628","j","SpeechGestureMatch","../RequiredFiles/videos/NeinDaumenrunter_m_no_gesture.mp4","Ist der Ball in der blauen Box?","Blue","Green","J","negation","na","speech","no","na","male","speech-gesture","1470","920","safari","30.24","Mac OS","20","female","right","Wed Oct 16 2024 14:57:23 GMT+0200 (Mitteleuropäische Sommerzeit)","2","25","0","1729085660079"
"1139","f","SpeechGestureMatch","../RequiredFiles/videos/JaDaumenrunter_f_no_gesture.mp4","Ist der Ball in der grünen Box?","Green","Blue","F","affirmation","na","speech","yes","na","female","speech-gesture","1470","920","safari","30.24","Mac OS","20","female","right","Wed Oct 16 2024 14:57:29 GMT+0200 (Mitteleuropäische Sommerzeit)","2","26","0","1729085660079"
"1346","f","SpeechGestureMatch","../RequiredFiles/videos/JaDaumenrunter_f.mp4","Ist der Ball in der blauen Box?","Blue","Green","F","affirmation","mismatch","speech","yes","ThumbDown","female","speech-gesture","1470","920","safari","30.24","Mac OS","20","female","right","Wed Oct 16 2024 14:57:36 GMT+0200 (Mitteleuropäische Sommerzeit)","2","27","0","1729085660079"
"1214","f","SpeechGestureMatch","../RequiredFiles/videos/JaDaumenrunter_f.mp4","Ist der Ball in der grünen Box?","Green","Blue","F","affirmation","mismatch","speech","yes","ThumbDown","female","speech-gesture","1470","920","safari","30.24","Mac OS","20","female","right","Wed Oct 16 2024 14:57:43 GMT+0200 (Mitteleuropäische Sommerzeit)","2","28","0","1729085660079"
"1274","j","SpeechGestureMatch","../RequiredFiles/videos/JaDaumenhoch_m_no_gesture.mp4","Ist der Ball in der grünen Box?","Blue","Green","J","affirmation","na","speech","yes","na","male","speech-gesture","1470","920","safari","30.24","Mac OS","20","female","right","Wed Oct 16 2024 14:57:50 GMT+0200 (Mitteleuropäische Sommerzeit)","2","29","0","1729085660079"
"1267","f","SpeechGestureMatch","../RequiredFiles/videos/NeinDaumenhoch_m.mp4","Ist der Ball in der grünen Box?","Blue","Green","F","negation","mismatch","speech","no","ThumbUp","male","speech-gesture","1470","920","safari","30.24","Mac OS","20","female","right","Wed Oct 16 2024 14:57:57 GMT+0200 (Mitteleuropäische Sommerzeit)","2","30","0","1729085660079"
"1138","j","SpeechGestureMatch","../RequiredFiles/videos/JaDaumenrunter_m.mp4","Ist der Ball in der grünen Box?","Blue","Green","J","affirmation","mismatch","speech","yes","ThumbDown","male","speech-gesture","1470","920","safari","30.24","Mac OS","20","female","right","Wed Oct 16 2024 14:58:03 GMT+0200 (Mitteleuropäische Sommerzeit)","2","31","0","1729085660079"
"1261","f","SpeechGestureMatch","../RequiredFiles/videos/NeinDaumenrunter_f.mp4","Ist der Ball in der blauen Box?","Green","Blue","F","negation","match","speech","no","ThumbDown","female","speech-gesture","1470","920","safari","30.24","Mac OS","20","female","right","Wed Oct 16 2024 14:58:10 GMT+0200 (Mitteleuropäische Sommerzeit)","2","32","0","1729085660079"
"2717","f","SpeechGestureMatch","../RequiredFiles/videos/NeinDaumenhoch_m.mp4","Ist der Ball in der blauen Box?","Green","Blue","F","negation","mismatch","speech","no","ThumbUp","male","speech-gesture","1470","920","safari","30.24","Mac OS","20","female","right","Wed Oct 16 2024 14:58:18 GMT+0200 (Mitteleuropäische Sommerzeit)","2","33","0","1729085660079"
"1336","j","SpeechGestureMatch","../RequiredFiles/videos/JaDaumenhoch_f.mp4","Ist der Ball in der blauen Box?","Green","Blue","J","affirmation","match","speech","yes","ThumbUp","female","speech-gesture","1470","920","safari","30.24","Mac OS","20","female","right","Wed Oct 16 2024 14:58:25 GMT+0200 (Mitteleuropäische Sommerzeit)","2","34","0","1729085660079"
"1294","f","SpeechGestureMatch","../RequiredFiles/videos/NeinDaumenrunter_f_no_gesture.mp4","Ist der Ball in der blauen Box?","Green","Blue","F","negation","na","speech","no","na","female","speech-gesture","1470","920","safari","30.24","Mac OS","20","female","right","Wed Oct 16 2024 14:58:32 GMT+0200 (Mitteleuropäische Sommerzeit)","2","35","0","1729085660079"
"1154","f","SpeechGestureMatch","../RequiredFiles/videos/JaDaumenrunter_m.mp4","Ist der Ball in der blauen Box?","Blue","Green","F","affirmation","mismatch","speech","yes","ThumbDown","male","speech-gesture","1470","920","safari","30.24","Mac OS","20","female","right","Wed Oct 16 2024 14:58:39 GMT+0200 (Mitteleuropäische Sommerzeit)","2","36","0","1729085660079"
"1099","f","SpeechGestureMatch","../RequiredFiles/videos/NeinDaumenhoch_f.mp4","Ist der Ball in der grünen Box?","Blue","Green","F","negation","mismatch","speech","no","ThumbUp","female","speech-gesture","1470","920","safari","30.24","Mac OS","20","female","right","Wed Oct 16 2024 14:58:45 GMT+0200 (Mitteleuropäische Sommerzeit)","2","37","0","1729085660079"
"1243","j","SpeechGestureMatch","../RequiredFiles/videos/NeinDaumenhoch_m_no_gesture.mp4","Ist der Ball in der grünen Box?","Green","Blue","J","negation","na","speech","no","na","male","speech-gesture","1470","920","safari","30.24","Mac OS","20","female","right","Wed Oct 16 2024 14:58:52 GMT+0200 (Mitteleuropäische Sommerzeit)","2","38","0","1729085660079"
"1061","j","SpeechGestureMatch","../RequiredFiles/videos/JaDaumenhoch_f.mp4","Ist der Ball in der grünen Box?","Blue","Green","J","affirmation","match","speech","yes","ThumbUp","female","speech-gesture","1470","920","safari","30.24","Mac OS","20","female","right","Wed Oct 16 2024 14:58:59 GMT+0200 (Mitteleuropäische Sommerzeit)","2","39","0","1729085660079"
"1162","j","SpeechGestureMatch","../RequiredFiles/videos/NeinDaumenrunter_f_no_gesture.mp4","Ist der Ball in der grünen Box?","Green","Blue","J","negation","na","speech","no","na","female","speech-gesture","1470","920","safari","30.24","Mac OS","20","female","right","Wed Oct 16 2024 14:59:05 GMT+0200 (Mitteleuropäische Sommerzeit)","2","40","0","1729085660079"
"1233","f","SpeechGestureMatch","../RequiredFiles/videos/JaDaumenrunter_f.mp4","Ist der Ball in der grünen Box?","Green","Blue","F","affirmation","mismatch","speech","yes","ThumbDown","female","speech-gesture","1470","920","safari","30.24","Mac OS","20","female","right","Wed Oct 16 2024 14:59:12 GMT+0200 (Mitteleuropäische Sommerzeit)","2","41","0","1729085660079"
"1274","f","SpeechGestureMatch","../RequiredFiles/videos/JaDaumenrunter_f_no_gesture.mp4","Ist der Ball in der blauen Box?","Blue","Green","F","affirmation","na","speech","yes","na","female","speech-gesture","1470","920","safari","30.24","Mac OS","20","female","right","Wed Oct 16 2024 14:59:19 GMT+0200 (Mitteleuropäische Sommerzeit)","2","42","0","1729085660079"
"1116","f","SpeechGestureMatch","../RequiredFiles/videos/NeinDaumenrunter_f.mp4","Ist der Ball in der blauen Box?","Green","Blue","F","negation","match","speech","no","ThumbDown","female","speech-gesture","1470","920","safari","30.24","Mac OS","20","female","right","Wed Oct 16 2024 14:59:26 GMT+0200 (Mitteleuropäische Sommerzeit)","2","43","0","1729085660079"
"1140","f","SpeechGestureMatch","../RequiredFiles/videos/NeinDaumenhoch_f_no_gesture.mp4","Ist der Ball in der grünen Box?","Blue","Green","F","negation","na","speech","no","na","female","speech-gesture","1470","920","safari","30.24","Mac OS","20","female","right","Wed Oct 16 2024 14:59:32 GMT+0200 (Mitteleuropäische Sommerzeit)","2","44","0","1729085660079"
"1188","j","SpeechGestureMatch","../RequiredFiles/videos/JaDaumenrunter_f_no_gesture.mp4","Ist der Ball in der blauen Box?","Green","Blue","J","affirmation","na","speech","yes","na","female","speech-gesture","1470","920","safari","30.24","Mac OS","20","female","right","Wed Oct 16 2024 14:59:39 GMT+0200 (Mitteleuropäische Sommerzeit)","2","45","0","1729085660079"
"1126","f","SpeechGestureMatch","../RequiredFiles/videos/NeinDaumenrunter_f.mp4","Ist der Ball in der grünen Box?","Blue","Green","F","negation","match","speech","no","ThumbDown","female","speech-gesture","1470","920","safari","30.24","Mac OS","20","female","right","Wed Oct 16 2024 14:59:46 GMT+0200 (Mitteleuropäische Sommerzeit)","2","46","0","1729085660079"
"1289","f","SpeechGestureMatch","../RequiredFiles/videos/NeinDaumenhoch_f.mp4","Ist der Ball in der grünen Box?","Blue","Green","F","negation","mismatch","speech","no","ThumbUp","female","speech-gesture","1470","920","safari","30.24","Mac OS","20","female","right","Wed Oct 16 2024 14:59:53 GMT+0200 (Mitteleuropäische Sommerzeit)","2","47","0","1729085660079"
"1155","f","SpeechGestureMatch","../RequiredFiles/videos/NeinDaumenrunter_f.mp4","Ist der Ball in der blauen Box?","Blue","Green","J","negation","match","speech","no","ThumbDown","female","speech-gesture","1470","920","safari","30.24","Mac OS","20","female","right","Wed Oct 16 2024 14:59:59 GMT+0200 (Mitteleuropäische Sommerzeit)","2","48","1","1729085660079"
"1122","j","SpeechGestureMatch","../RequiredFiles/videos/JaDaumenhoch_f_no_gesture.mp4","Ist der Ball in der grünen Box?","Blue","Green","J","affirmation","na","speech","yes","na","female","speech-gesture","1470","920","safari","30.24","Mac OS","20","female","right","Wed Oct 16 2024 15:00:06 GMT+0200 (Mitteleuropäische Sommerzeit)","2","49","0","1729085660079"
"1225","j","SpeechGestureMatch","../RequiredFiles/videos/JaDaumenrunter_f.mp4","Ist der Ball in der grünen Box?","Blue","Green","J","affirmation","mismatch","speech","yes","ThumbDown","female","speech-gesture","1470","920","safari","30.24","Mac OS","20","female","right","Wed Oct 16 2024 15:00:13 GMT+0200 (Mitteleuropäische Sommerzeit)","2","50","0","1729085660079"
"1400","f","SpeechGestureMatch","../RequiredFiles/videos/JaDaumenhoch_m.mp4","Ist der Ball in der blauen Box?","Blue","Green","F","affirmation","match","speech","yes","ThumbUp","male","speech-gesture","1470","920","safari","30.24","Mac OS","20","female","right","Wed Oct 16 2024 15:00:20 GMT+0200 (Mitteleuropäische Sommerzeit)","2","51","0","1729085660079"
"1240","j","SpeechGestureMatch","../RequiredFiles/videos/NeinDaumenhoch_m.mp4","Ist der Ball in der grünen Box?","Green","Blue","J","negation","mismatch","speech","no","ThumbUp","male","speech-gesture","1470","920","safari","30.24","Mac OS","20","female","right","Wed Oct 16 2024 15:00:26 GMT+0200 (Mitteleuropäische Sommerzeit)","2","52","0","1729085660079"
"1338","j","SpeechGestureMatch","../RequiredFiles/videos/NeinDaumenrunter_m.mp4","Ist der Ball in der grünen Box?","Green","Blue","J","negation","match","speech","no","ThumbDown","male","speech-gesture","1470","920","safari","30.24","Mac OS","20","female","right","Wed Oct 16 2024 15:00:33 GMT+0200 (Mitteleuropäische Sommerzeit)","2","53","0","1729085660079"
"1185","j","SpeechGestureMatch","../RequiredFiles/videos/NeinDaumenhoch_m_no_gesture.mp4","Ist der Ball in der blauen Box?","Blue","Green","J","negation","na","speech","no","na","male","speech-gesture","1470","920","safari","30.24","Mac OS","20","female","right","Wed Oct 16 2024 15:00:40 GMT+0200 (Mitteleuropäische Sommerzeit)","2","54","0","1729085660079"
"1156","f","SpeechGestureMatch","../RequiredFiles/videos/NeinDaumenrunter_m.mp4","Ist der Ball in der blauen Box?","Green","Blue","F","negation","match","speech","no","ThumbDown","male","speech-gesture","1470","920","safari","30.24","Mac OS","20","female","right","Wed Oct 16 2024 15:00:47 GMT+0200 (Mitteleuropäische Sommerzeit)","2","55","0","1729085660079"
"1191","j","SpeechGestureMatch","../RequiredFiles/videos/NeinDaumenhoch_f_no_gesture.mp4","Ist der Ball in der grünen Box?","Green","Blue","J","negation","na","speech","no","na","female","speech-gesture","1470","920","safari","30.24","Mac OS","20","female","right","Wed Oct 16 2024 15:00:53 GMT+0200 (Mitteleuropäische Sommerzeit)","2","56","0","1729085660079"
"1156","j","SpeechGestureMatch","../RequiredFiles/videos/JaDaumenrunter_f_no_gesture.mp4","Ist der Ball in der grünen Box?","Blue","Green","J","affirmation","na","speech","yes","na","female","speech-gesture","1470","920","safari","30.24","Mac OS","20","female","right","Wed Oct 16 2024 15:01:00 GMT+0200 (Mitteleuropäische Sommerzeit)","2","57","0","1729085660079"
"1094","f","SpeechGestureMatch","../RequiredFiles/videos/JaDaumenhoch_m_no_gesture.mp4","Ist der Ball in der grünen Box?","Green","Blue","F","affirmation","na","speech","yes","na","male","speech-gesture","1470","920","safari","30.24","Mac OS","20","female","right","Wed Oct 16 2024 15:01:07 GMT+0200 (Mitteleuropäische Sommerzeit)","2","58","0","1729085660079"
"1136","j","SpeechGestureMatch","../RequiredFiles/videos/JaDaumenhoch_m.mp4","Ist der Ball in der blauen Box?","Green","Blue","J","affirmation","match","speech","yes","ThumbUp","male","speech-gesture","1470","920","safari","30.24","Mac OS","20","female","right","Wed Oct 16 2024 15:01:13 GMT+0200 (Mitteleuropäische Sommerzeit)","2","59","0","1729085660079"
"1098","j","SpeechGestureMatch","../RequiredFiles/videos/JaDaumenhoch_m.mp4","Ist der Ball in der grünen Box?","Blue","Green","J","affirmation","match","speech","yes","ThumbUp","male","speech-gesture","1470","920","safari","30.24","Mac OS","20","female","right","Wed Oct 16 2024 15:01:20 GMT+0200 (Mitteleuropäische Sommerzeit)","2","60","0","1729085660079"
"1144","j","SpeechGestureMatch","../RequiredFiles/videos/JaDaumenrunter_f.mp4","Ist der Ball in der blauen Box?","Green","Blue","J","affirmation","mismatch","speech","yes","ThumbDown","female","speech-gesture","1470","920","safari","30.24","Mac OS","20","female","right","Wed Oct 16 2024 15:01:27 GMT+0200 (Mitteleuropäische Sommerzeit)","2","61","0","1729085660079"
"1021","j","SpeechGestureMatch","../RequiredFiles/videos/NeinDaumenhoch_f_no_gesture.mp4","Ist der Ball in der blauen Box?","Blue","Green","J","negation","na","speech","no","na","female","speech-gesture","1470","920","safari","30.24","Mac OS","20","female","right","Wed Oct 16 2024 15:01:33 GMT+0200 (Mitteleuropäische Sommerzeit)","2","62","0","1729085660079"
"1159","f","SpeechGestureMatch","../RequiredFiles/videos/NeinDaumenrunter_f.mp4","Ist der Ball in der grünen Box?","Blue","Green","F","negation","match","speech","no","ThumbDown","female","speech-gesture","1470","920","safari","30.24","Mac OS","20","female","right","Wed Oct 16 2024 15:01:40 GMT+0200 (Mitteleuropäische Sommerzeit)","2","63","0","1729085660079"
"1398","f","SpeechGestureMatch","../RequiredFiles/videos/JaDaumenhoch_m_no_gesture.mp4","Ist der Ball in der blauen Box?","Blue","Green","F","affirmation","na","speech","yes","na","male","speech-gesture","1470","920","safari","30.24","Mac OS","20","female","right","Wed Oct 16 2024 15:01:47 GMT+0200 (Mitteleuropäische Sommerzeit)","2","64","0","1729085660079"
"1227","f","SpeechGestureMatch","../RequiredFiles/videos/JaDaumenrunter_f.mp4","Ist der Ball in der blauen Box?","Blue","Green","F","affirmation","mismatch","speech","yes","ThumbDown","female","speech-gesture","1470","920","safari","30.24","Mac OS","20","female","right","Wed Oct 16 2024 15:01:54 GMT+0200 (Mitteleuropäische Sommerzeit)","2","65","0","1729085660079"
"1120","f","SpeechGestureMatch","../RequiredFiles/videos/JaDaumenhoch_f_no_gesture.mp4","Ist der Ball in der blauen Box?","Blue","Green","F","affirmation","na","speech","yes","na","female","speech-gesture","1470","920","safari","30.24","Mac OS","20","female","right","Wed Oct 16 2024 15:02:00 GMT+0200 (Mitteleuropäische Sommerzeit)","2","66","0","1729085660079"
"1265","j","SpeechGestureMatch","../RequiredFiles/videos/NeinDaumenhoch_m.mp4","Ist der Ball in der blauen Box?","Blue","Green","J","negation","mismatch","speech","no","ThumbUp","male","speech-gesture","1470","920","safari","30.24","Mac OS","20","female","right","Wed Oct 16 2024 15:02:07 GMT+0200 (Mitteleuropäische Sommerzeit)","2","67","0","1729085660079"
"1114","j","SpeechGestureMatch","../RequiredFiles/videos/JaDaumenrunter_m.mp4","Ist der Ball in der grünen Box?","Blue","Green","J","affirmation","mismatch","speech","yes","ThumbDown","male","speech-gesture","1470","920","safari","30.24","Mac OS","20","female","right","Wed Oct 16 2024 15:02:14 GMT+0200 (Mitteleuropäische Sommerzeit)","2","68","0","1729085660079"
"1229","j","SpeechGestureMatch","../RequiredFiles/videos/JaDaumenrunter_f.mp4","Ist der Ball in der blauen Box?","Green","Blue","J","affirmation","mismatch","speech","yes","ThumbDown","female","speech-gesture","1470","920","safari","30.24","Mac OS","20","female","right","Wed Oct 16 2024 15:02:21 GMT+0200 (Mitteleuropäische Sommerzeit)","2","69","0","1729085660079"
"1121","f","SpeechGestureMatch","../RequiredFiles/videos/NeinDaumenhoch_f_no_gesture.mp4","Ist der Ball in der blauen Box?","Green","Blue","F","negation","na","speech","no","na","female","speech-gesture","1470","920","safari","30.24","Mac OS","20","female","right","Wed Oct 16 2024 15:02:27 GMT+0200 (Mitteleuropäische Sommerzeit)","2","70","0","1729085660079"
"1142","j","SpeechGestureMatch","../RequiredFiles/videos/JaDaumenrunter_f.mp4","Ist der Ball in der grünen Box?","Blue","Green","J","affirmation","mismatch","speech","yes","ThumbDown","female","speech-gesture","1470","920","safari","30.24","Mac OS","20","female","right","Wed Oct 16 2024 15:02:34 GMT+0200 (Mitteleuropäische Sommerzeit)","2","71","0","1729085660079"
"1038","f","SpeechGestureMatch","../RequiredFiles/videos/NeinDaumenhoch_f.mp4","Ist der Ball in der blauen Box?","Green","Blue","F","negation","mismatch","speech","no","ThumbUp","female","speech-gesture","1470","920","safari","30.24","Mac OS","20","female","right","Wed Oct 16 2024 15:02:41 GMT+0200 (Mitteleuropäische Sommerzeit)","2","72","0","1729085660079"
"1322","f","SpeechGestureMatch","../RequiredFiles/videos/NeinDaumenrunter_f.mp4","Ist der Ball in der grünen Box?","Green","Blue","J","negation","match","speech","no","ThumbDown","female","speech-gesture","1470","920","safari","30.24","Mac OS","20","female","right","Wed Oct 16 2024 15:02:47 GMT+0200 (Mitteleuropäische Sommerzeit)","2","73","1","1729085660079"
"1255","f","SpeechGestureMatch","../RequiredFiles/videos/NeinDaumenhoch_m_no_gesture.mp4","Ist der Ball in der grünen Box?","Blue","Green","F","negation","na","speech","no","na","male","speech-gesture","1470","920","safari","30.24","Mac OS","20","female","right","Wed Oct 16 2024 15:02:54 GMT+0200 (Mitteleuropäische Sommerzeit)","2","74","0","1729085660079"
"1218","f","SpeechGestureMatch","../RequiredFiles/videos/NeinDaumenhoch_m_no_gesture.mp4","Ist der Ball in der blauen Box?","Green","Blue","F","negation","na","speech","no","na","male","speech-gesture","1470","920","safari","30.24","Mac OS","20","female","right","Wed Oct 16 2024 15:03:01 GMT+0200 (Mitteleuropäische Sommerzeit)","2","75","0","1729085660079"
"1182","f","SpeechGestureMatch","../RequiredFiles/videos/JaDaumenhoch_f.mp4","Ist der Ball in der blauen Box?","Blue","Green","F","affirmation","match","speech","yes","ThumbUp","female","speech-gesture","1470","920","safari","30.24","Mac OS","20","female","right","Wed Oct 16 2024 15:03:08 GMT+0200 (Mitteleuropäische Sommerzeit)","2","76","0","1729085660079"
"1214","f","SpeechGestureMatch","../RequiredFiles/videos/NeinDaumenrunter_m.mp4","Ist der Ball in der blauen Box?","Green","Blue","F","negation","match","speech","no","ThumbDown","male","speech-gesture","1470","920","safari","30.24","Mac OS","20","female","right","Wed Oct 16 2024 15:03:14 GMT+0200 (Mitteleuropäische Sommerzeit)","2","77","0","1729085660079"
"1219","j","SpeechGestureMatch","../RequiredFiles/videos/NeinDaumenrunter_f.mp4","Ist der Ball in der grünen Box?","Green","Blue","J","negation","match","speech","no","ThumbDown","female","speech-gesture","1470","920","safari","30.24","Mac OS","20","female","right","Wed Oct 16 2024 15:03:21 GMT+0200 (Mitteleuropäische Sommerzeit)","2","78","0","1729085660079"
"1217","f","SpeechGestureMatch","../RequiredFiles/videos/JaDaumenhoch_m.mp4","Ist der Ball in der grünen Box?","Green","Blue","F","affirmation","match","speech","yes","ThumbUp","male","speech-gesture","1470","920","safari","30.24","Mac OS","20","female","right","Wed Oct 16 2024 15:03:28 GMT+0200 (Mitteleuropäische Sommerzeit)","2","79","0","1729085660079"
"1217","j","SpeechGestureMatch","../RequiredFiles/videos/NeinDaumenrunter_m.mp4","Ist der Ball in der blauen Box?","Blue","Green","J","negation","match","speech","no","ThumbDown","male","speech-gesture","1470","920","safari","30.24","Mac OS","20","female","right","Wed Oct 16 2024 15:03:35 GMT+0200 (Mitteleuropäische Sommerzeit)","2","80","0","1729085660079"
"1145","j","SpeechGestureMatch","../RequiredFiles/videos/JaDaumenrunter_m_no_gesture.mp4","Ist der Ball in der blauen Box?","Green","Blue","J","affirmation","na","speech","yes","na","male","speech-gesture","1470","920","safari","30.24","Mac OS","20","female","right","Wed Oct 16 2024 15:03:41 GMT+0200 (Mitteleuropäische Sommerzeit)","2","81","0","1729085660079"
"1210","f","SpeechGestureMatch","../RequiredFiles/videos/JaDaumenrunter_m.mp4","Ist der Ball in der grünen Box?","Green","Blue","F","affirmation","mismatch","speech","yes","ThumbDown","male","speech-gesture","1470","920","safari","30.24","Mac OS","20","female","right","Wed Oct 16 2024 15:03:48 GMT+0200 (Mitteleuropäische Sommerzeit)","2","82","0","1729085660079"
"1116","f","SpeechGestureMatch","../RequiredFiles/videos/JaDaumenhoch_m.mp4","Ist der Ball in der grünen Box?","Green","Blue","F","affirmation","match","speech","yes","ThumbUp","male","speech-gesture","1470","920","safari","30.24","Mac OS","20","female","right","Wed Oct 16 2024 15:03:55 GMT+0200 (Mitteleuropäische Sommerzeit)","2","83","0","1729085660079"
"1150","j","SpeechGestureMatch","../RequiredFiles/videos/JaDaumenrunter_m.mp4","Ist der Ball in der blauen Box?","Green","Blue","J","affirmation","mismatch","speech","yes","ThumbDown","male","speech-gesture","1470","920","safari","30.24","Mac OS","20","female","right","Wed Oct 16 2024 15:04:02 GMT+0200 (Mitteleuropäische Sommerzeit)","2","84","0","1729085660079"
"1135","j","SpeechGestureMatch","../RequiredFiles/videos/NeinDaumenrunter_m_no_gesture.mp4","Ist der Ball in der grünen Box?","Green","Blue","J","negation","na","speech","no","na","male","speech-gesture","1470","920","safari","30.24","Mac OS","20","female","right","Wed Oct 16 2024 15:04:08 GMT+0200 (Mitteleuropäische Sommerzeit)","2","85","0","1729085660079"
"1675","j","SpeechGestureMatch","../RequiredFiles/videos/NeinDaumenhoch_m.mp4","Ist der Ball in der blauen Box?","Blue","Green","J","negation","mismatch","speech","no","ThumbUp","male","speech-gesture","1470","920","safari","30.24","Mac OS","20","female","right","Wed Oct 16 2024 15:04:15 GMT+0200 (Mitteleuropäische Sommerzeit)","2","86","0","1729085660079"
"1112","f","SpeechGestureMatch","../RequiredFiles/videos/JaDaumenrunter_m_no_gesture.mp4","Ist der Ball in der blauen Box?","Blue","Green","F","affirmation","na","speech","yes","na","male","speech-gesture","1470","920","safari","30.24","Mac OS","20","female","right","Wed Oct 16 2024 15:04:22 GMT+0200 (Mitteleuropäische Sommerzeit)","2","87","0","1729085660079"
"1215","j","SpeechGestureMatch","../RequiredFiles/videos/JaDaumenhoch_f_no_gesture.mp4","Ist der Ball in der blauen Box?","Green","Blue","J","affirmation","na","speech","yes","na","female","speech-gesture","1470","920","safari","30.24","Mac OS","20","female","right","Wed Oct 16 2024 15:04:29 GMT+0200 (Mitteleuropäische Sommerzeit)","2","88","0","1729085660079"
"1173","j","SpeechGestureMatch","../RequiredFiles/videos/NeinDaumenrunter_m.mp4","Ist der Ball in der grünen Box?","Green","Blue","J","negation","match","speech","no","ThumbDown","male","speech-gesture","1470","920","safari","30.24","Mac OS","20","female","right","Wed Oct 16 2024 15:04:36 GMT+0200 (Mitteleuropäische Sommerzeit)","2","89","0","1729085660079"
"1368","j","SpeechGestureMatch","../RequiredFiles/videos/NeinDaumenhoch_f.mp4","Ist der Ball in der blauen Box?","Blue","Green","J","negation","mismatch","speech","no","ThumbUp","female","speech-gesture","1470","920","safari","30.24","Mac OS","20","female","right","Wed Oct 16 2024 15:04:42 GMT+0200 (Mitteleuropäische Sommerzeit)","2","90","0","1729085660079"
"1262","j","SpeechGestureMatch","../RequiredFiles/videos/JaDaumenhoch_m_no_gesture.mp4","Ist der Ball in der blauen Box?","Green","Blue","J","affirmation","na","speech","yes","na","male","speech-gesture","1470","920","safari","30.24","Mac OS","20","female","right","Wed Oct 16 2024 15:04:49 GMT+0200 (Mitteleuropäische Sommerzeit)","2","91","0","1729085660079"
"1133","f","SpeechGestureMatch","../RequiredFiles/videos/JaDaumenhoch_f_no_gesture.mp4","Ist der Ball in der grünen Box?","Green","Blue","F","affirmation","na","speech","yes","na","female","speech-gesture","1470","920","safari","30.24","Mac OS","20","female","right","Wed Oct 16 2024 15:04:56 GMT+0200 (Mitteleuropäische Sommerzeit)","2","92","0","1729085660079"
"1200","f","SpeechGestureMatch","../RequiredFiles/videos/NeinDaumenrunter_f_no_gesture.mp4","Ist der Ball in der grünen Box?","Blue","Green","F","negation","na","speech","no","na","female","speech-gesture","1470","920","safari","30.24","Mac OS","20","female","right","Wed Oct 16 2024 15:05:03 GMT+0200 (Mitteleuropäische Sommerzeit)","2","93","0","1729085660079"
"1176","j","SpeechGestureMatch","../RequiredFiles/videos/JaDaumenhoch_m.mp4","Ist der Ball in der blauen Box?","Green","Blue","J","affirmation","match","speech","yes","ThumbUp","male","speech-gesture","1470","920","safari","30.24","Mac OS","20","female","right","Wed Oct 16 2024 15:05:09 GMT+0200 (Mitteleuropäische Sommerzeit)","2","94","0","1729085660079"
"1363","f","SpeechGestureMatch","../RequiredFiles/videos/NeinDaumenrunter_m_no_gesture.mp4","Ist der Ball in der blauen Box?","Green","Blue","F","negation","na","speech","no","na","male","speech-gesture","1470","920","safari","30.24","Mac OS","20","female","right","Wed Oct 16 2024 15:05:16 GMT+0200 (Mitteleuropäische Sommerzeit)","2","95","0","1729085660079"
"1215","j","SpeechGestureMatch","../RequiredFiles/videos/NeinDaumenhoch_f.mp4","Ist der Ball in der grünen Box?","Green","Blue","J","negation","mismatch","speech","no","ThumbUp","female","speech-gesture","1470","920","safari","30.24","Mac OS","20","female","right","Wed Oct 16 2024 15:05:23 GMT+0200 (Mitteleuropäische Sommerzeit)","2","96","0","1729085660079"
"802","j","SpeechGestureMatch","../RequiredFiles/videos/NeinDaumenhoch_m_no_sound.mp4","Ist der Ball in der blauen Box?","Green","Blue","J","affirmation","na","gesture","na","ThumbUp","male","speech-gesture","1470","920","safari","30.24","Mac OS","20","female","right","Wed Oct 16 2024 15:09:22 GMT+0200 (Mitteleuropäische Sommerzeit)","3","1","0","1729085660079"
"903","f","SpeechGestureMatch","../RequiredFiles/videos/NeinDaumenhoch_f_no_sound.mp4","Ist der Ball in der blauen Box?","Blue","Green","F","affirmation","na","gesture","na","ThumbUp","female","speech-gesture","1470","920","safari","30.24","Mac OS","20","female","right","Wed Oct 16 2024 15:09:28 GMT+0200 (Mitteleuropäische Sommerzeit)","3","2","0","1729085660079"
"849","j","SpeechGestureMatch","../RequiredFiles/videos/NeinDaumenhoch_f_no_sound.mp4","Ist der Ball in der blauen Box?","Green","Blue","J","affirmation","na","gesture","na","ThumbUp","female","speech-gesture","1470","920","safari","30.24","Mac OS","20","female","right","Wed Oct 16 2024 15:09:35 GMT+0200 (Mitteleuropäische Sommerzeit)","3","3","0","1729085660079"
"1331","j","SpeechGestureMatch","../RequiredFiles/videos/NeinDaumenhoch_f.mp4","Ist der Ball in der blauen Box?","Green","Blue","J","affirmation","mismatch","gesture","no","ThumbUp","female","speech-gesture","1470","920","safari","30.24","Mac OS","20","female","right","Wed Oct 16 2024 15:09:41 GMT+0200 (Mitteleuropäische Sommerzeit)","3","4","0","1729085660079"
"1071","f","SpeechGestureMatch","../RequiredFiles/videos/NeinDaumenrunter_m.mp4","Ist der Ball in der blauen Box?","Green","Blue","F","negation","match","gesture","no","ThumbDown","male","speech-gesture","1470","920","safari","30.24","Mac OS","20","female","right","Wed Oct 16 2024 15:09:48 GMT+0200 (Mitteleuropäische Sommerzeit)","3","5","0","1729085660079"
"1174","j","SpeechGestureMatch","../RequiredFiles/videos/JaDaumenhoch_m.mp4","Ist der Ball in der blauen Box?","Green","Blue","J","affirmation","match","gesture","yes","ThumbUp","male","speech-gesture","1470","920","safari","30.24","Mac OS","20","female","right","Wed Oct 16 2024 15:09:55 GMT+0200 (Mitteleuropäische Sommerzeit)","3","6","0","1729085660079"
"1103","f","SpeechGestureMatch","../RequiredFiles/videos/NeinDaumenrunter_f.mp4","Ist der Ball in der blauen Box?","Blue","Green","J","negation","match","gesture","no","ThumbDown","female","speech-gesture","1470","920","safari","30.24","Mac OS","20","female","right","Wed Oct 16 2024 15:10:01 GMT+0200 (Mitteleuropäische Sommerzeit)","3","7","1","1729085660079"
"1159","f","SpeechGestureMatch","../RequiredFiles/videos/JaDaumenrunter_m.mp4","Ist der Ball in der blauen Box?","Green","Blue","F","negation","mismatch","gesture","yes","ThumbDown","male","speech-gesture","1470","920","safari","30.24","Mac OS","20","female","right","Wed Oct 16 2024 15:10:08 GMT+0200 (Mitteleuropäische Sommerzeit)","3","8","0","1729085660079"
"827","f","SpeechGestureMatch","../RequiredFiles/videos/JaDaumenhoch_f_no_sound.mp4","Ist der Ball in der blauen Box?","Blue","Green","F","affirmation","na","gesture","na","ThumbUp","female","speech-gesture","1470","920","safari","30.24","Mac OS","20","female","right","Wed Oct 16 2024 15:10:15 GMT+0200 (Mitteleuropäische Sommerzeit)","3","9","0","1729085660079"
"1162","j","SpeechGestureMatch","../RequiredFiles/videos/JaDaumenrunter_m.mp4","Ist der Ball in der grünen Box?","Green","Blue","J","negation","mismatch","gesture","yes","ThumbDown","male","speech-gesture","1470","920","safari","30.24","Mac OS","20","female","right","Wed Oct 16 2024 15:10:21 GMT+0200 (Mitteleuropäische Sommerzeit)","3","10","0","1729085660079"
"1057","f","SpeechGestureMatch","../RequiredFiles/videos/NeinDaumenrunter_m.mp4","Ist der Ball in der grünen Box?","Blue","Green","F","negation","match","gesture","no","ThumbDown","male","speech-gesture","1470","920","safari","30.24","Mac OS","20","female","right","Wed Oct 16 2024 15:10:28 GMT+0200 (Mitteleuropäische Sommerzeit)","3","11","0","1729085660079"
"890","j","SpeechGestureMatch","../RequiredFiles/videos/JaDaumenrunter_m_no_sound.mp4","Ist der Ball in der blauen Box?","Blue","Green","J","negation","na","gesture","na","ThumbDown","male","speech-gesture","1470","920","safari","30.24","Mac OS","20","female","right","Wed Oct 16 2024 15:10:34 GMT+0200 (Mitteleuropäische Sommerzeit)","3","12","0","1729085660079"
"1228","j","SpeechGestureMatch","../RequiredFiles/videos/JaDaumenhoch_f.mp4","Ist der Ball in der grünen Box?","Blue","Green","J","affirmation","match","gesture","yes","ThumbUp","female","speech-gesture","1470","920","safari","30.24","Mac OS","20","female","right","Wed Oct 16 2024 15:10:41 GMT+0200 (Mitteleuropäische Sommerzeit)","3","13","0","1729085660079"
"892","j","SpeechGestureMatch","../RequiredFiles/videos/JaDaumenhoch_m_no_sound.mp4","Ist der Ball in der grünen Box?","Blue","Green","J","affirmation","na","gesture","na","ThumbUp","male","speech-gesture","1470","920","safari","30.24","Mac OS","20","female","right","Wed Oct 16 2024 15:10:47 GMT+0200 (Mitteleuropäische Sommerzeit)","3","14","0","1729085660079"
"1158","j","SpeechGestureMatch","../RequiredFiles/videos/NeinDaumenrunter_f.mp4","Ist der Ball in der grünen Box?","Green","Blue","J","negation","match","gesture","no","ThumbDown","female","speech-gesture","1470","920","safari","30.24","Mac OS","20","female","right","Wed Oct 16 2024 15:10:54 GMT+0200 (Mitteleuropäische Sommerzeit)","3","15","0","1729085660079"
"1088","j","SpeechGestureMatch","../RequiredFiles/videos/NeinDaumenrunter_m.mp4","Ist der Ball in der blauen Box?","Blue","Green","J","negation","match","gesture","no","ThumbDown","male","speech-gesture","1470","920","safari","30.24","Mac OS","20","female","right","Wed Oct 16 2024 15:11:01 GMT+0200 (Mitteleuropäische Sommerzeit)","3","16","0","1729085660079"
"1168","j","SpeechGestureMatch","../RequiredFiles/videos/JaDaumenhoch_m.mp4","Ist der Ball in der blauen Box?","Green","Blue","J","affirmation","match","gesture","yes","ThumbUp","male","speech-gesture","1470","920","safari","30.24","Mac OS","20","female","right","Wed Oct 16 2024 15:11:08 GMT+0200 (Mitteleuropäische Sommerzeit)","3","17","0","1729085660079"
"1251","f","SpeechGestureMatch","../RequiredFiles/videos/JaDaumenrunter_f.mp4","Ist der Ball in der grünen Box?","Blue","Green","F","negation","mismatch","gesture","yes","ThumbDown","female","speech-gesture","1470","920","safari","30.24","Mac OS","20","female","right","Wed Oct 16 2024 15:11:14 GMT+0200 (Mitteleuropäische Sommerzeit)","3","18","0","1729085660079"
"1145","f","SpeechGestureMatch","../RequiredFiles/videos/JaDaumenhoch_m.mp4","Ist der Ball in der grünen Box?","Green","Blue","F","affirmation","match","gesture","yes","ThumbUp","male","speech-gesture","1470","920","safari","30.24","Mac OS","20","female","right","Wed Oct 16 2024 15:11:21 GMT+0200 (Mitteleuropäische Sommerzeit)","3","19","0","1729085660079"
"1362","f","SpeechGestureMatch","../RequiredFiles/videos/NeinDaumenrunter_f.mp4","Ist der Ball in der grünen Box?","Blue","Green","F","negation","match","gesture","no","ThumbDown","female","speech-gesture","1470","920","safari","30.24","Mac OS","20","female","right","Wed Oct 16 2024 15:11:28 GMT+0200 (Mitteleuropäische Sommerzeit)","3","20","0","1729085660079"
"1162","f","SpeechGestureMatch","../RequiredFiles/videos/JaDaumenrunter_m.mp4","Ist der Ball in der blauen Box?","Green","Blue","F","negation","mismatch","gesture","yes","ThumbDown","male","speech-gesture","1470","920","safari","30.24","Mac OS","20","female","right","Wed Oct 16 2024 15:11:35 GMT+0200 (Mitteleuropäische Sommerzeit)","3","21","0","1729085660079"
"867","f","SpeechGestureMatch","../RequiredFiles/videos/JaDaumenhoch_f_no_sound.mp4","Ist der Ball in der grünen Box?","Green","Blue","F","affirmation","na","gesture","na","ThumbUp","female","speech-gesture","1470","920","safari","30.24","Mac OS","20","female","right","Wed Oct 16 2024 15:11:41 GMT+0200 (Mitteleuropäische Sommerzeit)","3","22","0","1729085660079"
"1216","j","SpeechGestureMatch","../RequiredFiles/videos/JaDaumenhoch_f.mp4","Ist der Ball in der grünen Box?","Blue","Green","J","affirmation","match","gesture","yes","ThumbUp","female","speech-gesture","1470","920","safari","30.24","Mac OS","20","female","right","Wed Oct 16 2024 15:11:48 GMT+0200 (Mitteleuropäische Sommerzeit)","3","23","0","1729085660079"
"1208","f","SpeechGestureMatch","../RequiredFiles/videos/JaDaumenhoch_m.mp4","Ist der Ball in der blauen Box?","Blue","Green","F","affirmation","match","gesture","yes","ThumbUp","male","speech-gesture","1470","920","safari","30.24","Mac OS","20","female","right","Wed Oct 16 2024 15:11:55 GMT+0200 (Mitteleuropäische Sommerzeit)","3","24","0","1729085660079"
"1115","f","SpeechGestureMatch","../RequiredFiles/videos/JaDaumenhoch_f.mp4","Ist der Ball in der blauen Box?","Blue","Green","F","affirmation","match","gesture","yes","ThumbUp","female","speech-gesture","1470","920","safari","30.24","Mac OS","20","female","right","Wed Oct 16 2024 15:12:01 GMT+0200 (Mitteleuropäische Sommerzeit)","3","25","0","1729085660079"
"840","j","SpeechGestureMatch","../RequiredFiles/videos/JaDaumenrunter_f_no_sound.mp4","Ist der Ball in der blauen Box?","Blue","Green","J","negation","na","gesture","na","ThumbDown","female","speech-gesture","1470","920","safari","30.24","Mac OS","20","female","right","Wed Oct 16 2024 15:12:08 GMT+0200 (Mitteleuropäische Sommerzeit)","3","26","0","1729085660079"
"758","f","SpeechGestureMatch","../RequiredFiles/videos/JaDaumenhoch_m_no_sound.mp4","Ist der Ball in der blauen Box?","Blue","Green","F","affirmation","na","gesture","na","ThumbUp","male","speech-gesture","1470","920","safari","30.24","Mac OS","20","female","right","Wed Oct 16 2024 15:12:14 GMT+0200 (Mitteleuropäische Sommerzeit)","3","27","0","1729085660079"
"1299","j","SpeechGestureMatch","../RequiredFiles/videos/NeinDaumenhoch_f.mp4","Ist der Ball in der grünen Box?","Blue","Green","J","affirmation","mismatch","gesture","no","ThumbUp","female","speech-gesture","1470","920","safari","30.24","Mac OS","20","female","right","Wed Oct 16 2024 15:12:21 GMT+0200 (Mitteleuropäische Sommerzeit)","3","28","0","1729085660079"
"788","j","SpeechGestureMatch","../RequiredFiles/videos/JaDaumenrunter_m_no_sound.mp4","Ist der Ball in der grünen Box?","Green","Blue","J","negation","na","gesture","na","ThumbDown","male","speech-gesture","1470","920","safari","30.24","Mac OS","20","female","right","Wed Oct 16 2024 15:12:27 GMT+0200 (Mitteleuropäische Sommerzeit)","3","29","0","1729085660079"
"1317","j","SpeechGestureMatch","../RequiredFiles/videos/JaDaumenhoch_m.mp4","Ist der Ball in der grünen Box?","Blue","Green","J","affirmation","match","gesture","yes","ThumbUp","male","speech-gesture","1470","920","safari","30.24","Mac OS","20","female","right","Wed Oct 16 2024 15:12:34 GMT+0200 (Mitteleuropäische Sommerzeit)","3","30","0","1729085660079"
"1059","f","SpeechGestureMatch","../RequiredFiles/videos/JaDaumenrunter_f.mp4","Ist der Ball in der blauen Box?","Green","Blue","F","negation","mismatch","gesture","yes","ThumbDown","female","speech-gesture","1470","920","safari","30.24","Mac OS","20","female","right","Wed Oct 16 2024 15:12:41 GMT+0200 (Mitteleuropäische Sommerzeit)","3","31","0","1729085660079"
"1258","f","SpeechGestureMatch","../RequiredFiles/videos/JaDaumenrunter_f.mp4","Ist der Ball in der grünen Box?","Blue","Green","F","negation","mismatch","gesture","yes","ThumbDown","female","speech-gesture","1470","920","safari","30.24","Mac OS","20","female","right","Wed Oct 16 2024 15:12:47 GMT+0200 (Mitteleuropäische Sommerzeit)","3","32","0","1729085660079"
"1187","f","SpeechGestureMatch","../RequiredFiles/videos/JaDaumenrunter_m.mp4","Ist der Ball in der grünen Box?","Blue","Green","F","negation","mismatch","gesture","yes","ThumbDown","male","speech-gesture","1470","920","safari","30.24","Mac OS","20","female","right","Wed Oct 16 2024 15:12:54 GMT+0200 (Mitteleuropäische Sommerzeit)","3","33","0","1729085660079"
"1170","f","SpeechGestureMatch","../RequiredFiles/videos/NeinDaumenhoch_f.mp4","Ist der Ball in der blauen Box?","Blue","Green","F","affirmation","mismatch","gesture","no","ThumbUp","female","speech-gesture","1470","920","safari","30.24","Mac OS","20","female","right","Wed Oct 16 2024 15:13:01 GMT+0200 (Mitteleuropäische Sommerzeit)","3","34","0","1729085660079"
"1190","f","SpeechGestureMatch","../RequiredFiles/videos/NeinDaumenhoch_m_no_sound.mp4","Ist der Ball in der blauen Box?","Blue","Green","F","affirmation","na","gesture","na","ThumbUp","male","speech-gesture","1470","920","safari","30.24","Mac OS","20","female","right","Wed Oct 16 2024 15:13:07 GMT+0200 (Mitteleuropäische Sommerzeit)","3","35","0","1729085660079"
"1403","j","SpeechGestureMatch","../RequiredFiles/videos/JaDaumenhoch_f.mp4","Ist der Ball in der blauen Box?","Green","Blue","J","affirmation","match","gesture","yes","ThumbUp","female","speech-gesture","1470","920","safari","30.24","Mac OS","20","female","right","Wed Oct 16 2024 15:13:14 GMT+0200 (Mitteleuropäische Sommerzeit)","3","36","0","1729085660079"
"825","f","SpeechGestureMatch","../RequiredFiles/videos/NeinDaumenrunter_f_no_sound.mp4","Ist der Ball in der blauen Box?","Green","Blue","F","negation","na","gesture","na","ThumbDown","female","speech-gesture","1470","920","safari","30.24","Mac OS","20","female","right","Wed Oct 16 2024 15:13:21 GMT+0200 (Mitteleuropäische Sommerzeit)","3","37","0","1729085660079"
"1190","j","SpeechGestureMatch","../RequiredFiles/videos/NeinDaumenhoch_m.mp4","Ist der Ball in der blauen Box?","Green","Blue","J","affirmation","mismatch","gesture","no","ThumbUp","male","speech-gesture","1470","920","safari","30.24","Mac OS","20","female","right","Wed Oct 16 2024 15:13:28 GMT+0200 (Mitteleuropäische Sommerzeit)","3","38","0","1729085660079"
"839","f","SpeechGestureMatch","../RequiredFiles/videos/NeinDaumenrunter_f_no_sound.mp4","Ist der Ball in der grünen Box?","Blue","Green","F","negation","na","gesture","na","ThumbDown","female","speech-gesture","1470","920","safari","30.24","Mac OS","20","female","right","Wed Oct 16 2024 15:13:34 GMT+0200 (Mitteleuropäische Sommerzeit)","3","39","0","1729085660079"
"1378","f","SpeechGestureMatch","../RequiredFiles/videos/NeinDaumenhoch_f.mp4","Ist der Ball in der grünen Box?","Green","Blue","F","affirmation","mismatch","gesture","no","ThumbUp","female","speech-gesture","1470","920","safari","30.24","Mac OS","20","female","right","Wed Oct 16 2024 15:13:41 GMT+0200 (Mitteleuropäische Sommerzeit)","3","40","0","1729085660079"
"868","j","SpeechGestureMatch","../RequiredFiles/videos/JaDaumenrunter_f_no_sound.mp4","Ist der Ball in der grünen Box?","Green","Blue","J","negation","na","gesture","na","ThumbDown","female","speech-gesture","1470","920","safari","30.24","Mac OS","20","female","right","Wed Oct 16 2024 15:13:47 GMT+0200 (Mitteleuropäische Sommerzeit)","3","41","0","1729085660079"
"1332","f","SpeechGestureMatch","../RequiredFiles/videos/NeinDaumenrunter_f.mp4","Ist der Ball in der blauen Box?","Green","Blue","F","negation","match","gesture","no","ThumbDown","female","speech-gesture","1470","920","safari","30.24","Mac OS","20","female","right","Wed Oct 16 2024 15:13:54 GMT+0200 (Mitteleuropäische Sommerzeit)","3","42","0","1729085660079"
"23542","j","SpeechGestureMatch","../RequiredFiles/videos/NeinDaumenhoch_m.mp4","Ist der Ball in der blauen Box?","Blue","Green","F","affirmation","mismatch","gesture","no","ThumbUp","male","speech-gesture","1470","920","safari","30.24","Mac OS","20","female","right","Wed Oct 16 2024 15:14:23 GMT+0200 (Mitteleuropäische Sommerzeit)","3","43","1","1729085660079"
"1357","f","SpeechGestureMatch","../RequiredFiles/videos/JaDaumenhoch_m.mp4","Ist der Ball in der blauen Box?","Blue","Green","F","affirmation","match","gesture","yes","ThumbUp","male","speech-gesture","1470","920","safari","30.24","Mac OS","20","female","right","Wed Oct 16 2024 15:14:30 GMT+0200 (Mitteleuropäische Sommerzeit)","3","44","0","1729085660079"
"1183","f","SpeechGestureMatch","../RequiredFiles/videos/JaDaumenhoch_f.mp4","Ist der Ball in der grünen Box?","Green","Blue","F","affirmation","match","gesture","yes","ThumbUp","female","speech-gesture","1470","920","safari","30.24","Mac OS","20","female","right","Wed Oct 16 2024 15:14:37 GMT+0200 (Mitteleuropäische Sommerzeit)","3","45","0","1729085660079"
"1109","f","SpeechGestureMatch","../RequiredFiles/videos/JaDaumenhoch_m.mp4","Ist der Ball in der grünen Box?","Green","Blue","F","affirmation","match","gesture","yes","ThumbUp","male","speech-gesture","1470","920","safari","30.24","Mac OS","20","female","right","Wed Oct 16 2024 15:14:44 GMT+0200 (Mitteleuropäische Sommerzeit)","3","46","0","1729085660079"
"820","f","SpeechGestureMatch","../RequiredFiles/videos/JaDaumenrunter_f_no_sound.mp4","Ist der Ball in der grünen Box?","Blue","Green","F","negation","na","gesture","na","ThumbDown","female","speech-gesture","1470","920","safari","30.24","Mac OS","20","female","right","Wed Oct 16 2024 15:14:50 GMT+0200 (Mitteleuropäische Sommerzeit)","3","47","0","1729085660079"
"3182","j","SpeechGestureMatch","../RequiredFiles/videos/JaDaumenhoch_f_no_sound.mp4","Ist der Ball in der blauen Box?","Green","Blue","J","affirmation","na","gesture","na","ThumbUp","female","speech-gesture","1470","920","safari","30.24","Mac OS","20","female","right","Wed Oct 16 2024 15:14:59 GMT+0200 (Mitteleuropäische Sommerzeit)","3","48","0","1729085660079"
"1336","f","SpeechGestureMatch","../RequiredFiles/videos/JaDaumenrunter_m.mp4","Ist der Ball in der blauen Box?","Blue","Green","J","negation","mismatch","gesture","yes","ThumbDown","male","speech-gesture","1470","920","safari","30.24","Mac OS","20","female","right","Wed Oct 16 2024 15:15:06 GMT+0200 (Mitteleuropäische Sommerzeit)","3","49","1","1729085660079"
"1215","j","SpeechGestureMatch","../RequiredFiles/videos/NeinDaumenrunter_m_no_sound.mp4","Ist der Ball in der blauen Box?","Blue","Green","J","negation","na","gesture","na","ThumbDown","male","speech-gesture","1470","920","safari","30.24","Mac OS","20","female","right","Wed Oct 16 2024 15:15:12 GMT+0200 (Mitteleuropäische Sommerzeit)","3","50","0","1729085660079"
"888","f","SpeechGestureMatch","../RequiredFiles/videos/JaDaumenrunter_f_no_sound.mp4","Ist der Ball in der blauen Box?","Green","Blue","F","negation","na","gesture","na","ThumbDown","female","speech-gesture","1470","920","safari","30.24","Mac OS","20","female","right","Wed Oct 16 2024 15:15:19 GMT+0200 (Mitteleuropäische Sommerzeit)","3","51","0","1729085660079"
"1144","j","SpeechGestureMatch","../RequiredFiles/videos/NeinDaumenhoch_m.mp4","Ist der Ball in der blauen Box?","Green","Blue","J","affirmation","mismatch","gesture","no","ThumbUp","male","speech-gesture","1470","920","safari","30.24","Mac OS","20","female","right","Wed Oct 16 2024 15:15:25 GMT+0200 (Mitteleuropäische Sommerzeit)","3","52","0","1729085660079"
"1145","f","SpeechGestureMatch","../RequiredFiles/videos/NeinDaumenrunter_m.mp4","Ist der Ball in der blauen Box?","Green","Blue","F","negation","match","gesture","no","ThumbDown","male","speech-gesture","1470","920","safari","30.24","Mac OS","20","female","right","Wed Oct 16 2024 15:15:32 GMT+0200 (Mitteleuropäische Sommerzeit)","3","53","0","1729085660079"
"1161","f","SpeechGestureMatch","../RequiredFiles/videos/JaDaumenrunter_f.mp4","Ist der Ball in der blauen Box?","Green","Blue","F","negation","mismatch","gesture","yes","ThumbDown","female","speech-gesture","1470","920","safari","30.24","Mac OS","20","female","right","Wed Oct 16 2024 15:15:39 GMT+0200 (Mitteleuropäische Sommerzeit)","3","54","0","1729085660079"
"1051","j","SpeechGestureMatch","../RequiredFiles/videos/JaDaumenrunter_f.mp4","Ist der Ball in der blauen Box?","Blue","Green","J","negation","mismatch","gesture","yes","ThumbDown","female","speech-gesture","1470","920","safari","30.24","Mac OS","20","female","right","Wed Oct 16 2024 15:15:45 GMT+0200 (Mitteleuropäische Sommerzeit)","3","55","0","1729085660079"
"1412","j","SpeechGestureMatch","../RequiredFiles/videos/NeinDaumenrunter_m.mp4","Ist der Ball in der grünen Box?","Green","Blue","J","negation","match","gesture","no","ThumbDown","male","speech-gesture","1470","920","safari","30.24","Mac OS","20","female","right","Wed Oct 16 2024 15:15:52 GMT+0200 (Mitteleuropäische Sommerzeit)","3","56","0","1729085660079"
"943","j","SpeechGestureMatch","../RequiredFiles/videos/JaDaumenhoch_f_no_sound.mp4","Ist der Ball in der grünen Box?","Blue","Green","J","affirmation","na","gesture","na","ThumbUp","female","speech-gesture","1470","920","safari","30.24","Mac OS","20","female","right","Wed Oct 16 2024 15:15:59 GMT+0200 (Mitteleuropäische Sommerzeit)","3","57","0","1729085660079"
"839","j","SpeechGestureMatch","../RequiredFiles/videos/NeinDaumenrunter_f_no_sound.mp4","Ist der Ball in der grünen Box?","Green","Blue","J","negation","na","gesture","na","ThumbDown","female","speech-gesture","1470","920","safari","30.24","Mac OS","20","female","right","Wed Oct 16 2024 15:16:05 GMT+0200 (Mitteleuropäische Sommerzeit)","3","58","0","1729085660079"
"1148","f","SpeechGestureMatch","../RequiredFiles/videos/NeinDaumenrunter_m.mp4","Ist der Ball in der grünen Box?","Blue","Green","F","negation","match","gesture","no","ThumbDown","male","speech-gesture","1470","920","safari","30.24","Mac OS","20","female","right","Wed Oct 16 2024 15:16:12 GMT+0200 (Mitteleuropäische Sommerzeit)","3","59","0","1729085660079"
"1178","j","SpeechGestureMatch","../RequiredFiles/videos/JaDaumenrunter_m.mp4","Ist der Ball in der grünen Box?","Green","Blue","J","negation","mismatch","gesture","yes","ThumbDown","male","speech-gesture","1470","920","safari","30.24","Mac OS","20","female","right","Wed Oct 16 2024 15:16:19 GMT+0200 (Mitteleuropäische Sommerzeit)","3","60","0","1729085660079"
"929","f","SpeechGestureMatch","../RequiredFiles/videos/JaDaumenrunter_m_no_sound.mp4","Ist der Ball in der blauen Box?","Green","Blue","F","negation","na","gesture","na","ThumbDown","male","speech-gesture","1470","920","safari","30.24","Mac OS","20","female","right","Wed Oct 16 2024 15:16:25 GMT+0200 (Mitteleuropäische Sommerzeit)","3","61","0","1729085660079"
"1277","j","SpeechGestureMatch","../RequiredFiles/videos/JaDaumenrunter_f.mp4","Ist der Ball in der blauen Box?","Blue","Green","J","negation","mismatch","gesture","yes","ThumbDown","female","speech-gesture","1470","920","safari","30.24","Mac OS","20","female","right","Wed Oct 16 2024 15:16:32 GMT+0200 (Mitteleuropäische Sommerzeit)","3","62","0","1729085660079"
"1042","j","SpeechGestureMatch","../RequiredFiles/videos/NeinDaumenrunter_m.mp4","Ist der Ball in der grünen Box?","Green","Blue","J","negation","match","gesture","no","ThumbDown","male","speech-gesture","1470","920","safari","30.24","Mac OS","20","female","right","Wed Oct 16 2024 15:16:38 GMT+0200 (Mitteleuropäische Sommerzeit)","3","63","0","1729085660079"
"1098","j","SpeechGestureMatch","../RequiredFiles/videos/NeinDaumenhoch_m.mp4","Ist der Ball in der grünen Box?","Blue","Green","J","affirmation","mismatch","gesture","no","ThumbUp","male","speech-gesture","1470","920","safari","30.24","Mac OS","20","female","right","Wed Oct 16 2024 15:16:45 GMT+0200 (Mitteleuropäische Sommerzeit)","3","64","0","1729085660079"
"1125","f","SpeechGestureMatch","../RequiredFiles/videos/JaDaumenhoch_f.mp4","Ist der Ball in der grünen Box?","Green","Blue","F","affirmation","match","gesture","yes","ThumbUp","female","speech-gesture","1470","920","safari","30.24","Mac OS","20","female","right","Wed Oct 16 2024 15:16:52 GMT+0200 (Mitteleuropäische Sommerzeit)","3","65","0","1729085660079"
"1207","j","SpeechGestureMatch","../RequiredFiles/videos/JaDaumenhoch_f.mp4","Ist der Ball in der blauen Box?","Green","Blue","J","affirmation","match","gesture","yes","ThumbUp","female","speech-gesture","1470","920","safari","30.24","Mac OS","20","female","right","Wed Oct 16 2024 15:16:59 GMT+0200 (Mitteleuropäische Sommerzeit)","3","66","0","1729085660079"
"1151","f","SpeechGestureMatch","../RequiredFiles/videos/JaDaumenhoch_f.mp4","Ist der Ball in der blauen Box?","Blue","Green","F","affirmation","match","gesture","yes","ThumbUp","female","speech-gesture","1470","920","safari","30.24","Mac OS","20","female","right","Wed Oct 16 2024 15:17:05 GMT+0200 (Mitteleuropäische Sommerzeit)","3","67","0","1729085660079"
"1038","j","SpeechGestureMatch","../RequiredFiles/videos/NeinDaumenhoch_f_no_sound.mp4","Ist der Ball in der grünen Box?","Blue","Green","J","affirmation","na","gesture","na","ThumbUp","female","speech-gesture","1470","920","safari","30.24","Mac OS","20","female","right","Wed Oct 16 2024 15:17:12 GMT+0200 (Mitteleuropäische Sommerzeit)","3","68","0","1729085660079"
"728","j","SpeechGestureMatch","../RequiredFiles/videos/NeinDaumenhoch_m_no_sound.mp4","Ist der Ball in der grünen Box?","Blue","Green","J","affirmation","na","gesture","na","ThumbUp","male","speech-gesture","1470","920","safari","30.24","Mac OS","20","female","right","Wed Oct 16 2024 15:17:18 GMT+0200 (Mitteleuropäische Sommerzeit)","3","69","0","1729085660079"
"3658","f","SpeechGestureMatch","../RequiredFiles/videos/NeinDaumenrunter_f.mp4","Ist der Ball in der blauen Box?","Green","Blue","F","negation","match","gesture","no","ThumbDown","female","speech-gesture","1470","920","safari","30.24","Mac OS","20","female","right","Wed Oct 16 2024 15:17:27 GMT+0200 (Mitteleuropäische Sommerzeit)","3","70","0","1729085660079"
"1259","j","SpeechGestureMatch","../RequiredFiles/videos/JaDaumenrunter_m.mp4","Ist der Ball in der blauen Box?","Blue","Green","J","negation","mismatch","gesture","yes","ThumbDown","male","speech-gesture","1470","920","safari","30.24","Mac OS","20","female","right","Wed Oct 16 2024 15:17:34 GMT+0200 (Mitteleuropäische Sommerzeit)","3","71","0","1729085660079"
"1275","j","SpeechGestureMatch","../RequiredFiles/videos/NeinDaumenhoch_m.mp4","Ist der Ball in der grünen Box?","Blue","Green","J","affirmation","mismatch","gesture","no","ThumbUp","male","speech-gesture","1470","920","safari","30.24","Mac OS","20","female","right","Wed Oct 16 2024 15:17:41 GMT+0200 (Mitteleuropäische Sommerzeit)","3","72","0","1729085660079"
"1362","j","SpeechGestureMatch","../RequiredFiles/videos/NeinDaumenhoch_f.mp4","Ist der Ball in der grünen Box?","Blue","Green","J","affirmation","mismatch","gesture","no","ThumbUp","female","speech-gesture","1470","920","safari","30.24","Mac OS","20","female","right","Wed Oct 16 2024 15:17:48 GMT+0200 (Mitteleuropäische Sommerzeit)","3","73","0","1729085660079"
"3938","j","SpeechGestureMatch","../RequiredFiles/videos/NeinDaumenrunter_m_no_sound.mp4","Ist der Ball in der grünen Box?","Green","Blue","J","negation","na","gesture","na","ThumbDown","male","speech-gesture","1470","920","safari","30.24","Mac OS","20","female","right","Wed Oct 16 2024 15:17:57 GMT+0200 (Mitteleuropäische Sommerzeit)","3","74","0","1729085660079"
"809","j","SpeechGestureMatch","../RequiredFiles/videos/JaDaumenhoch_m_no_sound.mp4","Ist der Ball in der blauen Box?","Green","Blue","J","affirmation","na","gesture","na","ThumbUp","male","speech-gesture","1470","920","safari","30.24","Mac OS","20","female","right","Wed Oct 16 2024 15:18:04 GMT+0200 (Mitteleuropäische Sommerzeit)","3","75","0","1729085660079"
"837","f","SpeechGestureMatch","../RequiredFiles/videos/NeinDaumenrunter_m_no_sound.mp4","Ist der Ball in der grünen Box?","Blue","Green","F","negation","na","gesture","na","ThumbDown","male","speech-gesture","1470","920","safari","30.24","Mac OS","20","female","right","Wed Oct 16 2024 15:18:10 GMT+0200 (Mitteleuropäische Sommerzeit)","3","76","0","1729085660079"
"1452","f","SpeechGestureMatch","../RequiredFiles/videos/NeinDaumenhoch_m.mp4","Ist der Ball in der blauen Box?","Blue","Green","F","affirmation","mismatch","gesture","no","ThumbUp","male","speech-gesture","1470","920","safari","30.24","Mac OS","20","female","right","Wed Oct 16 2024 15:18:17 GMT+0200 (Mitteleuropäische Sommerzeit)","3","77","0","1729085660079"
"4322","j","SpeechGestureMatch","../RequiredFiles/videos/NeinDaumenhoch_f.mp4","Ist der Ball in der blauen Box?","Green","Blue","J","affirmation","mismatch","gesture","no","ThumbUp","female","speech-gesture","1470","920","safari","30.24","Mac OS","20","female","right","Wed Oct 16 2024 15:18:27 GMT+0200 (Mitteleuropäische Sommerzeit)","3","78","0","1729085660079"
"1341","f","SpeechGestureMatch","../RequiredFiles/videos/NeinDaumenrunter_f.mp4","Ist der Ball in der grünen Box?","Blue","Green","F","negation","match","gesture","no","ThumbDown","female","speech-gesture","1470","920","safari","30.24","Mac OS","20","female","right","Wed Oct 16 2024 15:18:34 GMT+0200 (Mitteleuropäische Sommerzeit)","3","79","0","1729085660079"
"849","f","SpeechGestureMatch","../RequiredFiles/videos/NeinDaumenhoch_f_no_sound.mp4","Ist der Ball in der grünen Box?","Green","Blue","F","affirmation","na","gesture","na","ThumbUp","female","speech-gesture","1470","920","safari","30.24","Mac OS","20","female","right","Wed Oct 16 2024 15:18:40 GMT+0200 (Mitteleuropäische Sommerzeit)","3","80","0","1729085660079"
"1217","f","SpeechGestureMatch","../RequiredFiles/videos/JaDaumenrunter_m_no_sound.mp4","Ist der Ball in der grünen Box?","Blue","Green","F","negation","na","gesture","na","ThumbDown","male","speech-gesture","1470","920","safari","30.24","Mac OS","20","female","right","Wed Oct 16 2024 15:18:47 GMT+0200 (Mitteleuropäische Sommerzeit)","3","81","0","1729085660079"
"4115","f","SpeechGestureMatch","../RequiredFiles/videos/JaDaumenrunter_m.mp4","Ist der Ball in der grünen Box?","Blue","Green","F","negation","mismatch","gesture","yes","ThumbDown","male","speech-gesture","1470","920","safari","30.24","Mac OS","20","female","right","Wed Oct 16 2024 15:18:56 GMT+0200 (Mitteleuropäische Sommerzeit)","3","82","0","1729085660079"
