"rt","response","stim","video","question","box_colour_left","box_colour_right","correct_key","polarity","matching","modality","verbal","gesture","speaker","order","width","height","browser","vsync_rate","os","age","gender","handedness","date","blockNum","trialNum","error","vpNum"
"2063","j","SpeechGestureMatch","../RequiredFiles/videos/NeinKopfJa_m.mp4","Ist der Ball in der blauen Box?","Green","Blue","J","affirmation","mismatch","gesture","no","ThumbUp","male","gesture-speech","1422","800","edge-chromium","60.01","Windows 10","22","male","right","Mon Aug 19 2024 14:59:14 GMT+0200 (Mitteleuropäische Sommerzeit)","1","1","0","1724074893825"
"636","j","SpeechGestureMatch","../RequiredFiles/videos/JaKopfJa_m.mp4","Ist der Ball in der grünen Box?","Blue","Green","J","affirmation","match","gesture","yes","ThumbUp","male","gesture-speech","1422","800","edge-chromium","60.01","Windows 10","22","male","right","Mon Aug 19 2024 14:59:20 GMT+0200 (Mitteleuropäische Sommerzeit)","1","2","0","1724074893825"
"843","j","SpeechGestureMatch","../RequiredFiles/videos/NeinKopfNein_f.mp4","Ist der Ball in der blauen Box?","Blue","Green","J","negation","match","gesture","no","ThumbDown","female","gesture-speech","1422","800","edge-chromium","60.01","Windows 10","22","male","right","Mon Aug 19 2024 14:59:26 GMT+0200 (Mitteleuropäische Sommerzeit)","1","3","0","1724074893825"
"685","f","SpeechGestureMatch","../RequiredFiles/videos/NeinKopfNein_m.mp4","Ist der Ball in der grünen Box?","Blue","Green","F","negation","match","gesture","no","ThumbDown","male","gesture-speech","1422","800","edge-chromium","60.01","Windows 10","22","male","right","Mon Aug 19 2024 14:59:33 GMT+0200 (Mitteleuropäische Sommerzeit)","1","4","0","1724074893825"
"893","f","SpeechGestureMatch","../RequiredFiles/videos/JaKopfNein_m.mp4","Ist der Ball in der grünen Box?","Green","Blue","J","negation","mismatch","gesture","yes","ThumbDown","male","gesture-speech","1422","800","edge-chromium","60.01","Windows 10","22","male","right","Mon Aug 19 2024 14:59:39 GMT+0200 (Mitteleuropäische Sommerzeit)","1","5","1","1724074893825"
"794","f","SpeechGestureMatch","../RequiredFiles/videos/NeinKopfJa_m.mp4","Ist der Ball in der grünen Box?","Green","Blue","F","affirmation","mismatch","gesture","no","ThumbUp","male","gesture-speech","1422","800","edge-chromium","60.01","Windows 10","22","male","right","Mon Aug 19 2024 14:59:45 GMT+0200 (Mitteleuropäische Sommerzeit)","1","6","0","1724074893825"
"718","j","SpeechGestureMatch","../RequiredFiles/videos/NeinKopfJa_f.mp4","Ist der Ball in der blauen Box?","Green","Blue","J","affirmation","mismatch","gesture","no","ThumbUp","female","gesture-speech","1422","800","edge-chromium","60.01","Windows 10","22","male","right","Mon Aug 19 2024 14:59:52 GMT+0200 (Mitteleuropäische Sommerzeit)","1","7","0","1724074893825"
"620","f","SpeechGestureMatch","../RequiredFiles/videos/JaKopfJa_f.mp4","Ist der Ball in der blauen Box?","Blue","Green","F","affirmation","match","gesture","yes","ThumbUp","female","gesture-speech","1422","800","edge-chromium","60.01","Windows 10","22","male","right","Mon Aug 19 2024 14:59:58 GMT+0200 (Mitteleuropäische Sommerzeit)","1","8","0","1724074893825"
"942","f","SpeechGestureMatch","../RequiredFiles/videos/JaKopfNein_m.mp4","Ist der Ball in der blauen Box?","Green","Blue","F","negation","mismatch","gesture","yes","ThumbDown","male","gesture-speech","1422","800","edge-chromium","60.01","Windows 10","22","male","right","Mon Aug 19 2024 15:00:04 GMT+0200 (Mitteleuropäische Sommerzeit)","1","9","0","1724074893825"
"597","j","SpeechGestureMatch","../RequiredFiles/videos/JaKopfJa_f.mp4","Ist der Ball in der grünen Box?","Blue","Green","J","affirmation","match","gesture","yes","ThumbUp","female","gesture-speech","1422","800","edge-chromium","60.01","Windows 10","22","male","right","Mon Aug 19 2024 15:00:10 GMT+0200 (Mitteleuropäische Sommerzeit)","1","10","0","1724074893825"
"623","f","SpeechGestureMatch","../RequiredFiles/videos/NeinKopfNein_f.mp4","Ist der Ball in der blauen Box?","Green","Blue","F","negation","match","gesture","no","ThumbDown","female","gesture-speech","1422","800","edge-chromium","60.01","Windows 10","22","male","right","Mon Aug 19 2024 15:00:17 GMT+0200 (Mitteleuropäische Sommerzeit)","1","11","0","1724074893825"
"810","f","SpeechGestureMatch","../RequiredFiles/videos/NeinKopfNein_f.mp4","Ist der Ball in der blauen Box?","Green","Blue","F","negation","match","gesture","no","ThumbDown","female","gesture-speech","1422","800","edge-chromium","60.01","Windows 10","22","male","right","Mon Aug 19 2024 15:00:23 GMT+0200 (Mitteleuropäische Sommerzeit)","1","12","0","1724074893825"
"625","f","SpeechGestureMatch","../RequiredFiles/videos/NeinKopfJa_f.mp4","Ist der Ball in der grünen Box?","Green","Blue","F","affirmation","mismatch","gesture","no","ThumbUp","female","gesture-speech","1422","800","edge-chromium","60.01","Windows 10","22","male","right","Mon Aug 19 2024 15:00:29 GMT+0200 (Mitteleuropäische Sommerzeit)","1","13","0","1724074893825"
"638","f","SpeechGestureMatch","../RequiredFiles/videos/JaKopfNein_f.mp4","Ist der Ball in der grünen Box?","Blue","Green","F","negation","mismatch","gesture","yes","ThumbDown","female","gesture-speech","1422","800","edge-chromium","60.01","Windows 10","22","male","right","Mon Aug 19 2024 15:00:35 GMT+0200 (Mitteleuropäische Sommerzeit)","1","14","0","1724074893825"
"602","j","SpeechGestureMatch","../RequiredFiles/videos/NeinKopfNein_m.mp4","Ist der Ball in der grünen Box?","Blue","Green","F","negation","match","gesture","no","ThumbDown","male","gesture-speech","1422","800","edge-chromium","60.01","Windows 10","22","male","right","Mon Aug 19 2024 15:00:41 GMT+0200 (Mitteleuropäische Sommerzeit)","1","15","1","1724074893825"
"961","j","SpeechGestureMatch","../RequiredFiles/videos/NeinKopfNein_m.mp4","Ist der Ball in der blauen Box?","Blue","Green","J","negation","match","gesture","no","ThumbDown","male","gesture-speech","1422","800","edge-chromium","60.01","Windows 10","22","male","right","Mon Aug 19 2024 15:00:48 GMT+0200 (Mitteleuropäische Sommerzeit)","1","16","0","1724074893825"
"829","f","SpeechGestureMatch","../RequiredFiles/videos/JaKopfNein_f.mp4","Ist der Ball in der blauen Box?","Green","Blue","F","negation","mismatch","gesture","yes","ThumbDown","female","gesture-speech","1422","800","edge-chromium","60.01","Windows 10","22","male","right","Mon Aug 19 2024 15:00:54 GMT+0200 (Mitteleuropäische Sommerzeit)","1","17","0","1724074893825"
"664","j","SpeechGestureMatch","../RequiredFiles/videos/JaKopfJa_f.mp4","Ist der Ball in der grünen Box?","Blue","Green","J","affirmation","match","gesture","yes","ThumbUp","female","gesture-speech","1422","800","edge-chromium","60.01","Windows 10","22","male","right","Mon Aug 19 2024 15:01:01 GMT+0200 (Mitteleuropäische Sommerzeit)","1","18","0","1724074893825"
"680","f","SpeechGestureMatch","../RequiredFiles/videos/NeinKopfJa_f.mp4","Ist der Ball in der grünen Box?","Blue","Green","J","affirmation","mismatch","gesture","no","ThumbUp","female","gesture-speech","1422","800","edge-chromium","60.01","Windows 10","22","male","right","Mon Aug 19 2024 15:01:07 GMT+0200 (Mitteleuropäische Sommerzeit)","1","19","1","1724074893825"
"725","j","SpeechGestureMatch","../RequiredFiles/videos/NeinKopfJa_f.mp4","Ist der Ball in der grünen Box?","Green","Blue","F","affirmation","mismatch","gesture","no","ThumbUp","female","gesture-speech","1422","800","edge-chromium","60.01","Windows 10","22","male","right","Mon Aug 19 2024 15:01:13 GMT+0200 (Mitteleuropäische Sommerzeit)","1","20","1","1724074893825"
"627","f","SpeechGestureMatch","../RequiredFiles/videos/NeinKopfNein_m.mp4","Ist der Ball in der blauen Box?","Green","Blue","F","negation","match","gesture","no","ThumbDown","male","gesture-speech","1422","800","edge-chromium","60.01","Windows 10","22","male","right","Mon Aug 19 2024 15:01:19 GMT+0200 (Mitteleuropäische Sommerzeit)","1","21","0","1724074893825"
"655","j","SpeechGestureMatch","../RequiredFiles/videos/JaKopfJa_m.mp4","Ist der Ball in der grünen Box?","Blue","Green","J","affirmation","match","gesture","yes","ThumbUp","male","gesture-speech","1422","800","edge-chromium","60.01","Windows 10","22","male","right","Mon Aug 19 2024 15:01:25 GMT+0200 (Mitteleuropäische Sommerzeit)","1","22","0","1724074893825"
"633","f","SpeechGestureMatch","../RequiredFiles/videos/NeinKopfNein_f.mp4","Ist der Ball in der grünen Box?","Blue","Green","F","negation","match","gesture","no","ThumbDown","female","gesture-speech","1422","800","edge-chromium","60.01","Windows 10","22","male","right","Mon Aug 19 2024 15:01:32 GMT+0200 (Mitteleuropäische Sommerzeit)","1","23","0","1724074893825"
"631","j","SpeechGestureMatch","../RequiredFiles/videos/JaKopfJa_f.mp4","Ist der Ball in der blauen Box?","Green","Blue","J","affirmation","match","gesture","yes","ThumbUp","female","gesture-speech","1422","800","edge-chromium","60.01","Windows 10","22","male","right","Mon Aug 19 2024 15:01:38 GMT+0200 (Mitteleuropäische Sommerzeit)","1","24","0","1724074893825"
"692","j","SpeechGestureMatch","../RequiredFiles/videos/JaKopfNein_m.mp4","Ist der Ball in der blauen Box?","Blue","Green","J","negation","mismatch","gesture","yes","ThumbDown","male","gesture-speech","1422","800","edge-chromium","60.01","Windows 10","22","male","right","Mon Aug 19 2024 15:01:44 GMT+0200 (Mitteleuropäische Sommerzeit)","1","25","0","1724074893825"
"547","f","SpeechGestureMatch","../RequiredFiles/videos/NeinKopfNein_m.mp4","Ist der Ball in der blauen Box?","Green","Blue","F","negation","match","gesture","no","ThumbDown","male","gesture-speech","1422","800","edge-chromium","60.01","Windows 10","22","male","right","Mon Aug 19 2024 15:01:50 GMT+0200 (Mitteleuropäische Sommerzeit)","1","26","0","1724074893825"
"608","f","SpeechGestureMatch","../RequiredFiles/videos/NeinKopfJa_m.mp4","Ist der Ball in der grünen Box?","Green","Blue","F","affirmation","mismatch","gesture","no","ThumbUp","male","gesture-speech","1422","800","edge-chromium","60.01","Windows 10","22","male","right","Mon Aug 19 2024 15:01:56 GMT+0200 (Mitteleuropäische Sommerzeit)","1","27","0","1724074893825"
"632","f","SpeechGestureMatch","../RequiredFiles/videos/NeinKopfNein_f.mp4","Ist der Ball in der grünen Box?","Blue","Green","F","negation","match","gesture","no","ThumbDown","female","gesture-speech","1422","800","edge-chromium","60.01","Windows 10","22","male","right","Mon Aug 19 2024 15:02:02 GMT+0200 (Mitteleuropäische Sommerzeit)","1","28","0","1724074893825"
"564","j","SpeechGestureMatch","../RequiredFiles/videos/NeinKopfJa_m.mp4","Ist der Ball in der grünen Box?","Blue","Green","J","affirmation","mismatch","gesture","no","ThumbUp","male","gesture-speech","1422","800","edge-chromium","60.01","Windows 10","22","male","right","Mon Aug 19 2024 15:02:09 GMT+0200 (Mitteleuropäische Sommerzeit)","1","29","0","1724074893825"
"605","f","SpeechGestureMatch","../RequiredFiles/videos/JaKopfNein_m.mp4","Ist der Ball in der blauen Box?","Green","Blue","F","negation","mismatch","gesture","yes","ThumbDown","male","gesture-speech","1422","800","edge-chromium","60.01","Windows 10","22","male","right","Mon Aug 19 2024 15:02:15 GMT+0200 (Mitteleuropäische Sommerzeit)","1","30","0","1724074893825"
"672","j","SpeechGestureMatch","../RequiredFiles/videos/NeinKopfNein_f.mp4","Ist der Ball in der blauen Box?","Blue","Green","J","negation","match","gesture","no","ThumbDown","female","gesture-speech","1422","800","edge-chromium","60.01","Windows 10","22","male","right","Mon Aug 19 2024 15:02:21 GMT+0200 (Mitteleuropäische Sommerzeit)","1","31","0","1724074893825"
"623","j","SpeechGestureMatch","../RequiredFiles/videos/JaKopfJa_m.mp4","Ist der Ball in der blauen Box?","Green","Blue","J","affirmation","match","gesture","yes","ThumbUp","male","gesture-speech","1422","800","edge-chromium","60.01","Windows 10","22","male","right","Mon Aug 19 2024 15:02:27 GMT+0200 (Mitteleuropäische Sommerzeit)","1","32","0","1724074893825"
"659","j","SpeechGestureMatch","../RequiredFiles/videos/NeinKopfNein_f.mp4","Ist der Ball in der grünen Box?","Green","Blue","J","negation","match","gesture","no","ThumbDown","female","gesture-speech","1422","800","edge-chromium","60.01","Windows 10","22","male","right","Mon Aug 19 2024 15:02:33 GMT+0200 (Mitteleuropäische Sommerzeit)","1","33","0","1724074893825"
"597","j","SpeechGestureMatch","../RequiredFiles/videos/NeinKopfJa_f.mp4","Ist der Ball in der grünen Box?","Blue","Green","J","affirmation","mismatch","gesture","no","ThumbUp","female","gesture-speech","1422","800","edge-chromium","60.01","Windows 10","22","male","right","Mon Aug 19 2024 15:02:39 GMT+0200 (Mitteleuropäische Sommerzeit)","1","34","0","1724074893825"
"581","f","SpeechGestureMatch","../RequiredFiles/videos/NeinKopfJa_m.mp4","Ist der Ball in der blauen Box?","Blue","Green","F","affirmation","mismatch","gesture","no","ThumbUp","male","gesture-speech","1422","800","edge-chromium","60.01","Windows 10","22","male","right","Mon Aug 19 2024 15:02:46 GMT+0200 (Mitteleuropäische Sommerzeit)","1","35","0","1724074893825"
"698","j","SpeechGestureMatch","../RequiredFiles/videos/NeinKopfNein_f.mp4","Ist der Ball in der grünen Box?","Green","Blue","J","negation","match","gesture","no","ThumbDown","female","gesture-speech","1422","800","edge-chromium","60.01","Windows 10","22","male","right","Mon Aug 19 2024 15:02:52 GMT+0200 (Mitteleuropäische Sommerzeit)","1","36","0","1724074893825"
"518","j","SpeechGestureMatch","../RequiredFiles/videos/JaKopfJa_m.mp4","Ist der Ball in der blauen Box?","Green","Blue","J","affirmation","match","gesture","yes","ThumbUp","male","gesture-speech","1422","800","edge-chromium","60.01","Windows 10","22","male","right","Mon Aug 19 2024 15:02:58 GMT+0200 (Mitteleuropäische Sommerzeit)","1","37","0","1724074893825"
"572","j","SpeechGestureMatch","../RequiredFiles/videos/NeinKopfNein_m.mp4","Ist der Ball in der grünen Box?","Green","Blue","J","negation","match","gesture","no","ThumbDown","male","gesture-speech","1422","800","edge-chromium","60.01","Windows 10","22","male","right","Mon Aug 19 2024 15:03:04 GMT+0200 (Mitteleuropäische Sommerzeit)","1","38","0","1724074893825"
"821","f","SpeechGestureMatch","../RequiredFiles/videos/JaKopfNein_m.mp4","Ist der Ball in der grünen Box?","Blue","Green","F","negation","mismatch","gesture","yes","ThumbDown","male","gesture-speech","1422","800","edge-chromium","60.01","Windows 10","22","male","right","Mon Aug 19 2024 15:03:10 GMT+0200 (Mitteleuropäische Sommerzeit)","1","39","0","1724074893825"
"639","j","SpeechGestureMatch","../RequiredFiles/videos/JaKopfNein_f.mp4","Ist der Ball in der blauen Box?","Blue","Green","J","negation","mismatch","gesture","yes","ThumbDown","female","gesture-speech","1422","800","edge-chromium","60.01","Windows 10","22","male","right","Mon Aug 19 2024 15:03:17 GMT+0200 (Mitteleuropäische Sommerzeit)","1","40","0","1724074893825"
"715","f","SpeechGestureMatch","../RequiredFiles/videos/JaKopfJa_m.mp4","Ist der Ball in der grünen Box?","Green","Blue","F","affirmation","match","gesture","yes","ThumbUp","male","gesture-speech","1422","800","edge-chromium","60.01","Windows 10","22","male","right","Mon Aug 19 2024 15:03:23 GMT+0200 (Mitteleuropäische Sommerzeit)","1","41","0","1724074893825"
"665","f","SpeechGestureMatch","../RequiredFiles/videos/JaKopfJa_f.mp4","Ist der Ball in der blauen Box?","Blue","Green","F","affirmation","match","gesture","yes","ThumbUp","female","gesture-speech","1422","800","edge-chromium","60.01","Windows 10","22","male","right","Mon Aug 19 2024 15:03:29 GMT+0200 (Mitteleuropäische Sommerzeit)","1","42","0","1724074893825"
"635","f","SpeechGestureMatch","../RequiredFiles/videos/NeinKopfJa_m.mp4","Ist der Ball in der blauen Box?","Blue","Green","F","affirmation","mismatch","gesture","no","ThumbUp","male","gesture-speech","1422","800","edge-chromium","60.01","Windows 10","22","male","right","Mon Aug 19 2024 15:03:35 GMT+0200 (Mitteleuropäische Sommerzeit)","1","43","0","1724074893825"
"578","j","SpeechGestureMatch","../RequiredFiles/videos/NeinKopfNein_m.mp4","Ist der Ball in der blauen Box?","Blue","Green","J","negation","match","gesture","no","ThumbDown","male","gesture-speech","1422","800","edge-chromium","60.01","Windows 10","22","male","right","Mon Aug 19 2024 15:03:41 GMT+0200 (Mitteleuropäische Sommerzeit)","1","44","0","1724074893825"
"541","f","SpeechGestureMatch","../RequiredFiles/videos/NeinKopfJa_f.mp4","Ist der Ball in der blauen Box?","Blue","Green","F","affirmation","mismatch","gesture","no","ThumbUp","female","gesture-speech","1422","800","edge-chromium","60.01","Windows 10","22","male","right","Mon Aug 19 2024 15:03:47 GMT+0200 (Mitteleuropäische Sommerzeit)","1","45","0","1724074893825"
"649","f","SpeechGestureMatch","../RequiredFiles/videos/JaKopfNein_f.mp4","Ist der Ball in der blauen Box?","Green","Blue","F","negation","mismatch","gesture","yes","ThumbDown","female","gesture-speech","1422","800","edge-chromium","60.01","Windows 10","22","male","right","Mon Aug 19 2024 15:03:54 GMT+0200 (Mitteleuropäische Sommerzeit)","1","46","0","1724074893825"
"546","f","SpeechGestureMatch","../RequiredFiles/videos/JaKopfJa_f.mp4","Ist der Ball in der grünen Box?","Green","Blue","F","affirmation","match","gesture","yes","ThumbUp","female","gesture-speech","1422","800","edge-chromium","60.01","Windows 10","22","male","right","Mon Aug 19 2024 15:04:00 GMT+0200 (Mitteleuropäische Sommerzeit)","1","47","0","1724074893825"
"624","f","SpeechGestureMatch","../RequiredFiles/videos/JaKopfJa_m.mp4","Ist der Ball in der blauen Box?","Blue","Green","F","affirmation","match","gesture","yes","ThumbUp","male","gesture-speech","1422","800","edge-chromium","60.01","Windows 10","22","male","right","Mon Aug 19 2024 15:04:06 GMT+0200 (Mitteleuropäische Sommerzeit)","1","48","0","1724074893825"
"629","j","SpeechGestureMatch","../RequiredFiles/videos/JaKopfNein_f.mp4","Ist der Ball in der blauen Box?","Blue","Green","J","negation","mismatch","gesture","yes","ThumbDown","female","gesture-speech","1422","800","edge-chromium","60.01","Windows 10","22","male","right","Mon Aug 19 2024 15:04:12 GMT+0200 (Mitteleuropäische Sommerzeit)","1","49","0","1724074893825"
"514","f","SpeechGestureMatch","../RequiredFiles/videos/JaKopfJa_m.mp4","Ist der Ball in der blauen Box?","Blue","Green","F","affirmation","match","gesture","yes","ThumbUp","male","gesture-speech","1422","800","edge-chromium","60.01","Windows 10","22","male","right","Mon Aug 19 2024 15:04:18 GMT+0200 (Mitteleuropäische Sommerzeit)","1","50","0","1724074893825"
"638","f","SpeechGestureMatch","../RequiredFiles/videos/JaKopfNein_m.mp4","Ist der Ball in der grünen Box?","Blue","Green","F","negation","mismatch","gesture","yes","ThumbDown","male","gesture-speech","1422","800","edge-chromium","60.01","Windows 10","22","male","right","Mon Aug 19 2024 15:04:24 GMT+0200 (Mitteleuropäische Sommerzeit)","1","51","0","1724074893825"
"638","j","SpeechGestureMatch","../RequiredFiles/videos/JaKopfNein_f.mp4","Ist der Ball in der grünen Box?","Green","Blue","J","negation","mismatch","gesture","yes","ThumbDown","female","gesture-speech","1422","800","edge-chromium","60.01","Windows 10","22","male","right","Mon Aug 19 2024 15:04:30 GMT+0200 (Mitteleuropäische Sommerzeit)","1","52","0","1724074893825"
"634","j","SpeechGestureMatch","../RequiredFiles/videos/NeinKopfNein_m.mp4","Ist der Ball in der grünen Box?","Green","Blue","J","negation","match","gesture","no","ThumbDown","male","gesture-speech","1422","800","edge-chromium","60.01","Windows 10","22","male","right","Mon Aug 19 2024 15:04:37 GMT+0200 (Mitteleuropäische Sommerzeit)","1","53","0","1724074893825"
"615","j","SpeechGestureMatch","../RequiredFiles/videos/JaKopfNein_f.mp4","Ist der Ball in der grünen Box?","Blue","Green","F","negation","mismatch","gesture","yes","ThumbDown","female","gesture-speech","1422","800","edge-chromium","60.01","Windows 10","22","male","right","Mon Aug 19 2024 15:04:43 GMT+0200 (Mitteleuropäische Sommerzeit)","1","54","1","1724074893825"
"746","j","SpeechGestureMatch","../RequiredFiles/videos/NeinKopfJa_m.mp4","Ist der Ball in der blauen Box?","Green","Blue","J","affirmation","mismatch","gesture","no","ThumbUp","male","gesture-speech","1422","800","edge-chromium","60.01","Windows 10","22","male","right","Mon Aug 19 2024 15:04:49 GMT+0200 (Mitteleuropäische Sommerzeit)","1","55","0","1724074893825"
"605","j","SpeechGestureMatch","../RequiredFiles/videos/JaKopfNein_m.mp4","Ist der Ball in der grünen Box?","Green","Blue","J","negation","mismatch","gesture","yes","ThumbDown","male","gesture-speech","1422","800","edge-chromium","60.01","Windows 10","22","male","right","Mon Aug 19 2024 15:04:55 GMT+0200 (Mitteleuropäische Sommerzeit)","1","56","0","1724074893825"
"516","j","SpeechGestureMatch","../RequiredFiles/videos/NeinKopfJa_f.mp4","Ist der Ball in der blauen Box?","Green","Blue","J","affirmation","mismatch","gesture","no","ThumbUp","female","gesture-speech","1422","800","edge-chromium","60.01","Windows 10","22","male","right","Mon Aug 19 2024 15:05:01 GMT+0200 (Mitteleuropäische Sommerzeit)","1","57","0","1724074893825"
"626","j","SpeechGestureMatch","../RequiredFiles/videos/JaKopfNein_m.mp4","Ist der Ball in der blauen Box?","Blue","Green","J","negation","mismatch","gesture","yes","ThumbDown","male","gesture-speech","1422","800","edge-chromium","60.01","Windows 10","22","male","right","Mon Aug 19 2024 15:05:07 GMT+0200 (Mitteleuropäische Sommerzeit)","1","58","0","1724074893825"
"653","j","SpeechGestureMatch","../RequiredFiles/videos/JaKopfNein_f.mp4","Ist der Ball in der grünen Box?","Green","Blue","J","negation","mismatch","gesture","yes","ThumbDown","female","gesture-speech","1422","800","edge-chromium","60.01","Windows 10","22","male","right","Mon Aug 19 2024 15:05:14 GMT+0200 (Mitteleuropäische Sommerzeit)","1","59","0","1724074893825"
"539","j","SpeechGestureMatch","../RequiredFiles/videos/JaKopfJa_f.mp4","Ist der Ball in der blauen Box?","Green","Blue","J","affirmation","match","gesture","yes","ThumbUp","female","gesture-speech","1422","800","edge-chromium","60.01","Windows 10","22","male","right","Mon Aug 19 2024 15:05:20 GMT+0200 (Mitteleuropäische Sommerzeit)","1","60","0","1724074893825"
"556","f","SpeechGestureMatch","../RequiredFiles/videos/JaKopfJa_m.mp4","Ist der Ball in der grünen Box?","Green","Blue","F","affirmation","match","gesture","yes","ThumbUp","male","gesture-speech","1422","800","edge-chromium","60.01","Windows 10","22","male","right","Mon Aug 19 2024 15:05:26 GMT+0200 (Mitteleuropäische Sommerzeit)","1","61","0","1724074893825"
"529","f","SpeechGestureMatch","../RequiredFiles/videos/NeinKopfJa_f.mp4","Ist der Ball in der blauen Box?","Blue","Green","F","affirmation","mismatch","gesture","no","ThumbUp","female","gesture-speech","1422","800","edge-chromium","60.01","Windows 10","22","male","right","Mon Aug 19 2024 15:05:32 GMT+0200 (Mitteleuropäische Sommerzeit)","1","62","0","1724074893825"
"574","f","SpeechGestureMatch","../RequiredFiles/videos/JaKopfJa_f.mp4","Ist der Ball in der grünen Box?","Green","Blue","F","affirmation","match","gesture","yes","ThumbUp","female","gesture-speech","1422","800","edge-chromium","60.01","Windows 10","22","male","right","Mon Aug 19 2024 15:05:38 GMT+0200 (Mitteleuropäische Sommerzeit)","1","63","0","1724074893825"
"596","j","SpeechGestureMatch","../RequiredFiles/videos/NeinKopfJa_m.mp4","Ist der Ball in der grünen Box?","Blue","Green","J","affirmation","mismatch","gesture","no","ThumbUp","male","gesture-speech","1422","800","edge-chromium","60.01","Windows 10","22","male","right","Mon Aug 19 2024 15:05:44 GMT+0200 (Mitteleuropäische Sommerzeit)","1","64","0","1724074893825"
"2146","j","SpeechGestureMatch","../RequiredFiles/videos/JaKopfNein_m.mp4","Ist der Ball in der blauen Box?","Green","Blue","F","negation","mismatch","gesture","yes","ThumbDown","male","gesture-speech","1422","800","edge-chromium","60.01","Windows 10","22","male","right","Mon Aug 19 2024 15:07:39 GMT+0200 (Mitteleuropäische Sommerzeit)","2","1","1","1724074893825"
"621","j","SpeechGestureMatch","../RequiredFiles/videos/JaKopfNein_f.mp4","Ist der Ball in der blauen Box?","Blue","Green","J","negation","mismatch","gesture","yes","ThumbDown","female","gesture-speech","1422","800","edge-chromium","60.01","Windows 10","22","male","right","Mon Aug 19 2024 15:07:45 GMT+0200 (Mitteleuropäische Sommerzeit)","2","2","0","1724074893825"
"595","j","SpeechGestureMatch","../RequiredFiles/videos/NeinKopfJa_m.mp4","Ist der Ball in der blauen Box?","Green","Blue","J","affirmation","mismatch","gesture","no","ThumbUp","male","gesture-speech","1422","800","edge-chromium","60.01","Windows 10","22","male","right","Mon Aug 19 2024 15:07:51 GMT+0200 (Mitteleuropäische Sommerzeit)","2","3","0","1724074893825"
"578","j","SpeechGestureMatch","../RequiredFiles/videos/JaKopfNein_f.mp4","Ist der Ball in der grünen Box?","Green","Blue","J","negation","mismatch","gesture","yes","ThumbDown","female","gesture-speech","1422","800","edge-chromium","60.01","Windows 10","22","male","right","Mon Aug 19 2024 15:07:57 GMT+0200 (Mitteleuropäische Sommerzeit)","2","4","0","1724074893825"
"659","f","SpeechGestureMatch","../RequiredFiles/videos/NeinKopfNein_f.mp4","Ist der Ball in der grünen Box?","Blue","Green","F","negation","match","gesture","no","ThumbDown","female","gesture-speech","1422","800","edge-chromium","60.01","Windows 10","22","male","right","Mon Aug 19 2024 15:08:03 GMT+0200 (Mitteleuropäische Sommerzeit)","2","5","0","1724074893825"
"584","j","SpeechGestureMatch","../RequiredFiles/videos/NeinKopfNein_f.mp4","Ist der Ball in der blauen Box?","Blue","Green","J","negation","match","gesture","no","ThumbDown","female","gesture-speech","1422","800","edge-chromium","60.01","Windows 10","22","male","right","Mon Aug 19 2024 15:08:09 GMT+0200 (Mitteleuropäische Sommerzeit)","2","6","0","1724074893825"
"591","j","SpeechGestureMatch","../RequiredFiles/videos/JaKopfJa_m.mp4","Ist der Ball in der grünen Box?","Blue","Green","J","affirmation","match","gesture","yes","ThumbUp","male","gesture-speech","1422","800","edge-chromium","60.01","Windows 10","22","male","right","Mon Aug 19 2024 15:08:15 GMT+0200 (Mitteleuropäische Sommerzeit)","2","7","0","1724074893825"
"493","f","SpeechGestureMatch","../RequiredFiles/videos/JaKopfNein_f.mp4","Ist der Ball in der grünen Box?","Blue","Green","F","negation","mismatch","gesture","yes","ThumbDown","female","gesture-speech","1422","800","edge-chromium","60.01","Windows 10","22","male","right","Mon Aug 19 2024 15:08:21 GMT+0200 (Mitteleuropäische Sommerzeit)","2","8","0","1724074893825"
"532","j","SpeechGestureMatch","../RequiredFiles/videos/NeinKopfNein_m.mp4","Ist der Ball in der blauen Box?","Blue","Green","J","negation","match","gesture","no","ThumbDown","male","gesture-speech","1422","800","edge-chromium","60.01","Windows 10","22","male","right","Mon Aug 19 2024 15:08:28 GMT+0200 (Mitteleuropäische Sommerzeit)","2","9","0","1724074893825"
"512","f","SpeechGestureMatch","../RequiredFiles/videos/NeinKopfNein_m.mp4","Ist der Ball in der blauen Box?","Green","Blue","F","negation","match","gesture","no","ThumbDown","male","gesture-speech","1422","800","edge-chromium","60.01","Windows 10","22","male","right","Mon Aug 19 2024 15:08:34 GMT+0200 (Mitteleuropäische Sommerzeit)","2","10","0","1724074893825"
"486","f","SpeechGestureMatch","../RequiredFiles/videos/JaKopfJa_m.mp4","Ist der Ball in der blauen Box?","Blue","Green","F","affirmation","match","gesture","yes","ThumbUp","male","gesture-speech","1422","800","edge-chromium","60.01","Windows 10","22","male","right","Mon Aug 19 2024 15:08:40 GMT+0200 (Mitteleuropäische Sommerzeit)","2","11","0","1724074893825"
"555","f","SpeechGestureMatch","../RequiredFiles/videos/JaKopfNein_m.mp4","Ist der Ball in der grünen Box?","Blue","Green","F","negation","mismatch","gesture","yes","ThumbDown","male","gesture-speech","1422","800","edge-chromium","60.01","Windows 10","22","male","right","Mon Aug 19 2024 15:08:46 GMT+0200 (Mitteleuropäische Sommerzeit)","2","12","0","1724074893825"
"547","f","SpeechGestureMatch","../RequiredFiles/videos/JaKopfNein_m.mp4","Ist der Ball in der blauen Box?","Green","Blue","F","negation","mismatch","gesture","yes","ThumbDown","male","gesture-speech","1422","800","edge-chromium","60.01","Windows 10","22","male","right","Mon Aug 19 2024 15:08:52 GMT+0200 (Mitteleuropäische Sommerzeit)","2","13","0","1724074893825"
"638","f","SpeechGestureMatch","../RequiredFiles/videos/NeinKopfNein_f.mp4","Ist der Ball in der grünen Box?","Green","Blue","J","negation","match","gesture","no","ThumbDown","female","gesture-speech","1422","800","edge-chromium","60.01","Windows 10","22","male","right","Mon Aug 19 2024 15:08:58 GMT+0200 (Mitteleuropäische Sommerzeit)","2","14","1","1724074893825"
"448","f","SpeechGestureMatch","../RequiredFiles/videos/JaKopfJa_f.mp4","Ist der Ball in der blauen Box?","Blue","Green","F","affirmation","match","gesture","yes","ThumbUp","female","gesture-speech","1422","800","edge-chromium","60.01","Windows 10","22","male","right","Mon Aug 19 2024 15:09:04 GMT+0200 (Mitteleuropäische Sommerzeit)","2","15","0","1724074893825"
"541","j","SpeechGestureMatch","../RequiredFiles/videos/NeinKopfNein_m.mp4","Ist der Ball in der grünen Box?","Green","Blue","J","negation","match","gesture","no","ThumbDown","male","gesture-speech","1422","800","edge-chromium","60.01","Windows 10","22","male","right","Mon Aug 19 2024 15:09:10 GMT+0200 (Mitteleuropäische Sommerzeit)","2","16","0","1724074893825"
"502","j","SpeechGestureMatch","../RequiredFiles/videos/NeinKopfNein_f.mp4","Ist der Ball in der grünen Box?","Blue","Green","F","negation","match","gesture","no","ThumbDown","female","gesture-speech","1422","800","edge-chromium","60.01","Windows 10","22","male","right","Mon Aug 19 2024 15:09:16 GMT+0200 (Mitteleuropäische Sommerzeit)","2","17","1","1724074893825"
"627","f","SpeechGestureMatch","../RequiredFiles/videos/NeinKopfJa_f.mp4","Ist der Ball in der grünen Box?","Green","Blue","F","affirmation","mismatch","gesture","no","ThumbUp","female","gesture-speech","1422","800","edge-chromium","60.01","Windows 10","22","male","right","Mon Aug 19 2024 15:09:22 GMT+0200 (Mitteleuropäische Sommerzeit)","2","18","0","1724074893825"
"590","f","SpeechGestureMatch","../RequiredFiles/videos/JaKopfNein_f.mp4","Ist der Ball in der blauen Box?","Green","Blue","F","negation","mismatch","gesture","yes","ThumbDown","female","gesture-speech","1422","800","edge-chromium","60.01","Windows 10","22","male","right","Mon Aug 19 2024 15:09:28 GMT+0200 (Mitteleuropäische Sommerzeit)","2","19","0","1724074893825"
"603","f","SpeechGestureMatch","../RequiredFiles/videos/NeinKopfJa_m.mp4","Ist der Ball in der blauen Box?","Blue","Green","F","affirmation","mismatch","gesture","no","ThumbUp","male","gesture-speech","1422","800","edge-chromium","60.01","Windows 10","22","male","right","Mon Aug 19 2024 15:09:35 GMT+0200 (Mitteleuropäische Sommerzeit)","2","20","0","1724074893825"
"595","f","SpeechGestureMatch","../RequiredFiles/videos/NeinKopfJa_f.mp4","Ist der Ball in der blauen Box?","Blue","Green","F","affirmation","mismatch","gesture","no","ThumbUp","female","gesture-speech","1422","800","edge-chromium","60.01","Windows 10","22","male","right","Mon Aug 19 2024 15:09:41 GMT+0200 (Mitteleuropäische Sommerzeit)","2","21","0","1724074893825"
"595","j","SpeechGestureMatch","../RequiredFiles/videos/JaKopfJa_m.mp4","Ist der Ball in der grünen Box?","Blue","Green","J","affirmation","match","gesture","yes","ThumbUp","male","gesture-speech","1422","800","edge-chromium","60.01","Windows 10","22","male","right","Mon Aug 19 2024 15:09:47 GMT+0200 (Mitteleuropäische Sommerzeit)","2","22","0","1724074893825"
"594","j","SpeechGestureMatch","../RequiredFiles/videos/JaKopfNein_f.mp4","Ist der Ball in der grünen Box?","Green","Blue","J","negation","mismatch","gesture","yes","ThumbDown","female","gesture-speech","1422","800","edge-chromium","60.01","Windows 10","22","male","right","Mon Aug 19 2024 15:09:53 GMT+0200 (Mitteleuropäische Sommerzeit)","2","23","0","1724074893825"
"581","f","SpeechGestureMatch","../RequiredFiles/videos/JaKopfJa_f.mp4","Ist der Ball in der grünen Box?","Blue","Green","J","affirmation","match","gesture","yes","ThumbUp","female","gesture-speech","1422","800","edge-chromium","60.01","Windows 10","22","male","right","Mon Aug 19 2024 15:09:59 GMT+0200 (Mitteleuropäische Sommerzeit)","2","24","1","1724074893825"
"711","j","SpeechGestureMatch","../RequiredFiles/videos/NeinKopfJa_f.mp4","Ist der Ball in der blauen Box?","Green","Blue","J","affirmation","mismatch","gesture","no","ThumbUp","female","gesture-speech","1422","800","edge-chromium","60.01","Windows 10","22","male","right","Mon Aug 19 2024 15:10:05 GMT+0200 (Mitteleuropäische Sommerzeit)","2","25","0","1724074893825"
"641","f","SpeechGestureMatch","../RequiredFiles/videos/NeinKopfNein_f.mp4","Ist der Ball in der blauen Box?","Green","Blue","F","negation","match","gesture","no","ThumbDown","female","gesture-speech","1422","800","edge-chromium","60.01","Windows 10","22","male","right","Mon Aug 19 2024 15:10:12 GMT+0200 (Mitteleuropäische Sommerzeit)","2","26","0","1724074893825"
"603","j","SpeechGestureMatch","../RequiredFiles/videos/NeinKopfNein_m.mp4","Ist der Ball in der grünen Box?","Green","Blue","J","negation","match","gesture","no","ThumbDown","male","gesture-speech","1422","800","edge-chromium","60.01","Windows 10","22","male","right","Mon Aug 19 2024 15:10:18 GMT+0200 (Mitteleuropäische Sommerzeit)","2","27","0","1724074893825"
"527","j","SpeechGestureMatch","../RequiredFiles/videos/NeinKopfJa_m.mp4","Ist der Ball in der grünen Box?","Blue","Green","J","affirmation","mismatch","gesture","no","ThumbUp","male","gesture-speech","1422","800","edge-chromium","60.01","Windows 10","22","male","right","Mon Aug 19 2024 15:10:24 GMT+0200 (Mitteleuropäische Sommerzeit)","2","28","0","1724074893825"
"590","f","SpeechGestureMatch","../RequiredFiles/videos/JaKopfJa_m.mp4","Ist der Ball in der blauen Box?","Blue","Green","F","affirmation","match","gesture","yes","ThumbUp","male","gesture-speech","1422","800","edge-chromium","60.01","Windows 10","22","male","right","Mon Aug 19 2024 15:10:30 GMT+0200 (Mitteleuropäische Sommerzeit)","2","29","0","1724074893825"
"634","j","SpeechGestureMatch","../RequiredFiles/videos/JaKopfJa_f.mp4","Ist der Ball in der blauen Box?","Green","Blue","J","affirmation","match","gesture","yes","ThumbUp","female","gesture-speech","1422","800","edge-chromium","60.01","Windows 10","22","male","right","Mon Aug 19 2024 15:10:36 GMT+0200 (Mitteleuropäische Sommerzeit)","2","30","0","1724074893825"
"638","j","SpeechGestureMatch","../RequiredFiles/videos/NeinKopfNein_m.mp4","Ist der Ball in der blauen Box?","Blue","Green","J","negation","match","gesture","no","ThumbDown","male","gesture-speech","1422","800","edge-chromium","60.01","Windows 10","22","male","right","Mon Aug 19 2024 15:10:42 GMT+0200 (Mitteleuropäische Sommerzeit)","2","31","0","1724074893825"
"766","f","SpeechGestureMatch","../RequiredFiles/videos/NeinKopfNein_f.mp4","Ist der Ball in der blauen Box?","Green","Blue","F","negation","match","gesture","no","ThumbDown","female","gesture-speech","1422","800","edge-chromium","60.01","Windows 10","22","male","right","Mon Aug 19 2024 15:10:49 GMT+0200 (Mitteleuropäische Sommerzeit)","2","32","0","1724074893825"
"633","f","SpeechGestureMatch","../RequiredFiles/videos/NeinKopfJa_m.mp4","Ist der Ball in der grünen Box?","Green","Blue","F","affirmation","mismatch","gesture","no","ThumbUp","male","gesture-speech","1422","800","edge-chromium","60.01","Windows 10","22","male","right","Mon Aug 19 2024 15:10:55 GMT+0200 (Mitteleuropäische Sommerzeit)","2","33","0","1724074893825"
"482","f","SpeechGestureMatch","../RequiredFiles/videos/JaKopfJa_f.mp4","Ist der Ball in der grünen Box?","Green","Blue","F","affirmation","match","gesture","yes","ThumbUp","female","gesture-speech","1422","800","edge-chromium","60.01","Windows 10","22","male","right","Mon Aug 19 2024 15:11:01 GMT+0200 (Mitteleuropäische Sommerzeit)","2","34","0","1724074893825"
"634","f","SpeechGestureMatch","../RequiredFiles/videos/NeinKopfNein_m.mp4","Ist der Ball in der blauen Box?","Green","Blue","F","negation","match","gesture","no","ThumbDown","male","gesture-speech","1422","800","edge-chromium","60.01","Windows 10","22","male","right","Mon Aug 19 2024 15:11:07 GMT+0200 (Mitteleuropäische Sommerzeit)","2","35","0","1724074893825"
"573","j","SpeechGestureMatch","../RequiredFiles/videos/JaKopfNein_f.mp4","Ist der Ball in der blauen Box?","Blue","Green","J","negation","mismatch","gesture","yes","ThumbDown","female","gesture-speech","1422","800","edge-chromium","60.01","Windows 10","22","male","right","Mon Aug 19 2024 15:11:13 GMT+0200 (Mitteleuropäische Sommerzeit)","2","36","0","1724074893825"
"694","j","SpeechGestureMatch","../RequiredFiles/videos/NeinKopfJa_f.mp4","Ist der Ball in der grünen Box?","Blue","Green","J","affirmation","mismatch","gesture","no","ThumbUp","female","gesture-speech","1422","800","edge-chromium","60.01","Windows 10","22","male","right","Mon Aug 19 2024 15:11:19 GMT+0200 (Mitteleuropäische Sommerzeit)","2","37","0","1724074893825"
"662","j","SpeechGestureMatch","../RequiredFiles/videos/NeinKopfJa_m.mp4","Ist der Ball in der blauen Box?","Green","Blue","J","affirmation","mismatch","gesture","no","ThumbUp","male","gesture-speech","1422","800","edge-chromium","60.01","Windows 10","22","male","right","Mon Aug 19 2024 15:11:26 GMT+0200 (Mitteleuropäische Sommerzeit)","2","38","0","1724074893825"
"539","j","SpeechGestureMatch","../RequiredFiles/videos/JaKopfNein_f.mp4","Ist der Ball in der blauen Box?","Green","Blue","F","negation","mismatch","gesture","yes","ThumbDown","female","gesture-speech","1422","800","edge-chromium","60.01","Windows 10","22","male","right","Mon Aug 19 2024 15:11:32 GMT+0200 (Mitteleuropäische Sommerzeit)","2","39","1","1724074893825"
"808","f","SpeechGestureMatch","../RequiredFiles/videos/NeinKopfJa_m.mp4","Ist der Ball in der blauen Box?","Blue","Green","F","affirmation","mismatch","gesture","no","ThumbUp","male","gesture-speech","1422","800","edge-chromium","60.01","Windows 10","22","male","right","Mon Aug 19 2024 15:11:38 GMT+0200 (Mitteleuropäische Sommerzeit)","2","40","0","1724074893825"
"574","j","SpeechGestureMatch","../RequiredFiles/videos/JaKopfNein_m.mp4","Ist der Ball in der blauen Box?","Blue","Green","J","negation","mismatch","gesture","yes","ThumbDown","male","gesture-speech","1422","800","edge-chromium","60.01","Windows 10","22","male","right","Mon Aug 19 2024 15:11:44 GMT+0200 (Mitteleuropäische Sommerzeit)","2","41","0","1724074893825"
"609","f","SpeechGestureMatch","../RequiredFiles/videos/JaKopfNein_f.mp4","Ist der Ball in der grünen Box?","Blue","Green","F","negation","mismatch","gesture","yes","ThumbDown","female","gesture-speech","1422","800","edge-chromium","60.01","Windows 10","22","male","right","Mon Aug 19 2024 15:11:50 GMT+0200 (Mitteleuropäische Sommerzeit)","2","42","0","1724074893825"
"627","f","SpeechGestureMatch","../RequiredFiles/videos/NeinKopfJa_f.mp4","Ist der Ball in der blauen Box?","Green","Blue","J","affirmation","mismatch","gesture","no","ThumbUp","female","gesture-speech","1422","800","edge-chromium","60.01","Windows 10","22","male","right","Mon Aug 19 2024 15:11:56 GMT+0200 (Mitteleuropäische Sommerzeit)","2","43","1","1724074893825"
"698","f","SpeechGestureMatch","../RequiredFiles/videos/NeinKopfJa_f.mp4","Ist der Ball in der grünen Box?","Green","Blue","F","affirmation","mismatch","gesture","no","ThumbUp","female","gesture-speech","1422","800","edge-chromium","60.01","Windows 10","22","male","right","Mon Aug 19 2024 15:12:03 GMT+0200 (Mitteleuropäische Sommerzeit)","2","44","0","1724074893825"
"744","f","SpeechGestureMatch","../RequiredFiles/videos/NeinKopfNein_m.mp4","Ist der Ball in der grünen Box?","Blue","Green","F","negation","match","gesture","no","ThumbDown","male","gesture-speech","1422","800","edge-chromium","60.01","Windows 10","22","male","right","Mon Aug 19 2024 15:12:09 GMT+0200 (Mitteleuropäische Sommerzeit)","2","45","0","1724074893825"
"614","j","SpeechGestureMatch","../RequiredFiles/videos/JaKopfNein_m.mp4","Ist der Ball in der grünen Box?","Green","Blue","J","negation","mismatch","gesture","yes","ThumbDown","male","gesture-speech","1422","800","edge-chromium","60.01","Windows 10","22","male","right","Mon Aug 19 2024 15:12:15 GMT+0200 (Mitteleuropäische Sommerzeit)","2","46","0","1724074893825"
"538","f","SpeechGestureMatch","../RequiredFiles/videos/NeinKopfJa_m.mp4","Ist der Ball in der grünen Box?","Blue","Green","J","affirmation","mismatch","gesture","no","ThumbUp","male","gesture-speech","1422","800","edge-chromium","60.01","Windows 10","22","male","right","Mon Aug 19 2024 15:12:21 GMT+0200 (Mitteleuropäische Sommerzeit)","2","47","1","1724074893825"
"636","j","SpeechGestureMatch","../RequiredFiles/videos/JaKopfNein_m.mp4","Ist der Ball in der grünen Box?","Blue","Green","F","negation","mismatch","gesture","yes","ThumbDown","male","gesture-speech","1422","800","edge-chromium","60.01","Windows 10","22","male","right","Mon Aug 19 2024 15:12:27 GMT+0200 (Mitteleuropäische Sommerzeit)","2","48","1","1724074893825"
"693","j","SpeechGestureMatch","../RequiredFiles/videos/NeinKopfNein_f.mp4","Ist der Ball in der blauen Box?","Blue","Green","J","negation","match","gesture","no","ThumbDown","female","gesture-speech","1422","800","edge-chromium","60.01","Windows 10","22","male","right","Mon Aug 19 2024 15:12:34 GMT+0200 (Mitteleuropäische Sommerzeit)","2","49","0","1724074893825"
"614","f","SpeechGestureMatch","../RequiredFiles/videos/NeinKopfJa_f.mp4","Ist der Ball in der blauen Box?","Blue","Green","F","affirmation","mismatch","gesture","no","ThumbUp","female","gesture-speech","1422","800","edge-chromium","60.01","Windows 10","22","male","right","Mon Aug 19 2024 15:12:40 GMT+0200 (Mitteleuropäische Sommerzeit)","2","50","0","1724074893825"
"575","j","SpeechGestureMatch","../RequiredFiles/videos/NeinKopfJa_f.mp4","Ist der Ball in der grünen Box?","Blue","Green","J","affirmation","mismatch","gesture","no","ThumbUp","female","gesture-speech","1422","800","edge-chromium","60.01","Windows 10","22","male","right","Mon Aug 19 2024 15:12:46 GMT+0200 (Mitteleuropäische Sommerzeit)","2","51","0","1724074893825"
"602","f","SpeechGestureMatch","../RequiredFiles/videos/NeinKopfNein_m.mp4","Ist der Ball in der grünen Box?","Blue","Green","F","negation","match","gesture","no","ThumbDown","male","gesture-speech","1422","800","edge-chromium","60.01","Windows 10","22","male","right","Mon Aug 19 2024 15:12:52 GMT+0200 (Mitteleuropäische Sommerzeit)","2","52","0","1724074893825"
"500","j","SpeechGestureMatch","../RequiredFiles/videos/JaKopfJa_f.mp4","Ist der Ball in der grünen Box?","Blue","Green","J","affirmation","match","gesture","yes","ThumbUp","female","gesture-speech","1422","800","edge-chromium","60.01","Windows 10","22","male","right","Mon Aug 19 2024 15:12:58 GMT+0200 (Mitteleuropäische Sommerzeit)","2","53","0","1724074893825"
"702","j","SpeechGestureMatch","../RequiredFiles/videos/JaKopfJa_m.mp4","Ist der Ball in der blauen Box?","Green","Blue","J","affirmation","match","gesture","yes","ThumbUp","male","gesture-speech","1422","800","edge-chromium","60.01","Windows 10","22","male","right","Mon Aug 19 2024 15:13:04 GMT+0200 (Mitteleuropäische Sommerzeit)","2","54","0","1724074893825"
"541","f","SpeechGestureMatch","../RequiredFiles/videos/JaKopfJa_f.mp4","Ist der Ball in der blauen Box?","Blue","Green","F","affirmation","match","gesture","yes","ThumbUp","female","gesture-speech","1422","800","edge-chromium","60.01","Windows 10","22","male","right","Mon Aug 19 2024 15:13:10 GMT+0200 (Mitteleuropäische Sommerzeit)","2","55","0","1724074893825"
"609","f","SpeechGestureMatch","../RequiredFiles/videos/JaKopfJa_m.mp4","Ist der Ball in der grünen Box?","Green","Blue","F","affirmation","match","gesture","yes","ThumbUp","male","gesture-speech","1422","800","edge-chromium","60.01","Windows 10","22","male","right","Mon Aug 19 2024 15:13:17 GMT+0200 (Mitteleuropäische Sommerzeit)","2","56","0","1724074893825"
"660","j","SpeechGestureMatch","../RequiredFiles/videos/JaKopfNein_m.mp4","Ist der Ball in der grünen Box?","Green","Blue","J","negation","mismatch","gesture","yes","ThumbDown","male","gesture-speech","1422","800","edge-chromium","60.01","Windows 10","22","male","right","Mon Aug 19 2024 15:13:23 GMT+0200 (Mitteleuropäische Sommerzeit)","2","57","0","1724074893825"
"588","f","SpeechGestureMatch","../RequiredFiles/videos/NeinKopfJa_m.mp4","Ist der Ball in der grünen Box?","Green","Blue","F","affirmation","mismatch","gesture","no","ThumbUp","male","gesture-speech","1422","800","edge-chromium","60.01","Windows 10","22","male","right","Mon Aug 19 2024 15:13:29 GMT+0200 (Mitteleuropäische Sommerzeit)","2","58","0","1724074893825"
"615","f","SpeechGestureMatch","../RequiredFiles/videos/JaKopfJa_m.mp4","Ist der Ball in der grünen Box?","Green","Blue","F","affirmation","match","gesture","yes","ThumbUp","male","gesture-speech","1422","800","edge-chromium","60.01","Windows 10","22","male","right","Mon Aug 19 2024 15:13:35 GMT+0200 (Mitteleuropäische Sommerzeit)","2","59","0","1724074893825"
"526","j","SpeechGestureMatch","../RequiredFiles/videos/JaKopfJa_f.mp4","Ist der Ball in der blauen Box?","Green","Blue","J","affirmation","match","gesture","yes","ThumbUp","female","gesture-speech","1422","800","edge-chromium","60.01","Windows 10","22","male","right","Mon Aug 19 2024 15:13:41 GMT+0200 (Mitteleuropäische Sommerzeit)","2","60","0","1724074893825"
"632","j","SpeechGestureMatch","../RequiredFiles/videos/NeinKopfNein_f.mp4","Ist der Ball in der grünen Box?","Green","Blue","J","negation","match","gesture","no","ThumbDown","female","gesture-speech","1422","800","edge-chromium","60.01","Windows 10","22","male","right","Mon Aug 19 2024 15:13:47 GMT+0200 (Mitteleuropäische Sommerzeit)","2","61","0","1724074893825"
"594","j","SpeechGestureMatch","../RequiredFiles/videos/JaKopfNein_m.mp4","Ist der Ball in der blauen Box?","Blue","Green","J","negation","mismatch","gesture","yes","ThumbDown","male","gesture-speech","1422","800","edge-chromium","60.01","Windows 10","22","male","right","Mon Aug 19 2024 15:13:53 GMT+0200 (Mitteleuropäische Sommerzeit)","2","62","0","1724074893825"
"640","j","SpeechGestureMatch","../RequiredFiles/videos/JaKopfJa_m.mp4","Ist der Ball in der blauen Box?","Green","Blue","J","affirmation","match","gesture","yes","ThumbUp","male","gesture-speech","1422","800","edge-chromium","60.01","Windows 10","22","male","right","Mon Aug 19 2024 15:14:00 GMT+0200 (Mitteleuropäische Sommerzeit)","2","63","0","1724074893825"
"607","f","SpeechGestureMatch","../RequiredFiles/videos/JaKopfJa_f.mp4","Ist der Ball in der grünen Box?","Green","Blue","F","affirmation","match","gesture","yes","ThumbUp","female","gesture-speech","1422","800","edge-chromium","60.01","Windows 10","22","male","right","Mon Aug 19 2024 15:14:06 GMT+0200 (Mitteleuropäische Sommerzeit)","2","64","0","1724074893825"
"2003","f","SpeechGestureMatch","../RequiredFiles/videos/NeinKopfJa_m.mp4","Ist der Ball in der grünen Box?","Blue","Green","F","negation","mismatch","speech","no","ThumbUp","male","gesture-speech","1422","800","edge-chromium","60.01","Windows 10","22","male","right","Mon Aug 19 2024 15:22:47 GMT+0200 (Mitteleuropäische Sommerzeit)","3","1","0","1724074893825"
"607","j","SpeechGestureMatch","../RequiredFiles/videos/JaKopfJa_f.mp4","Ist der Ball in der blauen Box?","Green","Blue","J","affirmation","match","speech","yes","ThumbUp","female","gesture-speech","1422","800","edge-chromium","60.01","Windows 10","22","male","right","Mon Aug 19 2024 15:22:53 GMT+0200 (Mitteleuropäische Sommerzeit)","3","2","0","1724074893825"
"577","j","SpeechGestureMatch","../RequiredFiles/videos/JaKopfJa_f.mp4","Ist der Ball in der grünen Box?","Blue","Green","J","affirmation","match","speech","yes","ThumbUp","female","gesture-speech","1422","800","edge-chromium","60.01","Windows 10","22","male","right","Mon Aug 19 2024 15:22:59 GMT+0200 (Mitteleuropäische Sommerzeit)","3","3","0","1724074893825"
"696","f","SpeechGestureMatch","../RequiredFiles/videos/NeinKopfNein_f.mp4","Ist der Ball in der blauen Box?","Green","Blue","F","negation","match","speech","no","ThumbDown","female","gesture-speech","1422","800","edge-chromium","60.01","Windows 10","22","male","right","Mon Aug 19 2024 15:23:05 GMT+0200 (Mitteleuropäische Sommerzeit)","3","4","0","1724074893825"
"831","f","SpeechGestureMatch","../RequiredFiles/videos/JaKopfNein_m.mp4","Ist der Ball in der blauen Box?","Blue","Green","F","affirmation","mismatch","speech","yes","ThumbDown","male","gesture-speech","1422","800","edge-chromium","60.01","Windows 10","22","male","right","Mon Aug 19 2024 15:23:12 GMT+0200 (Mitteleuropäische Sommerzeit)","3","5","0","1724074893825"
"624","j","SpeechGestureMatch","../RequiredFiles/videos/JaKopfJa_f.mp4","Ist der Ball in der blauen Box?","Green","Blue","J","affirmation","match","speech","yes","ThumbUp","female","gesture-speech","1422","800","edge-chromium","60.01","Windows 10","22","male","right","Mon Aug 19 2024 15:23:18 GMT+0200 (Mitteleuropäische Sommerzeit)","3","6","0","1724074893825"
"643","j","SpeechGestureMatch","../RequiredFiles/videos/JaKopfJa_m.mp4","Ist der Ball in der grünen Box?","Blue","Green","J","affirmation","match","speech","yes","ThumbUp","male","gesture-speech","1422","800","edge-chromium","60.01","Windows 10","22","male","right","Mon Aug 19 2024 15:23:24 GMT+0200 (Mitteleuropäische Sommerzeit)","3","7","0","1724074893825"
"738","f","SpeechGestureMatch","../RequiredFiles/videos/NeinKopfJa_m.mp4","Ist der Ball in der grünen Box?","Blue","Green","F","negation","mismatch","speech","no","ThumbUp","male","gesture-speech","1422","800","edge-chromium","60.01","Windows 10","22","male","right","Mon Aug 19 2024 15:23:30 GMT+0200 (Mitteleuropäische Sommerzeit)","3","8","0","1724074893825"
"667","f","SpeechGestureMatch","../RequiredFiles/videos/NeinKopfNein_m.mp4","Ist der Ball in der grünen Box?","Blue","Green","F","negation","match","speech","no","ThumbDown","male","gesture-speech","1422","800","edge-chromium","60.01","Windows 10","22","male","right","Mon Aug 19 2024 15:23:36 GMT+0200 (Mitteleuropäische Sommerzeit)","3","9","0","1724074893825"
"766","f","SpeechGestureMatch","../RequiredFiles/videos/NeinKopfNein_f.mp4","Ist der Ball in der grünen Box?","Blue","Green","F","negation","match","speech","no","ThumbDown","female","gesture-speech","1422","800","edge-chromium","60.01","Windows 10","22","male","right","Mon Aug 19 2024 15:23:43 GMT+0200 (Mitteleuropäische Sommerzeit)","3","10","0","1724074893825"
"730","j","SpeechGestureMatch","../RequiredFiles/videos/NeinKopfJa_m.mp4","Ist der Ball in der grünen Box?","Green","Blue","J","negation","mismatch","speech","no","ThumbUp","male","gesture-speech","1422","800","edge-chromium","60.01","Windows 10","22","male","right","Mon Aug 19 2024 15:23:49 GMT+0200 (Mitteleuropäische Sommerzeit)","3","11","0","1724074893825"
"634","f","SpeechGestureMatch","../RequiredFiles/videos/JaKopfNein_m.mp4","Ist der Ball in der blauen Box?","Green","Blue","J","affirmation","mismatch","speech","yes","ThumbDown","male","gesture-speech","1422","800","edge-chromium","60.01","Windows 10","22","male","right","Mon Aug 19 2024 15:23:55 GMT+0200 (Mitteleuropäische Sommerzeit)","3","12","1","1724074893825"
"618","f","SpeechGestureMatch","../RequiredFiles/videos/NeinKopfJa_f.mp4","Ist der Ball in der grünen Box?","Green","Blue","J","negation","mismatch","speech","no","ThumbUp","female","gesture-speech","1422","800","edge-chromium","60.01","Windows 10","22","male","right","Mon Aug 19 2024 15:24:01 GMT+0200 (Mitteleuropäische Sommerzeit)","3","13","1","1724074893825"
"749","j","SpeechGestureMatch","../RequiredFiles/videos/JaKopfNein_m.mp4","Ist der Ball in der grünen Box?","Blue","Green","J","affirmation","mismatch","speech","yes","ThumbDown","male","gesture-speech","1422","800","edge-chromium","60.01","Windows 10","22","male","right","Mon Aug 19 2024 15:24:08 GMT+0200 (Mitteleuropäische Sommerzeit)","3","14","0","1724074893825"
"577","f","SpeechGestureMatch","../RequiredFiles/videos/JaKopfJa_m.mp4","Ist der Ball in der grünen Box?","Green","Blue","F","affirmation","match","speech","yes","ThumbUp","male","gesture-speech","1422","800","edge-chromium","60.01","Windows 10","22","male","right","Mon Aug 19 2024 15:24:14 GMT+0200 (Mitteleuropäische Sommerzeit)","3","15","0","1724074893825"
"659","f","SpeechGestureMatch","../RequiredFiles/videos/JaKopfJa_m.mp4","Ist der Ball in der blauen Box?","Blue","Green","F","affirmation","match","speech","yes","ThumbUp","male","gesture-speech","1422","800","edge-chromium","60.01","Windows 10","22","male","right","Mon Aug 19 2024 15:24:20 GMT+0200 (Mitteleuropäische Sommerzeit)","3","16","0","1724074893825"
"719","j","SpeechGestureMatch","../RequiredFiles/videos/NeinKopfJa_m.mp4","Ist der Ball in der grünen Box?","Green","Blue","J","negation","mismatch","speech","no","ThumbUp","male","gesture-speech","1422","800","edge-chromium","60.01","Windows 10","22","male","right","Mon Aug 19 2024 15:24:26 GMT+0200 (Mitteleuropäische Sommerzeit)","3","17","0","1724074893825"
"607","f","SpeechGestureMatch","../RequiredFiles/videos/JaKopfNein_f.mp4","Ist der Ball in der blauen Box?","Green","Blue","J","affirmation","mismatch","speech","yes","ThumbDown","female","gesture-speech","1422","800","edge-chromium","60.01","Windows 10","22","male","right","Mon Aug 19 2024 15:24:32 GMT+0200 (Mitteleuropäische Sommerzeit)","3","18","1","1724074893825"
"884","j","SpeechGestureMatch","../RequiredFiles/videos/NeinKopfNein_f.mp4","Ist der Ball in der grünen Box?","Green","Blue","J","negation","match","speech","no","ThumbDown","female","gesture-speech","1422","800","edge-chromium","60.01","Windows 10","22","male","right","Mon Aug 19 2024 15:24:39 GMT+0200 (Mitteleuropäische Sommerzeit)","3","19","0","1724074893825"
"695","j","SpeechGestureMatch","../RequiredFiles/videos/NeinKopfNein_f.mp4","Ist der Ball in der blauen Box?","Blue","Green","J","negation","match","speech","no","ThumbDown","female","gesture-speech","1422","800","edge-chromium","60.01","Windows 10","22","male","right","Mon Aug 19 2024 15:24:45 GMT+0200 (Mitteleuropäische Sommerzeit)","3","20","0","1724074893825"
"578","j","SpeechGestureMatch","../RequiredFiles/videos/NeinKopfNein_m.mp4","Ist der Ball in der grünen Box?","Green","Blue","J","negation","match","speech","no","ThumbDown","male","gesture-speech","1422","800","edge-chromium","60.01","Windows 10","22","male","right","Mon Aug 19 2024 15:24:51 GMT+0200 (Mitteleuropäische Sommerzeit)","3","21","0","1724074893825"
"611","j","SpeechGestureMatch","../RequiredFiles/videos/JaKopfJa_m.mp4","Ist der Ball in der blauen Box?","Green","Blue","J","affirmation","match","speech","yes","ThumbUp","male","gesture-speech","1422","800","edge-chromium","60.01","Windows 10","22","male","right","Mon Aug 19 2024 15:24:57 GMT+0200 (Mitteleuropäische Sommerzeit)","3","22","0","1724074893825"
"837","f","SpeechGestureMatch","../RequiredFiles/videos/JaKopfJa_f.mp4","Ist der Ball in der grünen Box?","Green","Blue","F","affirmation","match","speech","yes","ThumbUp","female","gesture-speech","1422","800","edge-chromium","60.01","Windows 10","22","male","right","Mon Aug 19 2024 15:25:04 GMT+0200 (Mitteleuropäische Sommerzeit)","3","23","0","1724074893825"
"653","j","SpeechGestureMatch","../RequiredFiles/videos/NeinKopfNein_m.mp4","Ist der Ball in der blauen Box?","Blue","Green","J","negation","match","speech","no","ThumbDown","male","gesture-speech","1422","800","edge-chromium","60.01","Windows 10","22","male","right","Mon Aug 19 2024 15:25:10 GMT+0200 (Mitteleuropäische Sommerzeit)","3","24","0","1724074893825"
"701","j","SpeechGestureMatch","../RequiredFiles/videos/NeinKopfNein_m.mp4","Ist der Ball in der blauen Box?","Blue","Green","J","negation","match","speech","no","ThumbDown","male","gesture-speech","1422","800","edge-chromium","60.01","Windows 10","22","male","right","Mon Aug 19 2024 15:25:16 GMT+0200 (Mitteleuropäische Sommerzeit)","3","25","0","1724074893825"
"638","f","SpeechGestureMatch","../RequiredFiles/videos/JaKopfNein_f.mp4","Ist der Ball in der grünen Box?","Blue","Green","J","affirmation","mismatch","speech","yes","ThumbDown","female","gesture-speech","1422","800","edge-chromium","60.01","Windows 10","22","male","right","Mon Aug 19 2024 15:25:22 GMT+0200 (Mitteleuropäische Sommerzeit)","3","26","1","1724074893825"
"930","f","SpeechGestureMatch","../RequiredFiles/videos/NeinKopfNein_m.mp4","Ist der Ball in der grünen Box?","Blue","Green","F","negation","match","speech","no","ThumbDown","male","gesture-speech","1422","800","edge-chromium","60.01","Windows 10","22","male","right","Mon Aug 19 2024 15:25:29 GMT+0200 (Mitteleuropäische Sommerzeit)","3","27","0","1724074893825"
"671","f","SpeechGestureMatch","../RequiredFiles/videos/NeinKopfNein_m.mp4","Ist der Ball in der blauen Box?","Green","Blue","F","negation","match","speech","no","ThumbDown","male","gesture-speech","1422","800","edge-chromium","60.01","Windows 10","22","male","right","Mon Aug 19 2024 15:25:35 GMT+0200 (Mitteleuropäische Sommerzeit)","3","28","0","1724074893825"
"738","f","SpeechGestureMatch","../RequiredFiles/videos/NeinKopfNein_f.mp4","Ist der Ball in der blauen Box?","Green","Blue","F","negation","match","speech","no","ThumbDown","female","gesture-speech","1422","800","edge-chromium","60.01","Windows 10","22","male","right","Mon Aug 19 2024 15:25:41 GMT+0200 (Mitteleuropäische Sommerzeit)","3","29","0","1724074893825"
"633","f","SpeechGestureMatch","../RequiredFiles/videos/NeinKopfJa_m.mp4","Ist der Ball in der blauen Box?","Blue","Green","J","negation","mismatch","speech","no","ThumbUp","male","gesture-speech","1422","800","edge-chromium","60.01","Windows 10","22","male","right","Mon Aug 19 2024 15:25:47 GMT+0200 (Mitteleuropäische Sommerzeit)","3","30","1","1724074893825"
"548","j","SpeechGestureMatch","../RequiredFiles/videos/NeinKopfJa_m.mp4","Ist der Ball in der blauen Box?","Green","Blue","F","negation","mismatch","speech","no","ThumbUp","male","gesture-speech","1422","800","edge-chromium","60.01","Windows 10","22","male","right","Mon Aug 19 2024 15:25:54 GMT+0200 (Mitteleuropäische Sommerzeit)","3","31","1","1724074893825"
"714","j","SpeechGestureMatch","../RequiredFiles/videos/NeinKopfNein_f.mp4","Ist der Ball in der grünen Box?","Green","Blue","J","negation","match","speech","no","ThumbDown","female","gesture-speech","1422","800","edge-chromium","60.01","Windows 10","22","male","right","Mon Aug 19 2024 15:26:00 GMT+0200 (Mitteleuropäische Sommerzeit)","3","32","0","1724074893825"
"857","f","SpeechGestureMatch","../RequiredFiles/videos/JaKopfNein_f.mp4","Ist der Ball in der blauen Box?","Blue","Green","F","affirmation","mismatch","speech","yes","ThumbDown","female","gesture-speech","1422","800","edge-chromium","60.01","Windows 10","22","male","right","Mon Aug 19 2024 15:26:06 GMT+0200 (Mitteleuropäische Sommerzeit)","3","33","0","1724074893825"
"788","j","SpeechGestureMatch","../RequiredFiles/videos/JaKopfNein_m.mp4","Ist der Ball in der blauen Box?","Green","Blue","J","affirmation","mismatch","speech","yes","ThumbDown","male","gesture-speech","1422","800","edge-chromium","60.01","Windows 10","22","male","right","Mon Aug 19 2024 15:26:13 GMT+0200 (Mitteleuropäische Sommerzeit)","3","34","0","1724074893825"
"656","f","SpeechGestureMatch","../RequiredFiles/videos/JaKopfNein_f.mp4","Ist der Ball in der blauen Box?","Blue","Green","F","affirmation","mismatch","speech","yes","ThumbDown","female","gesture-speech","1422","800","edge-chromium","60.01","Windows 10","22","male","right","Mon Aug 19 2024 15:26:19 GMT+0200 (Mitteleuropäische Sommerzeit)","3","35","0","1724074893825"
"705","f","SpeechGestureMatch","../RequiredFiles/videos/NeinKopfJa_f.mp4","Ist der Ball in der blauen Box?","Green","Blue","F","negation","mismatch","speech","no","ThumbUp","female","gesture-speech","1422","800","edge-chromium","60.01","Windows 10","22","male","right","Mon Aug 19 2024 15:26:25 GMT+0200 (Mitteleuropäische Sommerzeit)","3","36","0","1724074893825"
"759","j","SpeechGestureMatch","../RequiredFiles/videos/NeinKopfJa_f.mp4","Ist der Ball in der blauen Box?","Blue","Green","J","negation","mismatch","speech","no","ThumbUp","female","gesture-speech","1422","800","edge-chromium","60.01","Windows 10","22","male","right","Mon Aug 19 2024 15:26:31 GMT+0200 (Mitteleuropäische Sommerzeit)","3","37","0","1724074893825"
"839","f","SpeechGestureMatch","../RequiredFiles/videos/NeinKopfJa_f.mp4","Ist der Ball in der grünen Box?","Blue","Green","F","negation","mismatch","speech","no","ThumbUp","female","gesture-speech","1422","800","edge-chromium","60.01","Windows 10","22","male","right","Mon Aug 19 2024 15:26:38 GMT+0200 (Mitteleuropäische Sommerzeit)","3","38","0","1724074893825"
"740","f","SpeechGestureMatch","../RequiredFiles/videos/JaKopfJa_f.mp4","Ist der Ball in der grünen Box?","Green","Blue","F","affirmation","match","speech","yes","ThumbUp","female","gesture-speech","1422","800","edge-chromium","60.01","Windows 10","22","male","right","Mon Aug 19 2024 15:26:44 GMT+0200 (Mitteleuropäische Sommerzeit)","3","39","0","1724074893825"
"638","j","SpeechGestureMatch","../RequiredFiles/videos/JaKopfNein_m.mp4","Ist der Ball in der blauen Box?","Blue","Green","F","affirmation","mismatch","speech","yes","ThumbDown","male","gesture-speech","1422","800","edge-chromium","60.01","Windows 10","22","male","right","Mon Aug 19 2024 15:26:50 GMT+0200 (Mitteleuropäische Sommerzeit)","3","40","1","1724074893825"
"530","f","SpeechGestureMatch","../RequiredFiles/videos/NeinKopfJa_f.mp4","Ist der Ball in der grünen Box?","Blue","Green","F","negation","mismatch","speech","no","ThumbUp","female","gesture-speech","1422","800","edge-chromium","60.01","Windows 10","22","male","right","Mon Aug 19 2024 15:26:56 GMT+0200 (Mitteleuropäische Sommerzeit)","3","41","0","1724074893825"
"771","j","SpeechGestureMatch","../RequiredFiles/videos/JaKopfNein_f.mp4","Ist der Ball in der grünen Box?","Blue","Green","J","affirmation","mismatch","speech","yes","ThumbDown","female","gesture-speech","1422","800","edge-chromium","60.01","Windows 10","22","male","right","Mon Aug 19 2024 15:27:03 GMT+0200 (Mitteleuropäische Sommerzeit)","3","42","0","1724074893825"
"714","f","SpeechGestureMatch","../RequiredFiles/videos/JaKopfNein_f.mp4","Ist der Ball in der grünen Box?","Green","Blue","F","affirmation","mismatch","speech","yes","ThumbDown","female","gesture-speech","1422","800","edge-chromium","60.01","Windows 10","22","male","right","Mon Aug 19 2024 15:27:09 GMT+0200 (Mitteleuropäische Sommerzeit)","3","43","0","1724074893825"
"565","f","SpeechGestureMatch","../RequiredFiles/videos/JaKopfJa_f.mp4","Ist der Ball in der blauen Box?","Blue","Green","F","affirmation","match","speech","yes","ThumbUp","female","gesture-speech","1422","800","edge-chromium","60.01","Windows 10","22","male","right","Mon Aug 19 2024 15:27:15 GMT+0200 (Mitteleuropäische Sommerzeit)","3","44","0","1724074893825"
"733","j","SpeechGestureMatch","../RequiredFiles/videos/NeinKopfJa_f.mp4","Ist der Ball in der blauen Box?","Blue","Green","J","negation","mismatch","speech","no","ThumbUp","female","gesture-speech","1422","800","edge-chromium","60.01","Windows 10","22","male","right","Mon Aug 19 2024 15:27:21 GMT+0200 (Mitteleuropäische Sommerzeit)","3","45","0","1724074893825"
"641","f","SpeechGestureMatch","../RequiredFiles/videos/NeinKopfNein_m.mp4","Ist der Ball in der blauen Box?","Green","Blue","F","negation","match","speech","no","ThumbDown","male","gesture-speech","1422","800","edge-chromium","60.01","Windows 10","22","male","right","Mon Aug 19 2024 15:27:27 GMT+0200 (Mitteleuropäische Sommerzeit)","3","46","0","1724074893825"
"619","j","SpeechGestureMatch","../RequiredFiles/videos/JaKopfJa_m.mp4","Ist der Ball in der grünen Box?","Blue","Green","J","affirmation","match","speech","yes","ThumbUp","male","gesture-speech","1422","800","edge-chromium","60.01","Windows 10","22","male","right","Mon Aug 19 2024 15:27:33 GMT+0200 (Mitteleuropäische Sommerzeit)","3","47","0","1724074893825"
"620","j","SpeechGestureMatch","../RequiredFiles/videos/NeinKopfNein_m.mp4","Ist der Ball in der grünen Box?","Green","Blue","J","negation","match","speech","no","ThumbDown","male","gesture-speech","1422","800","edge-chromium","60.01","Windows 10","22","male","right","Mon Aug 19 2024 15:27:40 GMT+0200 (Mitteleuropäische Sommerzeit)","3","48","0","1724074893825"
"633","f","SpeechGestureMatch","../RequiredFiles/videos/JaKopfJa_m.mp4","Ist der Ball in der blauen Box?","Blue","Green","F","affirmation","match","speech","yes","ThumbUp","male","gesture-speech","1422","800","edge-chromium","60.01","Windows 10","22","male","right","Mon Aug 19 2024 15:27:46 GMT+0200 (Mitteleuropäische Sommerzeit)","3","49","0","1724074893825"
"656","j","SpeechGestureMatch","../RequiredFiles/videos/NeinKopfJa_f.mp4","Ist der Ball in der grünen Box?","Green","Blue","J","negation","mismatch","speech","no","ThumbUp","female","gesture-speech","1422","800","edge-chromium","60.01","Windows 10","22","male","right","Mon Aug 19 2024 15:27:52 GMT+0200 (Mitteleuropäische Sommerzeit)","3","50","0","1724074893825"
"726","f","SpeechGestureMatch","../RequiredFiles/videos/JaKopfJa_f.mp4","Ist der Ball in der blauen Box?","Blue","Green","F","affirmation","match","speech","yes","ThumbUp","female","gesture-speech","1422","800","edge-chromium","60.01","Windows 10","22","male","right","Mon Aug 19 2024 15:27:58 GMT+0200 (Mitteleuropäische Sommerzeit)","3","51","0","1724074893825"
"642","j","SpeechGestureMatch","../RequiredFiles/videos/NeinKopfNein_f.mp4","Ist der Ball in der blauen Box?","Blue","Green","J","negation","match","speech","no","ThumbDown","female","gesture-speech","1422","800","edge-chromium","60.01","Windows 10","22","male","right","Mon Aug 19 2024 15:28:04 GMT+0200 (Mitteleuropäische Sommerzeit)","3","52","0","1724074893825"
"778","j","SpeechGestureMatch","../RequiredFiles/videos/NeinKopfJa_m.mp4","Ist der Ball in der blauen Box?","Blue","Green","J","negation","mismatch","speech","no","ThumbUp","male","gesture-speech","1422","800","edge-chromium","60.01","Windows 10","22","male","right","Mon Aug 19 2024 15:28:11 GMT+0200 (Mitteleuropäische Sommerzeit)","3","53","0","1724074893825"
"773","f","SpeechGestureMatch","../RequiredFiles/videos/JaKopfNein_f.mp4","Ist der Ball in der grünen Box?","Green","Blue","F","affirmation","mismatch","speech","yes","ThumbDown","female","gesture-speech","1422","800","edge-chromium","60.01","Windows 10","22","male","right","Mon Aug 19 2024 15:28:17 GMT+0200 (Mitteleuropäische Sommerzeit)","3","54","0","1724074893825"
"717","f","SpeechGestureMatch","../RequiredFiles/videos/JaKopfNein_m.mp4","Ist der Ball in der grünen Box?","Green","Blue","F","affirmation","mismatch","speech","yes","ThumbDown","male","gesture-speech","1422","800","edge-chromium","60.01","Windows 10","22","male","right","Mon Aug 19 2024 15:28:23 GMT+0200 (Mitteleuropäische Sommerzeit)","3","55","0","1724074893825"
"534","j","SpeechGestureMatch","../RequiredFiles/videos/JaKopfJa_f.mp4","Ist der Ball in der grünen Box?","Blue","Green","J","affirmation","match","speech","yes","ThumbUp","female","gesture-speech","1422","800","edge-chromium","60.01","Windows 10","22","male","right","Mon Aug 19 2024 15:28:29 GMT+0200 (Mitteleuropäische Sommerzeit)","3","56","0","1724074893825"
"727","j","SpeechGestureMatch","../RequiredFiles/videos/JaKopfNein_m.mp4","Ist der Ball in der grünen Box?","Blue","Green","J","affirmation","mismatch","speech","yes","ThumbDown","male","gesture-speech","1422","800","edge-chromium","60.01","Windows 10","22","male","right","Mon Aug 19 2024 15:28:36 GMT+0200 (Mitteleuropäische Sommerzeit)","3","57","0","1724074893825"
"782","j","SpeechGestureMatch","../RequiredFiles/videos/JaKopfNein_f.mp4","Ist der Ball in der blauen Box?","Green","Blue","J","affirmation","mismatch","speech","yes","ThumbDown","female","gesture-speech","1422","800","edge-chromium","60.01","Windows 10","22","male","right","Mon Aug 19 2024 15:28:42 GMT+0200 (Mitteleuropäische Sommerzeit)","3","58","0","1724074893825"
"594","f","SpeechGestureMatch","../RequiredFiles/videos/JaKopfJa_m.mp4","Ist der Ball in der grünen Box?","Green","Blue","F","affirmation","match","speech","yes","ThumbUp","male","gesture-speech","1422","800","edge-chromium","60.01","Windows 10","22","male","right","Mon Aug 19 2024 15:28:48 GMT+0200 (Mitteleuropäische Sommerzeit)","3","59","0","1724074893825"
"781","f","SpeechGestureMatch","../RequiredFiles/videos/JaKopfNein_m.mp4","Ist der Ball in der grünen Box?","Green","Blue","F","affirmation","mismatch","speech","yes","ThumbDown","male","gesture-speech","1422","800","edge-chromium","60.01","Windows 10","22","male","right","Mon Aug 19 2024 15:28:54 GMT+0200 (Mitteleuropäische Sommerzeit)","3","60","0","1724074893825"
"796","f","SpeechGestureMatch","../RequiredFiles/videos/NeinKopfNein_f.mp4","Ist der Ball in der grünen Box?","Blue","Green","F","negation","match","speech","no","ThumbDown","female","gesture-speech","1422","800","edge-chromium","60.01","Windows 10","22","male","right","Mon Aug 19 2024 15:29:01 GMT+0200 (Mitteleuropäische Sommerzeit)","3","61","0","1724074893825"
"595","j","SpeechGestureMatch","../RequiredFiles/videos/JaKopfJa_m.mp4","Ist der Ball in der blauen Box?","Green","Blue","J","affirmation","match","speech","yes","ThumbUp","male","gesture-speech","1422","800","edge-chromium","60.01","Windows 10","22","male","right","Mon Aug 19 2024 15:29:07 GMT+0200 (Mitteleuropäische Sommerzeit)","3","62","0","1724074893825"
"709","f","SpeechGestureMatch","../RequiredFiles/videos/NeinKopfJa_m.mp4","Ist der Ball in der blauen Box?","Green","Blue","F","negation","mismatch","speech","no","ThumbUp","male","gesture-speech","1422","800","edge-chromium","60.01","Windows 10","22","male","right","Mon Aug 19 2024 15:29:13 GMT+0200 (Mitteleuropäische Sommerzeit)","3","63","0","1724074893825"
"635","j","SpeechGestureMatch","../RequiredFiles/videos/NeinKopfJa_f.mp4","Ist der Ball in der blauen Box?","Green","Blue","F","negation","mismatch","speech","no","ThumbUp","female","gesture-speech","1422","800","edge-chromium","60.01","Windows 10","22","male","right","Mon Aug 19 2024 15:29:19 GMT+0200 (Mitteleuropäische Sommerzeit)","3","64","1","1724074893825"
"1942","f","SpeechGestureMatch","../RequiredFiles/videos/NeinKopfJa_f.mp4","Ist der Ball in der blauen Box?","Green","Blue","F","negation","mismatch","speech","no","ThumbUp","female","gesture-speech","1422","800","edge-chromium","60.01","Windows 10","22","male","right","Mon Aug 19 2024 15:34:52 GMT+0200 (Mitteleuropäische Sommerzeit)","4","1","0","1724074893825"
"691","j","SpeechGestureMatch","../RequiredFiles/videos/NeinKopfNein_f.mp4","Ist der Ball in der grünen Box?","Green","Blue","J","negation","match","speech","no","ThumbDown","female","gesture-speech","1422","800","edge-chromium","60.01","Windows 10","22","male","right","Mon Aug 19 2024 15:34:58 GMT+0200 (Mitteleuropäische Sommerzeit)","4","2","0","1724074893825"
"564","j","SpeechGestureMatch","../RequiredFiles/videos/JaKopfJa_m.mp4","Ist der Ball in der grünen Box?","Blue","Green","J","affirmation","match","speech","yes","ThumbUp","male","gesture-speech","1422","800","edge-chromium","60.01","Windows 10","22","male","right","Mon Aug 19 2024 15:35:04 GMT+0200 (Mitteleuropäische Sommerzeit)","4","3","0","1724074893825"
"599","f","SpeechGestureMatch","../RequiredFiles/videos/JaKopfNein_f.mp4","Ist der Ball in der grünen Box?","Green","Blue","F","affirmation","mismatch","speech","yes","ThumbDown","female","gesture-speech","1422","800","edge-chromium","60.01","Windows 10","22","male","right","Mon Aug 19 2024 15:35:10 GMT+0200 (Mitteleuropäische Sommerzeit)","4","4","0","1724074893825"
"593","j","SpeechGestureMatch","../RequiredFiles/videos/JaKopfJa_f.mp4","Ist der Ball in der blauen Box?","Green","Blue","J","affirmation","match","speech","yes","ThumbUp","female","gesture-speech","1422","800","edge-chromium","60.01","Windows 10","22","male","right","Mon Aug 19 2024 15:35:16 GMT+0200 (Mitteleuropäische Sommerzeit)","4","5","0","1724074893825"
"503","f","SpeechGestureMatch","../RequiredFiles/videos/NeinKopfNein_m.mp4","Ist der Ball in der blauen Box?","Green","Blue","F","negation","match","speech","no","ThumbDown","male","gesture-speech","1422","800","edge-chromium","60.01","Windows 10","22","male","right","Mon Aug 19 2024 15:35:22 GMT+0200 (Mitteleuropäische Sommerzeit)","4","6","0","1724074893825"
"642","j","SpeechGestureMatch","../RequiredFiles/videos/NeinKopfNein_f.mp4","Ist der Ball in der blauen Box?","Blue","Green","J","negation","match","speech","no","ThumbDown","female","gesture-speech","1422","800","edge-chromium","60.01","Windows 10","22","male","right","Mon Aug 19 2024 15:35:28 GMT+0200 (Mitteleuropäische Sommerzeit)","4","7","0","1724074893825"
"653","f","SpeechGestureMatch","../RequiredFiles/videos/NeinKopfNein_f.mp4","Ist der Ball in der blauen Box?","Green","Blue","F","negation","match","speech","no","ThumbDown","female","gesture-speech","1422","800","edge-chromium","60.01","Windows 10","22","male","right","Mon Aug 19 2024 15:35:35 GMT+0200 (Mitteleuropäische Sommerzeit)","4","8","0","1724074893825"
"603","f","SpeechGestureMatch","../RequiredFiles/videos/JaKopfJa_f.mp4","Ist der Ball in der grünen Box?","Green","Blue","F","affirmation","match","speech","yes","ThumbUp","female","gesture-speech","1422","800","edge-chromium","60.01","Windows 10","22","male","right","Mon Aug 19 2024 15:35:41 GMT+0200 (Mitteleuropäische Sommerzeit)","4","9","0","1724074893825"
"535","j","SpeechGestureMatch","../RequiredFiles/videos/JaKopfJa_f.mp4","Ist der Ball in der grünen Box?","Blue","Green","J","affirmation","match","speech","yes","ThumbUp","female","gesture-speech","1422","800","edge-chromium","60.01","Windows 10","22","male","right","Mon Aug 19 2024 15:35:47 GMT+0200 (Mitteleuropäische Sommerzeit)","4","10","0","1724074893825"
"475","f","SpeechGestureMatch","../RequiredFiles/videos/NeinKopfJa_f.mp4","Ist der Ball in der grünen Box?","Green","Blue","J","negation","mismatch","speech","no","ThumbUp","female","gesture-speech","1422","800","edge-chromium","60.01","Windows 10","22","male","right","Mon Aug 19 2024 15:35:53 GMT+0200 (Mitteleuropäische Sommerzeit)","4","11","1","1724074893825"
"727","j","SpeechGestureMatch","../RequiredFiles/videos/NeinKopfJa_m.mp4","Ist der Ball in der grünen Box?","Green","Blue","J","negation","mismatch","speech","no","ThumbUp","male","gesture-speech","1422","800","edge-chromium","60.01","Windows 10","22","male","right","Mon Aug 19 2024 15:35:59 GMT+0200 (Mitteleuropäische Sommerzeit)","4","12","0","1724074893825"
"590","j","SpeechGestureMatch","../RequiredFiles/videos/JaKopfNein_m.mp4","Ist der Ball in der blauen Box?","Blue","Green","F","affirmation","mismatch","speech","yes","ThumbDown","male","gesture-speech","1422","800","edge-chromium","60.01","Windows 10","22","male","right","Mon Aug 19 2024 15:36:05 GMT+0200 (Mitteleuropäische Sommerzeit)","4","13","1","1724074893825"
"609","f","SpeechGestureMatch","../RequiredFiles/videos/NeinKopfJa_m.mp4","Ist der Ball in der grünen Box?","Blue","Green","F","negation","mismatch","speech","no","ThumbUp","male","gesture-speech","1422","800","edge-chromium","60.01","Windows 10","22","male","right","Mon Aug 19 2024 15:36:11 GMT+0200 (Mitteleuropäische Sommerzeit)","4","14","0","1724074893825"
"1071","f","SpeechGestureMatch","../RequiredFiles/videos/NeinKopfJa_m.mp4","Ist der Ball in der blauen Box?","Green","Blue","F","negation","mismatch","speech","no","ThumbUp","male","gesture-speech","1422","800","edge-chromium","60.01","Windows 10","22","male","right","Mon Aug 19 2024 15:36:18 GMT+0200 (Mitteleuropäische Sommerzeit)","4","15","0","1724074893825"
"748","j","SpeechGestureMatch","../RequiredFiles/videos/JaKopfNein_f.mp4","Ist der Ball in der blauen Box?","Blue","Green","F","affirmation","mismatch","speech","yes","ThumbDown","female","gesture-speech","1422","800","edge-chromium","60.01","Windows 10","22","male","right","Mon Aug 19 2024 15:36:24 GMT+0200 (Mitteleuropäische Sommerzeit)","4","16","1","1724074893825"
"533","f","SpeechGestureMatch","../RequiredFiles/videos/JaKopfNein_f.mp4","Ist der Ball in der grünen Box?","Blue","Green","J","affirmation","mismatch","speech","yes","ThumbDown","female","gesture-speech","1422","800","edge-chromium","60.01","Windows 10","22","male","right","Mon Aug 19 2024 15:36:30 GMT+0200 (Mitteleuropäische Sommerzeit)","4","17","1","1724074893825"
"607","j","SpeechGestureMatch","../RequiredFiles/videos/NeinKopfNein_m.mp4","Ist der Ball in der grünen Box?","Green","Blue","J","negation","match","speech","no","ThumbDown","male","gesture-speech","1422","800","edge-chromium","60.01","Windows 10","22","male","right","Mon Aug 19 2024 15:36:36 GMT+0200 (Mitteleuropäische Sommerzeit)","4","18","0","1724074893825"
"645","j","SpeechGestureMatch","../RequiredFiles/videos/JaKopfJa_m.mp4","Ist der Ball in der grünen Box?","Blue","Green","J","affirmation","match","speech","yes","ThumbUp","male","gesture-speech","1422","800","edge-chromium","60.01","Windows 10","22","male","right","Mon Aug 19 2024 15:36:43 GMT+0200 (Mitteleuropäische Sommerzeit)","4","19","0","1724074893825"
"673","j","SpeechGestureMatch","../RequiredFiles/videos/NeinKopfJa_m.mp4","Ist der Ball in der blauen Box?","Blue","Green","J","negation","mismatch","speech","no","ThumbUp","male","gesture-speech","1422","800","edge-chromium","60.01","Windows 10","22","male","right","Mon Aug 19 2024 15:36:49 GMT+0200 (Mitteleuropäische Sommerzeit)","4","20","0","1724074893825"
"689","f","SpeechGestureMatch","../RequiredFiles/videos/JaKopfNein_m.mp4","Ist der Ball in der blauen Box?","Green","Blue","J","affirmation","mismatch","speech","yes","ThumbDown","male","gesture-speech","1422","800","edge-chromium","60.01","Windows 10","22","male","right","Mon Aug 19 2024 15:36:55 GMT+0200 (Mitteleuropäische Sommerzeit)","4","21","1","1724074893825"
"634","j","SpeechGestureMatch","../RequiredFiles/videos/JaKopfNein_m.mp4","Ist der Ball in der grünen Box?","Green","Blue","F","affirmation","mismatch","speech","yes","ThumbDown","male","gesture-speech","1422","800","edge-chromium","60.01","Windows 10","22","male","right","Mon Aug 19 2024 15:37:01 GMT+0200 (Mitteleuropäische Sommerzeit)","4","22","1","1724074893825"
"745","j","SpeechGestureMatch","../RequiredFiles/videos/NeinKopfJa_f.mp4","Ist der Ball in der blauen Box?","Blue","Green","J","negation","mismatch","speech","no","ThumbUp","female","gesture-speech","1422","800","edge-chromium","60.01","Windows 10","22","male","right","Mon Aug 19 2024 15:37:08 GMT+0200 (Mitteleuropäische Sommerzeit)","4","23","0","1724074893825"
"582","j","SpeechGestureMatch","../RequiredFiles/videos/JaKopfJa_m.mp4","Ist der Ball in der blauen Box?","Green","Blue","J","affirmation","match","speech","yes","ThumbUp","male","gesture-speech","1422","800","edge-chromium","60.01","Windows 10","22","male","right","Mon Aug 19 2024 15:37:14 GMT+0200 (Mitteleuropäische Sommerzeit)","4","24","0","1724074893825"
"674","f","SpeechGestureMatch","../RequiredFiles/videos/NeinKopfNein_m.mp4","Ist der Ball in der grünen Box?","Blue","Green","F","negation","match","speech","no","ThumbDown","male","gesture-speech","1422","800","edge-chromium","60.01","Windows 10","22","male","right","Mon Aug 19 2024 15:37:20 GMT+0200 (Mitteleuropäische Sommerzeit)","4","25","0","1724074893825"
"659","j","SpeechGestureMatch","../RequiredFiles/videos/JaKopfNein_m.mp4","Ist der Ball in der grünen Box?","Green","Blue","F","affirmation","mismatch","speech","yes","ThumbDown","male","gesture-speech","1422","800","edge-chromium","60.01","Windows 10","22","male","right","Mon Aug 19 2024 15:37:26 GMT+0200 (Mitteleuropäische Sommerzeit)","4","26","1","1724074893825"
"836","j","SpeechGestureMatch","../RequiredFiles/videos/NeinKopfNein_f.mp4","Ist der Ball in der grünen Box?","Green","Blue","J","negation","match","speech","no","ThumbDown","female","gesture-speech","1422","800","edge-chromium","60.01","Windows 10","22","male","right","Mon Aug 19 2024 15:37:33 GMT+0200 (Mitteleuropäische Sommerzeit)","4","27","0","1724074893825"
"705","f","SpeechGestureMatch","../RequiredFiles/videos/NeinKopfNein_f.mp4","Ist der Ball in der grünen Box?","Blue","Green","F","negation","match","speech","no","ThumbDown","female","gesture-speech","1422","800","edge-chromium","60.01","Windows 10","22","male","right","Mon Aug 19 2024 15:37:39 GMT+0200 (Mitteleuropäische Sommerzeit)","4","28","0","1724074893825"
"630","f","SpeechGestureMatch","../RequiredFiles/videos/JaKopfJa_m.mp4","Ist der Ball in der blauen Box?","Blue","Green","F","affirmation","match","speech","yes","ThumbUp","male","gesture-speech","1422","800","edge-chromium","60.01","Windows 10","22","male","right","Mon Aug 19 2024 15:37:45 GMT+0200 (Mitteleuropäische Sommerzeit)","4","29","0","1724074893825"
"651","f","SpeechGestureMatch","../RequiredFiles/videos/JaKopfNein_m.mp4","Ist der Ball in der blauen Box?","Blue","Green","F","affirmation","mismatch","speech","yes","ThumbDown","male","gesture-speech","1422","800","edge-chromium","60.01","Windows 10","22","male","right","Mon Aug 19 2024 15:37:51 GMT+0200 (Mitteleuropäische Sommerzeit)","4","30","0","1724074893825"
"730","f","SpeechGestureMatch","../RequiredFiles/videos/NeinKopfJa_m.mp4","Ist der Ball in der grünen Box?","Blue","Green","F","negation","mismatch","speech","no","ThumbUp","male","gesture-speech","1422","800","edge-chromium","60.01","Windows 10","22","male","right","Mon Aug 19 2024 15:37:57 GMT+0200 (Mitteleuropäische Sommerzeit)","4","31","0","1724074893825"
"622","f","SpeechGestureMatch","../RequiredFiles/videos/NeinKopfNein_m.mp4","Ist der Ball in der blauen Box?","Blue","Green","J","negation","match","speech","no","ThumbDown","male","gesture-speech","1422","800","edge-chromium","60.01","Windows 10","22","male","right","Mon Aug 19 2024 15:38:04 GMT+0200 (Mitteleuropäische Sommerzeit)","4","32","1","1724074893825"
"352","j","SpeechGestureMatch","../RequiredFiles/videos/NeinKopfNein_m.mp4","Ist der Ball in der grünen Box?","Blue","Green","F","negation","match","speech","no","ThumbDown","male","gesture-speech","1422","800","edge-chromium","60.01","Windows 10","22","male","right","Mon Aug 19 2024 15:38:10 GMT+0200 (Mitteleuropäische Sommerzeit)","4","33","1","1724074893825"
"638","f","SpeechGestureMatch","../RequiredFiles/videos/JaKopfJa_f.mp4","Ist der Ball in der grünen Box?","Green","Blue","F","affirmation","match","speech","yes","ThumbUp","female","gesture-speech","1422","800","edge-chromium","60.01","Windows 10","22","male","right","Mon Aug 19 2024 15:38:16 GMT+0200 (Mitteleuropäische Sommerzeit)","4","34","0","1724074893825"
"567","j","SpeechGestureMatch","../RequiredFiles/videos/JaKopfNein_f.mp4","Ist der Ball in der blauen Box?","Green","Blue","J","affirmation","mismatch","speech","yes","ThumbDown","female","gesture-speech","1422","800","edge-chromium","60.01","Windows 10","22","male","right","Mon Aug 19 2024 15:38:22 GMT+0200 (Mitteleuropäische Sommerzeit)","4","35","0","1724074893825"
"724","f","SpeechGestureMatch","../RequiredFiles/videos/NeinKopfJa_f.mp4","Ist der Ball in der grünen Box?","Green","Blue","J","negation","mismatch","speech","no","ThumbUp","female","gesture-speech","1422","800","edge-chromium","60.01","Windows 10","22","male","right","Mon Aug 19 2024 15:38:28 GMT+0200 (Mitteleuropäische Sommerzeit)","4","36","1","1724074893825"
"685","f","SpeechGestureMatch","../RequiredFiles/videos/JaKopfNein_f.mp4","Ist der Ball in der blauen Box?","Blue","Green","F","affirmation","mismatch","speech","yes","ThumbDown","female","gesture-speech","1422","800","edge-chromium","60.01","Windows 10","22","male","right","Mon Aug 19 2024 15:38:34 GMT+0200 (Mitteleuropäische Sommerzeit)","4","37","0","1724074893825"
"583","j","SpeechGestureMatch","../RequiredFiles/videos/NeinKopfNein_m.mp4","Ist der Ball in der blauen Box?","Blue","Green","J","negation","match","speech","no","ThumbDown","male","gesture-speech","1422","800","edge-chromium","60.01","Windows 10","22","male","right","Mon Aug 19 2024 15:38:40 GMT+0200 (Mitteleuropäische Sommerzeit)","4","38","0","1724074893825"
"669","f","SpeechGestureMatch","../RequiredFiles/videos/JaKopfNein_f.mp4","Ist der Ball in der grünen Box?","Green","Blue","F","affirmation","mismatch","speech","yes","ThumbDown","female","gesture-speech","1422","800","edge-chromium","60.01","Windows 10","22","male","right","Mon Aug 19 2024 15:38:47 GMT+0200 (Mitteleuropäische Sommerzeit)","4","39","0","1724074893825"
"616","j","SpeechGestureMatch","../RequiredFiles/videos/NeinKopfNein_f.mp4","Ist der Ball in der blauen Box?","Blue","Green","J","negation","match","speech","no","ThumbDown","female","gesture-speech","1422","800","edge-chromium","60.01","Windows 10","22","male","right","Mon Aug 19 2024 15:38:53 GMT+0200 (Mitteleuropäische Sommerzeit)","4","40","0","1724074893825"
"638","j","SpeechGestureMatch","../RequiredFiles/videos/JaKopfJa_m.mp4","Ist der Ball in der blauen Box?","Green","Blue","J","affirmation","match","speech","yes","ThumbUp","male","gesture-speech","1422","800","edge-chromium","60.01","Windows 10","22","male","right","Mon Aug 19 2024 15:38:59 GMT+0200 (Mitteleuropäische Sommerzeit)","4","41","0","1724074893825"
"662","j","SpeechGestureMatch","../RequiredFiles/videos/NeinKopfNein_m.mp4","Ist der Ball in der grünen Box?","Green","Blue","J","negation","match","speech","no","ThumbDown","male","gesture-speech","1422","800","edge-chromium","60.01","Windows 10","22","male","right","Mon Aug 19 2024 15:39:05 GMT+0200 (Mitteleuropäische Sommerzeit)","4","42","0","1724074893825"
"620","f","SpeechGestureMatch","../RequiredFiles/videos/NeinKopfJa_m.mp4","Ist der Ball in der grünen Box?","Green","Blue","J","negation","mismatch","speech","no","ThumbUp","male","gesture-speech","1422","800","edge-chromium","60.01","Windows 10","22","male","right","Mon Aug 19 2024 15:39:11 GMT+0200 (Mitteleuropäische Sommerzeit)","4","43","1","1724074893825"
"980","f","SpeechGestureMatch","../RequiredFiles/videos/NeinKopfNein_f.mp4","Ist der Ball in der blauen Box?","Green","Blue","F","negation","match","speech","no","ThumbDown","female","gesture-speech","1422","800","edge-chromium","60.01","Windows 10","22","male","right","Mon Aug 19 2024 15:39:18 GMT+0200 (Mitteleuropäische Sommerzeit)","4","44","0","1724074893825"
"776","f","SpeechGestureMatch","../RequiredFiles/videos/NeinKopfJa_f.mp4","Ist der Ball in der grünen Box?","Blue","Green","F","negation","mismatch","speech","no","ThumbUp","female","gesture-speech","1422","800","edge-chromium","60.01","Windows 10","22","male","right","Mon Aug 19 2024 15:39:24 GMT+0200 (Mitteleuropäische Sommerzeit)","4","45","0","1724074893825"
"703","j","SpeechGestureMatch","../RequiredFiles/videos/JaKopfJa_m.mp4","Ist der Ball in der grünen Box?","Green","Blue","F","affirmation","match","speech","yes","ThumbUp","male","gesture-speech","1422","800","edge-chromium","60.01","Windows 10","22","male","right","Mon Aug 19 2024 15:39:30 GMT+0200 (Mitteleuropäische Sommerzeit)","4","46","1","1724074893825"
"617","f","SpeechGestureMatch","../RequiredFiles/videos/JaKopfNein_f.mp4","Ist der Ball in der grünen Box?","Blue","Green","J","affirmation","mismatch","speech","yes","ThumbDown","female","gesture-speech","1422","800","edge-chromium","60.01","Windows 10","22","male","right","Mon Aug 19 2024 15:39:37 GMT+0200 (Mitteleuropäische Sommerzeit)","4","47","1","1724074893825"
"673","f","SpeechGestureMatch","../RequiredFiles/videos/NeinKopfNein_f.mp4","Ist der Ball in der grünen Box?","Blue","Green","F","negation","match","speech","no","ThumbDown","female","gesture-speech","1422","800","edge-chromium","60.01","Windows 10","22","male","right","Mon Aug 19 2024 15:39:43 GMT+0200 (Mitteleuropäische Sommerzeit)","4","48","0","1724074893825"
"844","j","SpeechGestureMatch","../RequiredFiles/videos/NeinKopfJa_m.mp4","Ist der Ball in der blauen Box?","Blue","Green","J","negation","mismatch","speech","no","ThumbUp","male","gesture-speech","1422","800","edge-chromium","60.01","Windows 10","22","male","right","Mon Aug 19 2024 15:39:49 GMT+0200 (Mitteleuropäische Sommerzeit)","4","49","0","1724074893825"
"682","j","SpeechGestureMatch","../RequiredFiles/videos/JaKopfJa_f.mp4","Ist der Ball in der grünen Box?","Blue","Green","J","affirmation","match","speech","yes","ThumbUp","female","gesture-speech","1422","800","edge-chromium","60.01","Windows 10","22","male","right","Mon Aug 19 2024 15:39:55 GMT+0200 (Mitteleuropäische Sommerzeit)","4","50","0","1724074893825"
"723","f","SpeechGestureMatch","../RequiredFiles/videos/NeinKopfJa_f.mp4","Ist der Ball in der blauen Box?","Blue","Green","J","negation","mismatch","speech","no","ThumbUp","female","gesture-speech","1422","800","edge-chromium","60.01","Windows 10","22","male","right","Mon Aug 19 2024 15:40:02 GMT+0200 (Mitteleuropäische Sommerzeit)","4","51","1","1724074893825"
"601","f","SpeechGestureMatch","../RequiredFiles/videos/JaKopfJa_m.mp4","Ist der Ball in der grünen Box?","Green","Blue","F","affirmation","match","speech","yes","ThumbUp","male","gesture-speech","1422","800","edge-chromium","60.01","Windows 10","22","male","right","Mon Aug 19 2024 15:40:08 GMT+0200 (Mitteleuropäische Sommerzeit)","4","52","0","1724074893825"
"503","j","SpeechGestureMatch","../RequiredFiles/videos/JaKopfNein_m.mp4","Ist der Ball in der grünen Box?","Blue","Green","J","affirmation","mismatch","speech","yes","ThumbDown","male","gesture-speech","1422","800","edge-chromium","60.01","Windows 10","22","male","right","Mon Aug 19 2024 15:40:14 GMT+0200 (Mitteleuropäische Sommerzeit)","4","53","0","1724074893825"
"613","j","SpeechGestureMatch","../RequiredFiles/videos/JaKopfJa_f.mp4","Ist der Ball in der blauen Box?","Blue","Green","F","affirmation","match","speech","yes","ThumbUp","female","gesture-speech","1422","800","edge-chromium","60.01","Windows 10","22","male","right","Mon Aug 19 2024 15:40:20 GMT+0200 (Mitteleuropäische Sommerzeit)","4","54","1","1724074893825"
"1017","j","SpeechGestureMatch","../RequiredFiles/videos/JaKopfNein_f.mp4","Ist der Ball in der blauen Box?","Green","Blue","J","affirmation","mismatch","speech","yes","ThumbDown","female","gesture-speech","1422","800","edge-chromium","60.01","Windows 10","22","male","right","Mon Aug 19 2024 15:40:27 GMT+0200 (Mitteleuropäische Sommerzeit)","4","55","0","1724074893825"
"698","j","SpeechGestureMatch","../RequiredFiles/videos/NeinKopfJa_f.mp4","Ist der Ball in der grünen Box?","Blue","Green","F","negation","mismatch","speech","no","ThumbUp","female","gesture-speech","1422","800","edge-chromium","60.01","Windows 10","22","male","right","Mon Aug 19 2024 15:40:33 GMT+0200 (Mitteleuropäische Sommerzeit)","4","56","1","1724074893825"
"798","f","SpeechGestureMatch","../RequiredFiles/videos/NeinKopfJa_f.mp4","Ist der Ball in der blauen Box?","Green","Blue","F","negation","mismatch","speech","no","ThumbUp","female","gesture-speech","1422","800","edge-chromium","60.01","Windows 10","22","male","right","Mon Aug 19 2024 15:40:39 GMT+0200 (Mitteleuropäische Sommerzeit)","4","57","0","1724074893825"
"810","f","SpeechGestureMatch","../RequiredFiles/videos/NeinKopfJa_m.mp4","Ist der Ball in der blauen Box?","Green","Blue","F","negation","mismatch","speech","no","ThumbUp","male","gesture-speech","1422","800","edge-chromium","60.01","Windows 10","22","male","right","Mon Aug 19 2024 15:40:46 GMT+0200 (Mitteleuropäische Sommerzeit)","4","58","0","1724074893825"
"786","j","SpeechGestureMatch","../RequiredFiles/videos/JaKopfNein_m.mp4","Ist der Ball in der grünen Box?","Blue","Green","J","affirmation","mismatch","speech","yes","ThumbDown","male","gesture-speech","1422","800","edge-chromium","60.01","Windows 10","22","male","right","Mon Aug 19 2024 15:40:52 GMT+0200 (Mitteleuropäische Sommerzeit)","4","59","0","1724074893825"
"639","f","SpeechGestureMatch","../RequiredFiles/videos/JaKopfJa_m.mp4","Ist der Ball in der blauen Box?","Blue","Green","F","affirmation","match","speech","yes","ThumbUp","male","gesture-speech","1422","800","edge-chromium","60.01","Windows 10","22","male","right","Mon Aug 19 2024 15:40:58 GMT+0200 (Mitteleuropäische Sommerzeit)","4","60","0","1724074893825"
"594","f","SpeechGestureMatch","../RequiredFiles/videos/JaKopfJa_f.mp4","Ist der Ball in der blauen Box?","Blue","Green","F","affirmation","match","speech","yes","ThumbUp","female","gesture-speech","1422","800","edge-chromium","60.01","Windows 10","22","male","right","Mon Aug 19 2024 15:41:04 GMT+0200 (Mitteleuropäische Sommerzeit)","4","61","0","1724074893825"
"786","j","SpeechGestureMatch","../RequiredFiles/videos/JaKopfJa_f.mp4","Ist der Ball in der blauen Box?","Green","Blue","J","affirmation","match","speech","yes","ThumbUp","female","gesture-speech","1422","800","edge-chromium","60.01","Windows 10","22","male","right","Mon Aug 19 2024 15:41:11 GMT+0200 (Mitteleuropäische Sommerzeit)","4","62","0","1724074893825"
"688","f","SpeechGestureMatch","../RequiredFiles/videos/NeinKopfNein_m.mp4","Ist der Ball in der blauen Box?","Green","Blue","F","negation","match","speech","no","ThumbDown","male","gesture-speech","1422","800","edge-chromium","60.01","Windows 10","22","male","right","Mon Aug 19 2024 15:41:17 GMT+0200 (Mitteleuropäische Sommerzeit)","4","63","0","1724074893825"
"804","j","SpeechGestureMatch","../RequiredFiles/videos/JaKopfNein_m.mp4","Ist der Ball in der blauen Box?","Green","Blue","J","affirmation","mismatch","speech","yes","ThumbDown","male","gesture-speech","1422","800","edge-chromium","60.01","Windows 10","22","male","right","Mon Aug 19 2024 15:41:23 GMT+0200 (Mitteleuropäische Sommerzeit)","4","64","0","1724074893825"
