"rt","response","stim","video","question","box_colour_left","box_colour_right","correct_key","polarity","matching","modality","verbal","gesture","speaker","order","width","height","browser","vsync_rate","os","age","gender","handedness","date","blockNum","trialNum","error","vpNum"
"780","j","SpeechGestureMatch","../RequiredFiles/videos/NeinDaumenrunter_m.mp4","Ist der Ball in der blauen Box?","Blue","Green","J","negation","match","speech","no","ThumbDown","male","speech-gesture","1368","912","edge-chromium","61.16","Windows 10","21","female","left","Wed Oct 09 2024 09:56:13 GMT+0200 (Mitteleuropäische Sommerzeit)","1","1","0","1728464117096"
"820","f","SpeechGestureMatch","../RequiredFiles/videos/JaDaumenhoch_m.mp4","Ist der Ball in der blauen Box?","Blue","Green","F","affirmation","match","speech","yes","ThumbUp","male","speech-gesture","1368","912","edge-chromium","61.16","Windows 10","21","female","left","Wed Oct 09 2024 09:56:19 GMT+0200 (Mitteleuropäische Sommerzeit)","1","2","0","1728464117096"
"924","f","SpeechGestureMatch","../RequiredFiles/videos/JaDaumenrunter_f.mp4","Ist der Ball in der blauen Box?","Green","Blue","J","affirmation","mismatch","speech","yes","ThumbDown","female","speech-gesture","1368","912","edge-chromium","61.16","Windows 10","21","female","left","Wed Oct 09 2024 09:56:26 GMT+0200 (Mitteleuropäische Sommerzeit)","1","3","1","1728464117096"
"891","f","SpeechGestureMatch","../RequiredFiles/videos/JaDaumenrunter_m.mp4","Ist der Ball in der grünen Box?","Green","Blue","F","affirmation","mismatch","speech","yes","ThumbDown","male","speech-gesture","1368","912","edge-chromium","61.16","Windows 10","21","female","left","Wed Oct 09 2024 09:56:32 GMT+0200 (Mitteleuropäische Sommerzeit)","1","4","0","1728464117096"
"858","j","SpeechGestureMatch","../RequiredFiles/videos/NeinDaumenhoch_f.mp4","Ist der Ball in der grünen Box?","Green","Blue","J","negation","mismatch","speech","no","ThumbUp","female","speech-gesture","1368","912","edge-chromium","61.16","Windows 10","21","female","left","Wed Oct 09 2024 09:56:39 GMT+0200 (Mitteleuropäische Sommerzeit)","1","5","0","1728464117096"
"939","j","SpeechGestureMatch","../RequiredFiles/videos/JaDaumenhoch_f.mp4","Ist der Ball in der grünen Box?","Blue","Green","J","affirmation","match","speech","yes","ThumbUp","female","speech-gesture","1368","912","edge-chromium","61.16","Windows 10","21","female","left","Wed Oct 09 2024 09:56:45 GMT+0200 (Mitteleuropäische Sommerzeit)","1","6","0","1728464117096"
"797","j","SpeechGestureMatch","../RequiredFiles/videos/JaDaumenrunter_f.mp4","Ist der Ball in der grünen Box?","Blue","Green","J","affirmation","mismatch","speech","yes","ThumbDown","female","speech-gesture","1368","912","edge-chromium","61.16","Windows 10","21","female","left","Wed Oct 09 2024 09:56:51 GMT+0200 (Mitteleuropäische Sommerzeit)","1","7","0","1728464117096"
"928","f","SpeechGestureMatch","../RequiredFiles/videos/NeinDaumenrunter_f_no_gesture.mp4","Ist der Ball in der grünen Box?","Blue","Green","F","negation","na","speech","no","na","female","speech-gesture","1368","912","edge-chromium","61.16","Windows 10","21","female","left","Wed Oct 09 2024 09:56:58 GMT+0200 (Mitteleuropäische Sommerzeit)","1","8","0","1728464117096"
"721","j","SpeechGestureMatch","../RequiredFiles/videos/JaDaumenhoch_m_no_gesture.mp4","Ist der Ball in der grünen Box?","Blue","Green","J","affirmation","na","speech","yes","na","male","speech-gesture","1368","912","edge-chromium","61.16","Windows 10","21","female","left","Wed Oct 09 2024 09:57:04 GMT+0200 (Mitteleuropäische Sommerzeit)","1","9","0","1728464117096"
"785","f","SpeechGestureMatch","../RequiredFiles/videos/NeinDaumenrunter_f.mp4","Ist der Ball in der grünen Box?","Blue","Green","F","negation","match","speech","no","ThumbDown","female","speech-gesture","1368","912","edge-chromium","61.16","Windows 10","21","female","left","Wed Oct 09 2024 09:57:11 GMT+0200 (Mitteleuropäische Sommerzeit)","1","10","0","1728464117096"
"801","j","SpeechGestureMatch","../RequiredFiles/videos/JaDaumenhoch_m.mp4","Ist der Ball in der grünen Box?","Green","Blue","F","affirmation","match","speech","yes","ThumbUp","male","speech-gesture","1368","912","edge-chromium","61.16","Windows 10","21","female","left","Wed Oct 09 2024 09:57:17 GMT+0200 (Mitteleuropäische Sommerzeit)","1","11","1","1728464117096"
"858","j","SpeechGestureMatch","../RequiredFiles/videos/NeinDaumenrunter_f.mp4","Ist der Ball in der blauen Box?","Blue","Green","J","negation","match","speech","no","ThumbDown","female","speech-gesture","1368","912","edge-chromium","61.16","Windows 10","21","female","left","Wed Oct 09 2024 09:57:23 GMT+0200 (Mitteleuropäische Sommerzeit)","1","12","0","1728464117096"
"991","j","SpeechGestureMatch","../RequiredFiles/videos/NeinDaumenhoch_m.mp4","Ist der Ball in der grünen Box?","Blue","Green","F","negation","mismatch","speech","no","ThumbUp","male","speech-gesture","1368","912","edge-chromium","61.16","Windows 10","21","female","left","Wed Oct 09 2024 09:57:30 GMT+0200 (Mitteleuropäische Sommerzeit)","1","13","1","1728464117096"
"848","f","SpeechGestureMatch","../RequiredFiles/videos/NeinDaumenrunter_m_no_gesture.mp4","Ist der Ball in der blauen Box?","Green","Blue","F","negation","na","speech","no","na","male","speech-gesture","1368","912","edge-chromium","61.16","Windows 10","21","female","left","Wed Oct 09 2024 09:57:36 GMT+0200 (Mitteleuropäische Sommerzeit)","1","14","0","1728464117096"
"767","j","SpeechGestureMatch","../RequiredFiles/videos/NeinDaumenrunter_m_no_gesture.mp4","Ist der Ball in der blauen Box?","Blue","Green","J","negation","na","speech","no","na","male","speech-gesture","1368","912","edge-chromium","61.16","Windows 10","21","female","left","Wed Oct 09 2024 09:57:43 GMT+0200 (Mitteleuropäische Sommerzeit)","1","15","0","1728464117096"
"985","j","SpeechGestureMatch","../RequiredFiles/videos/NeinDaumenhoch_f_no_gesture.mp4","Ist der Ball in der grünen Box?","Green","Blue","J","negation","na","speech","no","na","female","speech-gesture","1368","912","edge-chromium","61.16","Windows 10","21","female","left","Wed Oct 09 2024 09:57:49 GMT+0200 (Mitteleuropäische Sommerzeit)","1","16","0","1728464117096"
"803","j","SpeechGestureMatch","../RequiredFiles/videos/JaDaumenhoch_m.mp4","Ist der Ball in der blauen Box?","Green","Blue","J","affirmation","match","speech","yes","ThumbUp","male","speech-gesture","1368","912","edge-chromium","61.16","Windows 10","21","female","left","Wed Oct 09 2024 09:57:55 GMT+0200 (Mitteleuropäische Sommerzeit)","1","17","0","1728464117096"
"848","j","SpeechGestureMatch","../RequiredFiles/videos/JaDaumenhoch_f.mp4","Ist der Ball in der blauen Box?","Green","Blue","J","affirmation","match","speech","yes","ThumbUp","female","speech-gesture","1368","912","edge-chromium","61.16","Windows 10","21","female","left","Wed Oct 09 2024 09:58:02 GMT+0200 (Mitteleuropäische Sommerzeit)","1","18","0","1728464117096"
"887","j","SpeechGestureMatch","../RequiredFiles/videos/JaDaumenrunter_f_no_gesture.mp4","Ist der Ball in der blauen Box?","Green","Blue","J","affirmation","na","speech","yes","na","female","speech-gesture","1368","912","edge-chromium","61.16","Windows 10","21","female","left","Wed Oct 09 2024 09:58:08 GMT+0200 (Mitteleuropäische Sommerzeit)","1","19","0","1728464117096"
"819","f","SpeechGestureMatch","../RequiredFiles/videos/JaDaumenrunter_m_no_gesture.mp4","Ist der Ball in der blauen Box?","Blue","Green","F","affirmation","na","speech","yes","na","male","speech-gesture","1368","912","edge-chromium","61.16","Windows 10","21","female","left","Wed Oct 09 2024 09:58:15 GMT+0200 (Mitteleuropäische Sommerzeit)","1","20","0","1728464117096"
"763","f","SpeechGestureMatch","../RequiredFiles/videos/JaDaumenrunter_m.mp4","Ist der Ball in der blauen Box?","Blue","Green","F","affirmation","mismatch","speech","yes","ThumbDown","male","speech-gesture","1368","912","edge-chromium","61.16","Windows 10","21","female","left","Wed Oct 09 2024 09:58:21 GMT+0200 (Mitteleuropäische Sommerzeit)","1","21","0","1728464117096"
"768","j","SpeechGestureMatch","../RequiredFiles/videos/JaDaumenhoch_f.mp4","Ist der Ball in der blauen Box?","Green","Blue","J","affirmation","match","speech","yes","ThumbUp","female","speech-gesture","1368","912","edge-chromium","61.16","Windows 10","21","female","left","Wed Oct 09 2024 09:58:27 GMT+0200 (Mitteleuropäische Sommerzeit)","1","22","0","1728464117096"
"812","f","SpeechGestureMatch","../RequiredFiles/videos/JaDaumenrunter_f.mp4","Ist der Ball in der blauen Box?","Blue","Green","F","affirmation","mismatch","speech","yes","ThumbDown","female","speech-gesture","1368","912","edge-chromium","61.16","Windows 10","21","female","left","Wed Oct 09 2024 09:58:34 GMT+0200 (Mitteleuropäische Sommerzeit)","1","23","0","1728464117096"
"869","f","SpeechGestureMatch","../RequiredFiles/videos/JaDaumenhoch_f_no_gesture.mp4","Ist der Ball in der blauen Box?","Blue","Green","F","affirmation","na","speech","yes","na","female","speech-gesture","1368","912","edge-chromium","61.16","Windows 10","21","female","left","Wed Oct 09 2024 09:58:40 GMT+0200 (Mitteleuropäische Sommerzeit)","1","24","0","1728464117096"
"828","f","SpeechGestureMatch","../RequiredFiles/videos/JaDaumenrunter_f_no_gesture.mp4","Ist der Ball in der grünen Box?","Green","Blue","F","affirmation","na","speech","yes","na","female","speech-gesture","1368","912","edge-chromium","61.16","Windows 10","21","female","left","Wed Oct 09 2024 09:58:46 GMT+0200 (Mitteleuropäische Sommerzeit)","1","25","0","1728464117096"
"829","j","SpeechGestureMatch","../RequiredFiles/videos/JaDaumenhoch_m_no_gesture.mp4","Ist der Ball in der blauen Box?","Green","Blue","J","affirmation","na","speech","yes","na","male","speech-gesture","1368","912","edge-chromium","61.16","Windows 10","21","female","left","Wed Oct 09 2024 09:58:53 GMT+0200 (Mitteleuropäische Sommerzeit)","1","26","0","1728464117096"
"980","f","SpeechGestureMatch","../RequiredFiles/videos/NeinDaumenhoch_m.mp4","Ist der Ball in der blauen Box?","Blue","Green","J","negation","mismatch","speech","no","ThumbUp","male","speech-gesture","1368","912","edge-chromium","61.16","Windows 10","21","female","left","Wed Oct 09 2024 09:58:59 GMT+0200 (Mitteleuropäische Sommerzeit)","1","27","1","1728464117096"
"794","j","SpeechGestureMatch","../RequiredFiles/videos/JaDaumenrunter_m_no_gesture.mp4","Ist der Ball in der blauen Box?","Green","Blue","J","affirmation","na","speech","yes","na","male","speech-gesture","1368","912","edge-chromium","61.16","Windows 10","21","female","left","Wed Oct 09 2024 09:59:06 GMT+0200 (Mitteleuropäische Sommerzeit)","1","28","0","1728464117096"
"731","j","SpeechGestureMatch","../RequiredFiles/videos/JaDaumenrunter_f.mp4","Ist der Ball in der blauen Box?","Green","Blue","J","affirmation","mismatch","speech","yes","ThumbDown","female","speech-gesture","1368","912","edge-chromium","61.16","Windows 10","21","female","left","Wed Oct 09 2024 09:59:12 GMT+0200 (Mitteleuropäische Sommerzeit)","1","29","0","1728464117096"
"887","j","SpeechGestureMatch","../RequiredFiles/videos/NeinDaumenhoch_f.mp4","Ist der Ball in der grünen Box?","Blue","Green","F","negation","mismatch","speech","no","ThumbUp","female","speech-gesture","1368","912","edge-chromium","61.16","Windows 10","21","female","left","Wed Oct 09 2024 09:59:18 GMT+0200 (Mitteleuropäische Sommerzeit)","1","30","1","1728464117096"
"997","f","SpeechGestureMatch","../RequiredFiles/videos/JaDaumenrunter_m.mp4","Ist der Ball in der grünen Box?","Green","Blue","F","affirmation","mismatch","speech","yes","ThumbDown","male","speech-gesture","1368","912","edge-chromium","61.16","Windows 10","21","female","left","Wed Oct 09 2024 09:59:25 GMT+0200 (Mitteleuropäische Sommerzeit)","1","31","0","1728464117096"
"759","j","SpeechGestureMatch","../RequiredFiles/videos/JaDaumenrunter_m.mp4","Ist der Ball in der blauen Box?","Green","Blue","J","affirmation","mismatch","speech","yes","ThumbDown","male","speech-gesture","1368","912","edge-chromium","61.16","Windows 10","21","female","left","Wed Oct 09 2024 09:59:31 GMT+0200 (Mitteleuropäische Sommerzeit)","1","32","0","1728464117096"
"753","j","SpeechGestureMatch","../RequiredFiles/videos/NeinDaumenhoch_m_no_gesture.mp4","Ist der Ball in der blauen Box?","Blue","Green","J","negation","na","speech","no","na","male","speech-gesture","1368","912","edge-chromium","61.16","Windows 10","21","female","left","Wed Oct 09 2024 09:59:38 GMT+0200 (Mitteleuropäische Sommerzeit)","1","33","0","1728464117096"
"1019","j","SpeechGestureMatch","../RequiredFiles/videos/NeinDaumenrunter_f_no_gesture.mp4","Ist der Ball in der blauen Box?","Blue","Green","J","negation","na","speech","no","na","female","speech-gesture","1368","912","edge-chromium","61.16","Windows 10","21","female","left","Wed Oct 09 2024 09:59:44 GMT+0200 (Mitteleuropäische Sommerzeit)","1","34","0","1728464117096"
"738","j","SpeechGestureMatch","../RequiredFiles/videos/NeinDaumenrunter_m_no_gesture.mp4","Ist der Ball in der grünen Box?","Green","Blue","J","negation","na","speech","no","na","male","speech-gesture","1368","912","edge-chromium","61.16","Windows 10","21","female","left","Wed Oct 09 2024 09:59:50 GMT+0200 (Mitteleuropäische Sommerzeit)","1","35","0","1728464117096"
"826","j","SpeechGestureMatch","../RequiredFiles/videos/NeinDaumenhoch_f.mp4","Ist der Ball in der blauen Box?","Blue","Green","J","negation","mismatch","speech","no","ThumbUp","female","speech-gesture","1368","912","edge-chromium","61.16","Windows 10","21","female","left","Wed Oct 09 2024 09:59:57 GMT+0200 (Mitteleuropäische Sommerzeit)","1","36","0","1728464117096"
"681","j","SpeechGestureMatch","../RequiredFiles/videos/NeinDaumenhoch_f.mp4","Ist der Ball in der grünen Box?","Blue","Green","F","negation","mismatch","speech","no","ThumbUp","female","speech-gesture","1368","912","edge-chromium","61.16","Windows 10","21","female","left","Wed Oct 09 2024 10:00:03 GMT+0200 (Mitteleuropäische Sommerzeit)","1","37","1","1728464117096"
"746","j","SpeechGestureMatch","../RequiredFiles/videos/NeinDaumenhoch_f_no_gesture.mp4","Ist der Ball in der blauen Box?","Blue","Green","J","negation","na","speech","no","na","female","speech-gesture","1368","912","edge-chromium","61.16","Windows 10","21","female","left","Wed Oct 09 2024 10:00:09 GMT+0200 (Mitteleuropäische Sommerzeit)","1","38","0","1728464117096"
"782","j","SpeechGestureMatch","../RequiredFiles/videos/JaDaumenrunter_m_no_gesture.mp4","Ist der Ball in der grünen Box?","Blue","Green","J","affirmation","na","speech","yes","na","male","speech-gesture","1368","912","edge-chromium","61.16","Windows 10","21","female","left","Wed Oct 09 2024 10:00:16 GMT+0200 (Mitteleuropäische Sommerzeit)","1","39","0","1728464117096"
"1188","j","SpeechGestureMatch","../RequiredFiles/videos/JaDaumenrunter_f.mp4","Ist der Ball in der grünen Box?","Blue","Green","J","affirmation","mismatch","speech","yes","ThumbDown","female","speech-gesture","1368","912","edge-chromium","61.16","Windows 10","21","female","left","Wed Oct 09 2024 10:00:22 GMT+0200 (Mitteleuropäische Sommerzeit)","1","40","0","1728464117096"
"1119","f","SpeechGestureMatch","../RequiredFiles/videos/JaDaumenrunter_f.mp4","Ist der Ball in der grünen Box?","Green","Blue","F","affirmation","mismatch","speech","yes","ThumbDown","female","speech-gesture","1368","912","edge-chromium","61.16","Windows 10","21","female","left","Wed Oct 09 2024 10:00:29 GMT+0200 (Mitteleuropäische Sommerzeit)","1","41","0","1728464117096"
"871","f","SpeechGestureMatch","../RequiredFiles/videos/JaDaumenrunter_f.mp4","Ist der Ball in der blauen Box?","Blue","Green","F","affirmation","mismatch","speech","yes","ThumbDown","female","speech-gesture","1368","912","edge-chromium","61.16","Windows 10","21","female","left","Wed Oct 09 2024 10:00:35 GMT+0200 (Mitteleuropäische Sommerzeit)","1","42","0","1728464117096"
"639","j","SpeechGestureMatch","../RequiredFiles/videos/NeinDaumenrunter_f.mp4","Ist der Ball in der grünen Box?","Green","Blue","J","negation","match","speech","no","ThumbDown","female","speech-gesture","1368","912","edge-chromium","61.16","Windows 10","21","female","left","Wed Oct 09 2024 10:00:42 GMT+0200 (Mitteleuropäische Sommerzeit)","1","43","0","1728464117096"
"769","j","SpeechGestureMatch","../RequiredFiles/videos/JaDaumenrunter_m.mp4","Ist der Ball in der blauen Box?","Green","Blue","J","affirmation","mismatch","speech","yes","ThumbDown","male","speech-gesture","1368","912","edge-chromium","61.16","Windows 10","21","female","left","Wed Oct 09 2024 10:00:48 GMT+0200 (Mitteleuropäische Sommerzeit)","1","44","0","1728464117096"
"855","f","SpeechGestureMatch","../RequiredFiles/videos/JaDaumenhoch_m.mp4","Ist der Ball in der grünen Box?","Green","Blue","F","affirmation","match","speech","yes","ThumbUp","male","speech-gesture","1368","912","edge-chromium","61.16","Windows 10","21","female","left","Wed Oct 09 2024 10:00:54 GMT+0200 (Mitteleuropäische Sommerzeit)","1","45","0","1728464117096"
"965","f","SpeechGestureMatch","../RequiredFiles/videos/NeinDaumenrunter_m.mp4","Ist der Ball in der grünen Box?","Blue","Green","F","negation","match","speech","no","ThumbDown","male","speech-gesture","1368","912","edge-chromium","61.16","Windows 10","21","female","left","Wed Oct 09 2024 10:01:01 GMT+0200 (Mitteleuropäische Sommerzeit)","1","46","0","1728464117096"
"758","j","SpeechGestureMatch","../RequiredFiles/videos/NeinDaumenhoch_m.mp4","Ist der Ball in der grünen Box?","Green","Blue","J","negation","mismatch","speech","no","ThumbUp","male","speech-gesture","1368","912","edge-chromium","61.16","Windows 10","21","female","left","Wed Oct 09 2024 10:01:07 GMT+0200 (Mitteleuropäische Sommerzeit)","1","47","0","1728464117096"
"707","f","SpeechGestureMatch","../RequiredFiles/videos/NeinDaumenrunter_m.mp4","Ist der Ball in der blauen Box?","Green","Blue","F","negation","match","speech","no","ThumbDown","male","speech-gesture","1368","912","edge-chromium","61.16","Windows 10","21","female","left","Wed Oct 09 2024 10:01:13 GMT+0200 (Mitteleuropäische Sommerzeit)","1","48","0","1728464117096"
"905","f","SpeechGestureMatch","../RequiredFiles/videos/NeinDaumenrunter_m_no_gesture.mp4","Ist der Ball in der grünen Box?","Blue","Green","F","negation","na","speech","no","na","male","speech-gesture","1368","912","edge-chromium","61.16","Windows 10","21","female","left","Wed Oct 09 2024 10:01:20 GMT+0200 (Mitteleuropäische Sommerzeit)","1","49","0","1728464117096"
"759","j","SpeechGestureMatch","../RequiredFiles/videos/JaDaumenhoch_f_no_gesture.mp4","Ist der Ball in der grünen Box?","Green","Blue","F","affirmation","na","speech","yes","na","female","speech-gesture","1368","912","edge-chromium","61.16","Windows 10","21","female","left","Wed Oct 09 2024 10:01:26 GMT+0200 (Mitteleuropäische Sommerzeit)","1","50","1","1728464117096"
"740","j","SpeechGestureMatch","../RequiredFiles/videos/NeinDaumenrunter_m.mp4","Ist der Ball in der blauen Box?","Blue","Green","J","negation","match","speech","no","ThumbDown","male","speech-gesture","1368","912","edge-chromium","61.16","Windows 10","21","female","left","Wed Oct 09 2024 10:01:32 GMT+0200 (Mitteleuropäische Sommerzeit)","1","51","0","1728464117096"
"829","f","SpeechGestureMatch","../RequiredFiles/videos/NeinDaumenhoch_m.mp4","Ist der Ball in der blauen Box?","Green","Blue","F","negation","mismatch","speech","no","ThumbUp","male","speech-gesture","1368","912","edge-chromium","61.16","Windows 10","21","female","left","Wed Oct 09 2024 10:01:39 GMT+0200 (Mitteleuropäische Sommerzeit)","1","52","0","1728464117096"
"825","f","SpeechGestureMatch","../RequiredFiles/videos/JaDaumenrunter_f.mp4","Ist der Ball in der grünen Box?","Green","Blue","F","affirmation","mismatch","speech","yes","ThumbDown","female","speech-gesture","1368","912","edge-chromium","61.16","Windows 10","21","female","left","Wed Oct 09 2024 10:01:45 GMT+0200 (Mitteleuropäische Sommerzeit)","1","53","0","1728464117096"
"1019","j","SpeechGestureMatch","../RequiredFiles/videos/NeinDaumenhoch_m_no_gesture.mp4","Ist der Ball in der grünen Box?","Blue","Green","F","negation","na","speech","no","na","male","speech-gesture","1368","912","edge-chromium","61.16","Windows 10","21","female","left","Wed Oct 09 2024 10:01:52 GMT+0200 (Mitteleuropäische Sommerzeit)","1","54","1","1728464117096"
"1041","j","SpeechGestureMatch","../RequiredFiles/videos/JaDaumenrunter_m.mp4","Ist der Ball in der grünen Box?","Blue","Green","J","affirmation","mismatch","speech","yes","ThumbDown","male","speech-gesture","1368","912","edge-chromium","61.16","Windows 10","21","female","left","Wed Oct 09 2024 10:01:58 GMT+0200 (Mitteleuropäische Sommerzeit)","1","55","0","1728464117096"
"1153","f","SpeechGestureMatch","../RequiredFiles/videos/NeinDaumenhoch_f_no_gesture.mp4","Ist der Ball in der grünen Box?","Blue","Green","F","negation","na","speech","no","na","female","speech-gesture","1368","912","edge-chromium","61.16","Windows 10","21","female","left","Wed Oct 09 2024 10:02:05 GMT+0200 (Mitteleuropäische Sommerzeit)","1","56","0","1728464117096"
"958","f","SpeechGestureMatch","../RequiredFiles/videos/NeinDaumenrunter_f.mp4","Ist der Ball in der blauen Box?","Green","Blue","F","negation","match","speech","no","ThumbDown","female","speech-gesture","1368","912","edge-chromium","61.16","Windows 10","21","female","left","Wed Oct 09 2024 10:02:12 GMT+0200 (Mitteleuropäische Sommerzeit)","1","57","0","1728464117096"
"693","f","SpeechGestureMatch","../RequiredFiles/videos/JaDaumenhoch_m.mp4","Ist der Ball in der blauen Box?","Green","Blue","J","affirmation","match","speech","yes","ThumbUp","male","speech-gesture","1368","912","edge-chromium","61.16","Windows 10","21","female","left","Wed Oct 09 2024 10:02:18 GMT+0200 (Mitteleuropäische Sommerzeit)","1","58","1","1728464117096"
"847","f","SpeechGestureMatch","../RequiredFiles/videos/NeinDaumenrunter_f.mp4","Ist der Ball in der grünen Box?","Blue","Green","F","negation","match","speech","no","ThumbDown","female","speech-gesture","1368","912","edge-chromium","61.16","Windows 10","21","female","left","Wed Oct 09 2024 10:02:24 GMT+0200 (Mitteleuropäische Sommerzeit)","1","59","0","1728464117096"
"826","f","SpeechGestureMatch","../RequiredFiles/videos/NeinDaumenhoch_f.mp4","Ist der Ball in der blauen Box?","Green","Blue","F","negation","mismatch","speech","no","ThumbUp","female","speech-gesture","1368","912","edge-chromium","61.16","Windows 10","21","female","left","Wed Oct 09 2024 10:02:31 GMT+0200 (Mitteleuropäische Sommerzeit)","1","60","0","1728464117096"
"919","f","SpeechGestureMatch","../RequiredFiles/videos/NeinDaumenhoch_f.mp4","Ist der Ball in der blauen Box?","Green","Blue","F","negation","mismatch","speech","no","ThumbUp","female","speech-gesture","1368","912","edge-chromium","61.16","Windows 10","21","female","left","Wed Oct 09 2024 10:02:37 GMT+0200 (Mitteleuropäische Sommerzeit)","1","61","0","1728464117096"
"1400","f","SpeechGestureMatch","../RequiredFiles/videos/JaDaumenrunter_m.mp4","Ist der Ball in der blauen Box?","Blue","Green","F","affirmation","mismatch","speech","yes","ThumbDown","male","speech-gesture","1368","912","edge-chromium","61.16","Windows 10","21","female","left","Wed Oct 09 2024 10:02:44 GMT+0200 (Mitteleuropäische Sommerzeit)","1","62","0","1728464117096"
"803","j","SpeechGestureMatch","../RequiredFiles/videos/NeinDaumenrunter_f.mp4","Ist der Ball in der blauen Box?","Blue","Green","J","negation","match","speech","no","ThumbDown","female","speech-gesture","1368","912","edge-chromium","61.16","Windows 10","21","female","left","Wed Oct 09 2024 10:02:50 GMT+0200 (Mitteleuropäische Sommerzeit)","1","63","0","1728464117096"
"1345","j","SpeechGestureMatch","../RequiredFiles/videos/NeinDaumenhoch_f.mp4","Ist der Ball in der grünen Box?","Green","Blue","J","negation","mismatch","speech","no","ThumbUp","female","speech-gesture","1368","912","edge-chromium","61.16","Windows 10","21","female","left","Wed Oct 09 2024 10:02:57 GMT+0200 (Mitteleuropäische Sommerzeit)","1","64","0","1728464117096"
"908","f","SpeechGestureMatch","../RequiredFiles/videos/JaDaumenhoch_m_no_gesture.mp4","Ist der Ball in der blauen Box?","Blue","Green","F","affirmation","na","speech","yes","na","male","speech-gesture","1368","912","edge-chromium","61.16","Windows 10","21","female","left","Wed Oct 09 2024 10:03:04 GMT+0200 (Mitteleuropäische Sommerzeit)","1","65","0","1728464117096"
"1221","f","SpeechGestureMatch","../RequiredFiles/videos/NeinDaumenrunter_m.mp4","Ist der Ball in der grünen Box?","Blue","Green","F","negation","match","speech","no","ThumbDown","male","speech-gesture","1368","912","edge-chromium","61.16","Windows 10","21","female","left","Wed Oct 09 2024 10:03:11 GMT+0200 (Mitteleuropäische Sommerzeit)","1","66","0","1728464117096"
"984","j","SpeechGestureMatch","../RequiredFiles/videos/NeinDaumenhoch_m.mp4","Ist der Ball in der blauen Box?","Blue","Green","J","negation","mismatch","speech","no","ThumbUp","male","speech-gesture","1368","912","edge-chromium","61.16","Windows 10","21","female","left","Wed Oct 09 2024 10:03:17 GMT+0200 (Mitteleuropäische Sommerzeit)","1","67","0","1728464117096"
"868","j","SpeechGestureMatch","../RequiredFiles/videos/NeinDaumenrunter_f_no_gesture.mp4","Ist der Ball in der grünen Box?","Green","Blue","J","negation","na","speech","no","na","female","speech-gesture","1368","912","edge-chromium","61.16","Windows 10","21","female","left","Wed Oct 09 2024 10:03:23 GMT+0200 (Mitteleuropäische Sommerzeit)","1","68","0","1728464117096"
"767","j","SpeechGestureMatch","../RequiredFiles/videos/JaDaumenhoch_f.mp4","Ist der Ball in der grünen Box?","Green","Blue","F","affirmation","match","speech","yes","ThumbUp","female","speech-gesture","1368","912","edge-chromium","61.16","Windows 10","21","female","left","Wed Oct 09 2024 10:03:30 GMT+0200 (Mitteleuropäische Sommerzeit)","1","69","1","1728464117096"
"976","j","SpeechGestureMatch","../RequiredFiles/videos/JaDaumenhoch_f_no_gesture.mp4","Ist der Ball in der grünen Box?","Blue","Green","J","affirmation","na","speech","yes","na","female","speech-gesture","1368","912","edge-chromium","61.16","Windows 10","21","female","left","Wed Oct 09 2024 10:03:36 GMT+0200 (Mitteleuropäische Sommerzeit)","1","70","0","1728464117096"
"828","j","SpeechGestureMatch","../RequiredFiles/videos/JaDaumenhoch_f.mp4","Ist der Ball in der blauen Box?","Blue","Green","F","affirmation","match","speech","yes","ThumbUp","female","speech-gesture","1368","912","edge-chromium","61.16","Windows 10","21","female","left","Wed Oct 09 2024 10:03:43 GMT+0200 (Mitteleuropäische Sommerzeit)","1","71","1","1728464117096"
"867","j","SpeechGestureMatch","../RequiredFiles/videos/JaDaumenhoch_m.mp4","Ist der Ball in der grünen Box?","Blue","Green","J","affirmation","match","speech","yes","ThumbUp","male","speech-gesture","1368","912","edge-chromium","61.16","Windows 10","21","female","left","Wed Oct 09 2024 10:03:49 GMT+0200 (Mitteleuropäische Sommerzeit)","1","72","0","1728464117096"
"922","f","SpeechGestureMatch","../RequiredFiles/videos/NeinDaumenhoch_m_no_gesture.mp4","Ist der Ball in der blauen Box?","Green","Blue","F","negation","na","speech","no","na","male","speech-gesture","1368","912","edge-chromium","61.16","Windows 10","21","female","left","Wed Oct 09 2024 10:03:56 GMT+0200 (Mitteleuropäische Sommerzeit)","1","73","0","1728464117096"
"747","j","SpeechGestureMatch","../RequiredFiles/videos/NeinDaumenrunter_f.mp4","Ist der Ball in der grünen Box?","Green","Blue","J","negation","match","speech","no","ThumbDown","female","speech-gesture","1368","912","edge-chromium","61.16","Windows 10","21","female","left","Wed Oct 09 2024 10:04:02 GMT+0200 (Mitteleuropäische Sommerzeit)","1","74","0","1728464117096"
"1050","f","SpeechGestureMatch","../RequiredFiles/videos/NeinDaumenrunter_m.mp4","Ist der Ball in der grünen Box?","Green","Blue","J","negation","match","speech","no","ThumbDown","male","speech-gesture","1368","912","edge-chromium","61.16","Windows 10","21","female","left","Wed Oct 09 2024 10:04:09 GMT+0200 (Mitteleuropäische Sommerzeit)","1","75","1","1728464117096"
"1322","f","SpeechGestureMatch","../RequiredFiles/videos/NeinDaumenrunter_f.mp4","Ist der Ball in der blauen Box?","Green","Blue","F","negation","match","speech","no","ThumbDown","female","speech-gesture","1368","912","edge-chromium","61.16","Windows 10","21","female","left","Wed Oct 09 2024 10:04:15 GMT+0200 (Mitteleuropäische Sommerzeit)","1","76","0","1728464117096"
"825","j","SpeechGestureMatch","../RequiredFiles/videos/JaDaumenhoch_f_no_gesture.mp4","Ist der Ball in der blauen Box?","Green","Blue","J","affirmation","na","speech","yes","na","female","speech-gesture","1368","912","edge-chromium","61.16","Windows 10","21","female","left","Wed Oct 09 2024 10:04:22 GMT+0200 (Mitteleuropäische Sommerzeit)","1","77","0","1728464117096"
"789","f","SpeechGestureMatch","../RequiredFiles/videos/NeinDaumenhoch_f_no_gesture.mp4","Ist der Ball in der blauen Box?","Green","Blue","F","negation","na","speech","no","na","female","speech-gesture","1368","912","edge-chromium","61.16","Windows 10","21","female","left","Wed Oct 09 2024 10:04:28 GMT+0200 (Mitteleuropäische Sommerzeit)","1","78","0","1728464117096"
"960","f","SpeechGestureMatch","../RequiredFiles/videos/NeinDaumenhoch_f.mp4","Ist der Ball in der blauen Box?","Blue","Green","J","negation","mismatch","speech","no","ThumbUp","female","speech-gesture","1368","912","edge-chromium","61.16","Windows 10","21","female","left","Wed Oct 09 2024 10:04:35 GMT+0200 (Mitteleuropäische Sommerzeit)","1","79","1","1728464117096"
"1012","j","SpeechGestureMatch","../RequiredFiles/videos/JaDaumenhoch_f.mp4","Ist der Ball in der grünen Box?","Blue","Green","J","affirmation","match","speech","yes","ThumbUp","female","speech-gesture","1368","912","edge-chromium","61.16","Windows 10","21","female","left","Wed Oct 09 2024 10:04:41 GMT+0200 (Mitteleuropäische Sommerzeit)","1","80","0","1728464117096"
"1007","j","SpeechGestureMatch","../RequiredFiles/videos/JaDaumenrunter_m.mp4","Ist der Ball in der grünen Box?","Blue","Green","J","affirmation","mismatch","speech","yes","ThumbDown","male","speech-gesture","1368","912","edge-chromium","61.16","Windows 10","21","female","left","Wed Oct 09 2024 10:04:48 GMT+0200 (Mitteleuropäische Sommerzeit)","1","81","0","1728464117096"
"970","j","SpeechGestureMatch","../RequiredFiles/videos/NeinDaumenhoch_m_no_gesture.mp4","Ist der Ball in der grünen Box?","Green","Blue","J","negation","na","speech","no","na","male","speech-gesture","1368","912","edge-chromium","61.16","Windows 10","21","female","left","Wed Oct 09 2024 10:04:54 GMT+0200 (Mitteleuropäische Sommerzeit)","1","82","0","1728464117096"
"1658","f","SpeechGestureMatch","../RequiredFiles/videos/JaDaumenhoch_m_no_gesture.mp4","Ist der Ball in der grünen Box?","Green","Blue","F","affirmation","na","speech","yes","na","male","speech-gesture","1368","912","edge-chromium","61.16","Windows 10","21","female","left","Wed Oct 09 2024 10:05:01 GMT+0200 (Mitteleuropäische Sommerzeit)","1","83","0","1728464117096"
"932","j","SpeechGestureMatch","../RequiredFiles/videos/NeinDaumenhoch_m.mp4","Ist der Ball in der grünen Box?","Green","Blue","J","negation","mismatch","speech","no","ThumbUp","male","speech-gesture","1368","912","edge-chromium","61.16","Windows 10","21","female","left","Wed Oct 09 2024 10:05:08 GMT+0200 (Mitteleuropäische Sommerzeit)","1","84","0","1728464117096"
"1423","f","SpeechGestureMatch","../RequiredFiles/videos/JaDaumenrunter_m_no_gesture.mp4","Ist der Ball in der grünen Box?","Green","Blue","F","affirmation","na","speech","yes","na","male","speech-gesture","1368","912","edge-chromium","61.16","Windows 10","21","female","left","Wed Oct 09 2024 10:05:15 GMT+0200 (Mitteleuropäische Sommerzeit)","1","85","0","1728464117096"
"768","f","SpeechGestureMatch","../RequiredFiles/videos/JaDaumenhoch_f.mp4","Ist der Ball in der blauen Box?","Blue","Green","F","affirmation","match","speech","yes","ThumbUp","female","speech-gesture","1368","912","edge-chromium","61.16","Windows 10","21","female","left","Wed Oct 09 2024 10:05:21 GMT+0200 (Mitteleuropäische Sommerzeit)","1","86","0","1728464117096"
"852","f","SpeechGestureMatch","../RequiredFiles/videos/NeinDaumenhoch_m.mp4","Ist der Ball in der grünen Box?","Blue","Green","F","negation","mismatch","speech","no","ThumbUp","male","speech-gesture","1368","912","edge-chromium","61.16","Windows 10","21","female","left","Wed Oct 09 2024 10:05:28 GMT+0200 (Mitteleuropäische Sommerzeit)","1","87","0","1728464117096"
"969","f","SpeechGestureMatch","../RequiredFiles/videos/NeinDaumenrunter_f_no_gesture.mp4","Ist der Ball in der blauen Box?","Green","Blue","F","negation","na","speech","no","na","female","speech-gesture","1368","912","edge-chromium","61.16","Windows 10","21","female","left","Wed Oct 09 2024 10:05:34 GMT+0200 (Mitteleuropäische Sommerzeit)","1","88","0","1728464117096"
"946","j","SpeechGestureMatch","../RequiredFiles/videos/JaDaumenrunter_f_no_gesture.mp4","Ist der Ball in der grünen Box?","Blue","Green","J","affirmation","na","speech","yes","na","female","speech-gesture","1368","912","edge-chromium","61.16","Windows 10","21","female","left","Wed Oct 09 2024 10:05:41 GMT+0200 (Mitteleuropäische Sommerzeit)","1","89","0","1728464117096"
"1029","f","SpeechGestureMatch","../RequiredFiles/videos/NeinDaumenhoch_m.mp4","Ist der Ball in der blauen Box?","Green","Blue","F","negation","mismatch","speech","no","ThumbUp","male","speech-gesture","1368","912","edge-chromium","61.16","Windows 10","21","female","left","Wed Oct 09 2024 10:05:47 GMT+0200 (Mitteleuropäische Sommerzeit)","1","90","0","1728464117096"
"758","j","SpeechGestureMatch","../RequiredFiles/videos/JaDaumenhoch_m.mp4","Ist der Ball in der grünen Box?","Blue","Green","J","affirmation","match","speech","yes","ThumbUp","male","speech-gesture","1368","912","edge-chromium","61.16","Windows 10","21","female","left","Wed Oct 09 2024 10:05:54 GMT+0200 (Mitteleuropäische Sommerzeit)","1","91","0","1728464117096"
"830","f","SpeechGestureMatch","../RequiredFiles/videos/JaDaumenhoch_m.mp4","Ist der Ball in der blauen Box?","Blue","Green","F","affirmation","match","speech","yes","ThumbUp","male","speech-gesture","1368","912","edge-chromium","61.16","Windows 10","21","female","left","Wed Oct 09 2024 10:06:00 GMT+0200 (Mitteleuropäische Sommerzeit)","1","92","0","1728464117096"
"1065","f","SpeechGestureMatch","../RequiredFiles/videos/NeinDaumenrunter_m.mp4","Ist der Ball in der blauen Box?","Green","Blue","F","negation","match","speech","no","ThumbDown","male","speech-gesture","1368","912","edge-chromium","61.16","Windows 10","21","female","left","Wed Oct 09 2024 10:06:06 GMT+0200 (Mitteleuropäische Sommerzeit)","1","93","0","1728464117096"
"1147","f","SpeechGestureMatch","../RequiredFiles/videos/JaDaumenrunter_f_no_gesture.mp4","Ist der Ball in der blauen Box?","Blue","Green","F","affirmation","na","speech","yes","na","female","speech-gesture","1368","912","edge-chromium","61.16","Windows 10","21","female","left","Wed Oct 09 2024 10:06:13 GMT+0200 (Mitteleuropäische Sommerzeit)","1","94","0","1728464117096"
"842","f","SpeechGestureMatch","../RequiredFiles/videos/JaDaumenhoch_f.mp4","Ist der Ball in der grünen Box?","Green","Blue","F","affirmation","match","speech","yes","ThumbUp","female","speech-gesture","1368","912","edge-chromium","61.16","Windows 10","21","female","left","Wed Oct 09 2024 10:06:20 GMT+0200 (Mitteleuropäische Sommerzeit)","1","95","0","1728464117096"
"909","j","SpeechGestureMatch","../RequiredFiles/videos/NeinDaumenrunter_m.mp4","Ist der Ball in der grünen Box?","Green","Blue","J","negation","match","speech","no","ThumbDown","male","speech-gesture","1368","912","edge-chromium","61.16","Windows 10","21","female","left","Wed Oct 09 2024 10:06:26 GMT+0200 (Mitteleuropäische Sommerzeit)","1","96","0","1728464117096"
"1153","j","SpeechGestureMatch","../RequiredFiles/videos/NeinDaumenrunter_m.mp4","Ist der Ball in der blauen Box?","Blue","Green","J","negation","match","speech","no","ThumbDown","male","speech-gesture","1368","912","edge-chromium","61.16","Windows 10","21","female","left","Wed Oct 09 2024 10:10:26 GMT+0200 (Mitteleuropäische Sommerzeit)","2","1","0","1728464117096"
"741","j","SpeechGestureMatch","../RequiredFiles/videos/JaDaumenrunter_f_no_gesture.mp4","Ist der Ball in der grünen Box?","Blue","Green","J","affirmation","na","speech","yes","na","female","speech-gesture","1368","912","edge-chromium","61.16","Windows 10","21","female","left","Wed Oct 09 2024 10:10:32 GMT+0200 (Mitteleuropäische Sommerzeit)","2","2","0","1728464117096"
"954","f","SpeechGestureMatch","../RequiredFiles/videos/NeinDaumenrunter_m.mp4","Ist der Ball in der blauen Box?","Green","Blue","F","negation","match","speech","no","ThumbDown","male","speech-gesture","1368","912","edge-chromium","61.16","Windows 10","21","female","left","Wed Oct 09 2024 10:10:39 GMT+0200 (Mitteleuropäische Sommerzeit)","2","3","0","1728464117096"
"911","f","SpeechGestureMatch","../RequiredFiles/videos/JaDaumenhoch_f_no_gesture.mp4","Ist der Ball in der grünen Box?","Green","Blue","F","affirmation","na","speech","yes","na","female","speech-gesture","1368","912","edge-chromium","61.16","Windows 10","21","female","left","Wed Oct 09 2024 10:10:45 GMT+0200 (Mitteleuropäische Sommerzeit)","2","4","0","1728464117096"
"749","j","SpeechGestureMatch","../RequiredFiles/videos/JaDaumenhoch_m.mp4","Ist der Ball in der grünen Box?","Blue","Green","J","affirmation","match","speech","yes","ThumbUp","male","speech-gesture","1368","912","edge-chromium","61.16","Windows 10","21","female","left","Wed Oct 09 2024 10:10:51 GMT+0200 (Mitteleuropäische Sommerzeit)","2","5","0","1728464117096"
"1183","f","SpeechGestureMatch","../RequiredFiles/videos/NeinDaumenrunter_f.mp4","Ist der Ball in der blauen Box?","Blue","Green","J","negation","match","speech","no","ThumbDown","female","speech-gesture","1368","912","edge-chromium","61.16","Windows 10","21","female","left","Wed Oct 09 2024 10:10:58 GMT+0200 (Mitteleuropäische Sommerzeit)","2","6","1","1728464117096"
"1218","j","SpeechGestureMatch","../RequiredFiles/videos/NeinDaumenhoch_m.mp4","Ist der Ball in der blauen Box?","Blue","Green","J","negation","mismatch","speech","no","ThumbUp","male","speech-gesture","1368","912","edge-chromium","61.16","Windows 10","21","female","left","Wed Oct 09 2024 10:11:05 GMT+0200 (Mitteleuropäische Sommerzeit)","2","7","0","1728464117096"
"782","j","SpeechGestureMatch","../RequiredFiles/videos/NeinDaumenhoch_m.mp4","Ist der Ball in der grünen Box?","Green","Blue","J","negation","mismatch","speech","no","ThumbUp","male","speech-gesture","1368","912","edge-chromium","61.16","Windows 10","21","female","left","Wed Oct 09 2024 10:11:11 GMT+0200 (Mitteleuropäische Sommerzeit)","2","8","0","1728464117096"
"1098","f","SpeechGestureMatch","../RequiredFiles/videos/JaDaumenhoch_m_no_gesture.mp4","Ist der Ball in der grünen Box?","Blue","Green","J","affirmation","na","speech","yes","na","male","speech-gesture","1368","912","edge-chromium","61.16","Windows 10","21","female","left","Wed Oct 09 2024 10:11:18 GMT+0200 (Mitteleuropäische Sommerzeit)","2","9","1","1728464117096"
"1163","f","SpeechGestureMatch","../RequiredFiles/videos/NeinDaumenhoch_m_no_gesture.mp4","Ist der Ball in der blauen Box?","Green","Blue","F","negation","na","speech","no","na","male","speech-gesture","1368","912","edge-chromium","61.16","Windows 10","21","female","left","Wed Oct 09 2024 10:11:25 GMT+0200 (Mitteleuropäische Sommerzeit)","2","10","0","1728464117096"
"893","j","SpeechGestureMatch","../RequiredFiles/videos/JaDaumenrunter_f_no_gesture.mp4","Ist der Ball in der blauen Box?","Green","Blue","J","affirmation","na","speech","yes","na","female","speech-gesture","1368","912","edge-chromium","61.16","Windows 10","21","female","left","Wed Oct 09 2024 10:11:31 GMT+0200 (Mitteleuropäische Sommerzeit)","2","11","0","1728464117096"
"860","j","SpeechGestureMatch","../RequiredFiles/videos/JaDaumenhoch_m_no_gesture.mp4","Ist der Ball in der blauen Box?","Green","Blue","J","affirmation","na","speech","yes","na","male","speech-gesture","1368","912","edge-chromium","61.16","Windows 10","21","female","left","Wed Oct 09 2024 10:11:37 GMT+0200 (Mitteleuropäische Sommerzeit)","2","12","0","1728464117096"
"936","j","SpeechGestureMatch","../RequiredFiles/videos/NeinDaumenhoch_f.mp4","Ist der Ball in der blauen Box?","Blue","Green","J","negation","mismatch","speech","no","ThumbUp","female","speech-gesture","1368","912","edge-chromium","61.16","Windows 10","21","female","left","Wed Oct 09 2024 10:11:44 GMT+0200 (Mitteleuropäische Sommerzeit)","2","13","0","1728464117096"
"994","f","SpeechGestureMatch","../RequiredFiles/videos/JaDaumenrunter_f_no_gesture.mp4","Ist der Ball in der blauen Box?","Blue","Green","F","affirmation","na","speech","yes","na","female","speech-gesture","1368","912","edge-chromium","61.16","Windows 10","21","female","left","Wed Oct 09 2024 10:11:50 GMT+0200 (Mitteleuropäische Sommerzeit)","2","14","0","1728464117096"
"1734","j","SpeechGestureMatch","../RequiredFiles/videos/JaDaumenrunter_f.mp4","Ist der Ball in der grünen Box?","Blue","Green","J","affirmation","mismatch","speech","yes","ThumbDown","female","speech-gesture","1368","912","edge-chromium","61.16","Windows 10","21","female","left","Wed Oct 09 2024 10:11:58 GMT+0200 (Mitteleuropäische Sommerzeit)","2","15","0","1728464117096"
"1023","j","SpeechGestureMatch","../RequiredFiles/videos/JaDaumenhoch_f.mp4","Ist der Ball in der grünen Box?","Blue","Green","J","affirmation","match","speech","yes","ThumbUp","female","speech-gesture","1368","912","edge-chromium","61.16","Windows 10","21","female","left","Wed Oct 09 2024 10:12:04 GMT+0200 (Mitteleuropäische Sommerzeit)","2","16","0","1728464117096"
"910","j","SpeechGestureMatch","../RequiredFiles/videos/JaDaumenrunter_m_no_gesture.mp4","Ist der Ball in der grünen Box?","Blue","Green","J","affirmation","na","speech","yes","na","male","speech-gesture","1368","912","edge-chromium","61.16","Windows 10","21","female","left","Wed Oct 09 2024 10:12:11 GMT+0200 (Mitteleuropäische Sommerzeit)","2","17","0","1728464117096"
"894","f","SpeechGestureMatch","../RequiredFiles/videos/JaDaumenhoch_f.mp4","Ist der Ball in der grünen Box?","Green","Blue","F","affirmation","match","speech","yes","ThumbUp","female","speech-gesture","1368","912","edge-chromium","61.16","Windows 10","21","female","left","Wed Oct 09 2024 10:12:17 GMT+0200 (Mitteleuropäische Sommerzeit)","2","18","0","1728464117096"
"901","j","SpeechGestureMatch","../RequiredFiles/videos/NeinDaumenhoch_f.mp4","Ist der Ball in der grünen Box?","Green","Blue","J","negation","mismatch","speech","no","ThumbUp","female","speech-gesture","1368","912","edge-chromium","61.16","Windows 10","21","female","left","Wed Oct 09 2024 10:12:24 GMT+0200 (Mitteleuropäische Sommerzeit)","2","19","0","1728464117096"
"1491","j","SpeechGestureMatch","../RequiredFiles/videos/JaDaumenrunter_f.mp4","Ist der Ball in der blauen Box?","Green","Blue","J","affirmation","mismatch","speech","yes","ThumbDown","female","speech-gesture","1368","912","edge-chromium","61.16","Windows 10","21","female","left","Wed Oct 09 2024 10:12:31 GMT+0200 (Mitteleuropäische Sommerzeit)","2","20","0","1728464117096"
"926","f","SpeechGestureMatch","../RequiredFiles/videos/JaDaumenhoch_f.mp4","Ist der Ball in der grünen Box?","Green","Blue","F","affirmation","match","speech","yes","ThumbUp","female","speech-gesture","1368","912","edge-chromium","61.16","Windows 10","21","female","left","Wed Oct 09 2024 10:12:37 GMT+0200 (Mitteleuropäische Sommerzeit)","2","21","0","1728464117096"
"1245","j","SpeechGestureMatch","../RequiredFiles/videos/NeinDaumenhoch_f_no_gesture.mp4","Ist der Ball in der blauen Box?","Blue","Green","J","negation","na","speech","no","na","female","speech-gesture","1368","912","edge-chromium","61.16","Windows 10","21","female","left","Wed Oct 09 2024 10:12:44 GMT+0200 (Mitteleuropäische Sommerzeit)","2","22","0","1728464117096"
"776","f","SpeechGestureMatch","../RequiredFiles/videos/JaDaumenhoch_m.mp4","Ist der Ball in der grünen Box?","Green","Blue","F","affirmation","match","speech","yes","ThumbUp","male","speech-gesture","1368","912","edge-chromium","61.16","Windows 10","21","female","left","Wed Oct 09 2024 10:12:50 GMT+0200 (Mitteleuropäische Sommerzeit)","2","23","0","1728464117096"
"954","j","SpeechGestureMatch","../RequiredFiles/videos/NeinDaumenrunter_f_no_gesture.mp4","Ist der Ball in der grünen Box?","Green","Blue","J","negation","na","speech","no","na","female","speech-gesture","1368","912","edge-chromium","61.16","Windows 10","21","female","left","Wed Oct 09 2024 10:12:57 GMT+0200 (Mitteleuropäische Sommerzeit)","2","24","0","1728464117096"
"745","f","SpeechGestureMatch","../RequiredFiles/videos/JaDaumenrunter_m.mp4","Ist der Ball in der blauen Box?","Blue","Green","F","affirmation","mismatch","speech","yes","ThumbDown","male","speech-gesture","1368","912","edge-chromium","61.16","Windows 10","21","female","left","Wed Oct 09 2024 10:13:03 GMT+0200 (Mitteleuropäische Sommerzeit)","2","25","0","1728464117096"
"765","j","SpeechGestureMatch","../RequiredFiles/videos/JaDaumenhoch_m.mp4","Ist der Ball in der blauen Box?","Green","Blue","J","affirmation","match","speech","yes","ThumbUp","male","speech-gesture","1368","912","edge-chromium","61.16","Windows 10","21","female","left","Wed Oct 09 2024 10:13:09 GMT+0200 (Mitteleuropäische Sommerzeit)","2","26","0","1728464117096"
"1135","f","SpeechGestureMatch","../RequiredFiles/videos/NeinDaumenrunter_f.mp4","Ist der Ball in der blauen Box?","Green","Blue","F","negation","match","speech","no","ThumbDown","female","speech-gesture","1368","912","edge-chromium","61.16","Windows 10","21","female","left","Wed Oct 09 2024 10:13:16 GMT+0200 (Mitteleuropäische Sommerzeit)","2","27","0","1728464117096"
"1046","f","SpeechGestureMatch","../RequiredFiles/videos/JaDaumenrunter_f_no_gesture.mp4","Ist der Ball in der grünen Box?","Green","Blue","F","affirmation","na","speech","yes","na","female","speech-gesture","1368","912","edge-chromium","61.16","Windows 10","21","female","left","Wed Oct 09 2024 10:13:23 GMT+0200 (Mitteleuropäische Sommerzeit)","2","28","0","1728464117096"
"855","f","SpeechGestureMatch","../RequiredFiles/videos/JaDaumenhoch_f_no_gesture.mp4","Ist der Ball in der blauen Box?","Blue","Green","F","affirmation","na","speech","yes","na","female","speech-gesture","1368","912","edge-chromium","61.16","Windows 10","21","female","left","Wed Oct 09 2024 10:13:29 GMT+0200 (Mitteleuropäische Sommerzeit)","2","29","0","1728464117096"
"877","f","SpeechGestureMatch","../RequiredFiles/videos/JaDaumenrunter_m.mp4","Ist der Ball in der blauen Box?","Blue","Green","F","affirmation","mismatch","speech","yes","ThumbDown","male","speech-gesture","1368","912","edge-chromium","61.16","Windows 10","21","female","left","Wed Oct 09 2024 10:13:35 GMT+0200 (Mitteleuropäische Sommerzeit)","2","30","0","1728464117096"
"969","j","SpeechGestureMatch","../RequiredFiles/videos/NeinDaumenrunter_m_no_gesture.mp4","Ist der Ball in der blauen Box?","Green","Blue","F","negation","na","speech","no","na","male","speech-gesture","1368","912","edge-chromium","61.16","Windows 10","21","female","left","Wed Oct 09 2024 10:13:42 GMT+0200 (Mitteleuropäische Sommerzeit)","2","31","1","1728464117096"
"846","f","SpeechGestureMatch","../RequiredFiles/videos/NeinDaumenhoch_f.mp4","Ist der Ball in der grünen Box?","Blue","Green","F","negation","mismatch","speech","no","ThumbUp","female","speech-gesture","1368","912","edge-chromium","61.16","Windows 10","21","female","left","Wed Oct 09 2024 10:13:48 GMT+0200 (Mitteleuropäische Sommerzeit)","2","32","0","1728464117096"
"844","f","SpeechGestureMatch","../RequiredFiles/videos/NeinDaumenhoch_f.mp4","Ist der Ball in der blauen Box?","Green","Blue","F","negation","mismatch","speech","no","ThumbUp","female","speech-gesture","1368","912","edge-chromium","61.16","Windows 10","21","female","left","Wed Oct 09 2024 10:13:55 GMT+0200 (Mitteleuropäische Sommerzeit)","2","33","0","1728464117096"
"792","j","SpeechGestureMatch","../RequiredFiles/videos/NeinDaumenhoch_m_no_gesture.mp4","Ist der Ball in der grünen Box?","Green","Blue","J","negation","na","speech","no","na","male","speech-gesture","1368","912","edge-chromium","61.16","Windows 10","21","female","left","Wed Oct 09 2024 10:14:01 GMT+0200 (Mitteleuropäische Sommerzeit)","2","34","0","1728464117096"
"693","j","SpeechGestureMatch","../RequiredFiles/videos/NeinDaumenrunter_m.mp4","Ist der Ball in der grünen Box?","Green","Blue","J","negation","match","speech","no","ThumbDown","male","speech-gesture","1368","912","edge-chromium","61.16","Windows 10","21","female","left","Wed Oct 09 2024 10:14:07 GMT+0200 (Mitteleuropäische Sommerzeit)","2","35","0","1728464117096"
"778","f","SpeechGestureMatch","../RequiredFiles/videos/NeinDaumenhoch_m.mp4","Ist der Ball in der blauen Box?","Green","Blue","F","negation","mismatch","speech","no","ThumbUp","male","speech-gesture","1368","912","edge-chromium","61.16","Windows 10","21","female","left","Wed Oct 09 2024 10:14:14 GMT+0200 (Mitteleuropäische Sommerzeit)","2","36","0","1728464117096"
"1055","f","SpeechGestureMatch","../RequiredFiles/videos/JaDaumenrunter_m.mp4","Ist der Ball in der grünen Box?","Green","Blue","F","affirmation","mismatch","speech","yes","ThumbDown","male","speech-gesture","1368","912","edge-chromium","61.16","Windows 10","21","female","left","Wed Oct 09 2024 10:14:20 GMT+0200 (Mitteleuropäische Sommerzeit)","2","37","0","1728464117096"
"1062","j","SpeechGestureMatch","../RequiredFiles/videos/JaDaumenrunter_f.mp4","Ist der Ball in der grünen Box?","Green","Blue","F","affirmation","mismatch","speech","yes","ThumbDown","female","speech-gesture","1368","912","edge-chromium","61.16","Windows 10","21","female","left","Wed Oct 09 2024 10:14:27 GMT+0200 (Mitteleuropäische Sommerzeit)","2","38","1","1728464117096"
"1096","j","SpeechGestureMatch","../RequiredFiles/videos/JaDaumenhoch_m.mp4","Ist der Ball in der blauen Box?","Green","Blue","J","affirmation","match","speech","yes","ThumbUp","male","speech-gesture","1368","912","edge-chromium","61.16","Windows 10","21","female","left","Wed Oct 09 2024 10:14:34 GMT+0200 (Mitteleuropäische Sommerzeit)","2","39","0","1728464117096"
"1166","j","SpeechGestureMatch","../RequiredFiles/videos/NeinDaumenrunter_m.mp4","Ist der Ball in der blauen Box?","Blue","Green","J","negation","match","speech","no","ThumbDown","male","speech-gesture","1368","912","edge-chromium","61.16","Windows 10","21","female","left","Wed Oct 09 2024 10:14:40 GMT+0200 (Mitteleuropäische Sommerzeit)","2","40","0","1728464117096"
"1494","j","SpeechGestureMatch","../RequiredFiles/videos/NeinDaumenrunter_m_no_gesture.mp4","Ist der Ball in der blauen Box?","Blue","Green","J","negation","na","speech","no","na","male","speech-gesture","1368","912","edge-chromium","61.16","Windows 10","21","female","left","Wed Oct 09 2024 10:14:47 GMT+0200 (Mitteleuropäische Sommerzeit)","2","41","0","1728464117096"
"844","f","SpeechGestureMatch","../RequiredFiles/videos/NeinDaumenrunter_f_no_gesture.mp4","Ist der Ball in der blauen Box?","Green","Blue","F","negation","na","speech","no","na","female","speech-gesture","1368","912","edge-chromium","61.16","Windows 10","21","female","left","Wed Oct 09 2024 10:14:54 GMT+0200 (Mitteleuropäische Sommerzeit)","2","42","0","1728464117096"
"944","j","SpeechGestureMatch","../RequiredFiles/videos/NeinDaumenhoch_f.mp4","Ist der Ball in der grünen Box?","Green","Blue","J","negation","mismatch","speech","no","ThumbUp","female","speech-gesture","1368","912","edge-chromium","61.16","Windows 10","21","female","left","Wed Oct 09 2024 10:15:00 GMT+0200 (Mitteleuropäische Sommerzeit)","2","43","0","1728464117096"
"989","f","SpeechGestureMatch","../RequiredFiles/videos/NeinDaumenrunter_m.mp4","Ist der Ball in der grünen Box?","Blue","Green","F","negation","match","speech","no","ThumbDown","male","speech-gesture","1368","912","edge-chromium","61.16","Windows 10","21","female","left","Wed Oct 09 2024 10:15:07 GMT+0200 (Mitteleuropäische Sommerzeit)","2","44","0","1728464117096"
"1175","f","SpeechGestureMatch","../RequiredFiles/videos/NeinDaumenhoch_m.mp4","Ist der Ball in der grünen Box?","Blue","Green","F","negation","mismatch","speech","no","ThumbUp","male","speech-gesture","1368","912","edge-chromium","61.16","Windows 10","21","female","left","Wed Oct 09 2024 10:15:14 GMT+0200 (Mitteleuropäische Sommerzeit)","2","45","0","1728464117096"
"1042","f","SpeechGestureMatch","../RequiredFiles/videos/JaDaumenhoch_f.mp4","Ist der Ball in der blauen Box?","Blue","Green","F","affirmation","match","speech","yes","ThumbUp","female","speech-gesture","1368","912","edge-chromium","61.16","Windows 10","21","female","left","Wed Oct 09 2024 10:15:20 GMT+0200 (Mitteleuropäische Sommerzeit)","2","46","0","1728464117096"
"1012","j","SpeechGestureMatch","../RequiredFiles/videos/JaDaumenrunter_m_no_gesture.mp4","Ist der Ball in der blauen Box?","Green","Blue","J","affirmation","na","speech","yes","na","male","speech-gesture","1368","912","edge-chromium","61.16","Windows 10","21","female","left","Wed Oct 09 2024 10:15:27 GMT+0200 (Mitteleuropäische Sommerzeit)","2","47","0","1728464117096"
"1013","j","SpeechGestureMatch","../RequiredFiles/videos/NeinDaumenhoch_f.mp4","Ist der Ball in der grünen Box?","Blue","Green","F","negation","mismatch","speech","no","ThumbUp","female","speech-gesture","1368","912","edge-chromium","61.16","Windows 10","21","female","left","Wed Oct 09 2024 10:15:33 GMT+0200 (Mitteleuropäische Sommerzeit)","2","48","1","1728464117096"
"838","f","SpeechGestureMatch","../RequiredFiles/videos/NeinDaumenhoch_m.mp4","Ist der Ball in der grünen Box?","Blue","Green","F","negation","mismatch","speech","no","ThumbUp","male","speech-gesture","1368","912","edge-chromium","61.16","Windows 10","21","female","left","Wed Oct 09 2024 10:15:40 GMT+0200 (Mitteleuropäische Sommerzeit)","2","49","0","1728464117096"
"742","j","SpeechGestureMatch","../RequiredFiles/videos/NeinDaumenrunter_m_no_gesture.mp4","Ist der Ball in der grünen Box?","Green","Blue","J","negation","na","speech","no","na","male","speech-gesture","1368","912","edge-chromium","61.16","Windows 10","21","female","left","Wed Oct 09 2024 10:15:46 GMT+0200 (Mitteleuropäische Sommerzeit)","2","50","0","1728464117096"
"813","j","SpeechGestureMatch","../RequiredFiles/videos/NeinDaumenhoch_m_no_gesture.mp4","Ist der Ball in der blauen Box?","Blue","Green","J","negation","na","speech","no","na","male","speech-gesture","1368","912","edge-chromium","61.16","Windows 10","21","female","left","Wed Oct 09 2024 10:15:52 GMT+0200 (Mitteleuropäische Sommerzeit)","2","51","0","1728464117096"
"1035","f","SpeechGestureMatch","../RequiredFiles/videos/NeinDaumenhoch_f.mp4","Ist der Ball in der blauen Box?","Green","Blue","F","negation","mismatch","speech","no","ThumbUp","female","speech-gesture","1368","912","edge-chromium","61.16","Windows 10","21","female","left","Wed Oct 09 2024 10:15:59 GMT+0200 (Mitteleuropäische Sommerzeit)","2","52","0","1728464117096"
"1078","j","SpeechGestureMatch","../RequiredFiles/videos/NeinDaumenhoch_m.mp4","Ist der Ball in der blauen Box?","Blue","Green","J","negation","mismatch","speech","no","ThumbUp","male","speech-gesture","1368","912","edge-chromium","61.16","Windows 10","21","female","left","Wed Oct 09 2024 10:16:06 GMT+0200 (Mitteleuropäische Sommerzeit)","2","53","0","1728464117096"
"975","f","SpeechGestureMatch","../RequiredFiles/videos/NeinDaumenhoch_f_no_gesture.mp4","Ist der Ball in der grünen Box?","Blue","Green","F","negation","na","speech","no","na","female","speech-gesture","1368","912","edge-chromium","61.16","Windows 10","21","female","left","Wed Oct 09 2024 10:16:12 GMT+0200 (Mitteleuropäische Sommerzeit)","2","54","0","1728464117096"
"1180","j","SpeechGestureMatch","../RequiredFiles/videos/JaDaumenrunter_m.mp4","Ist der Ball in der blauen Box?","Green","Blue","J","affirmation","mismatch","speech","yes","ThumbDown","male","speech-gesture","1368","912","edge-chromium","61.16","Windows 10","21","female","left","Wed Oct 09 2024 10:16:19 GMT+0200 (Mitteleuropäische Sommerzeit)","2","55","0","1728464117096"
"1119","f","SpeechGestureMatch","../RequiredFiles/videos/NeinDaumenrunter_f.mp4","Ist der Ball in der grünen Box?","Green","Blue","J","negation","match","speech","no","ThumbDown","female","speech-gesture","1368","912","edge-chromium","61.16","Windows 10","21","female","left","Wed Oct 09 2024 10:16:25 GMT+0200 (Mitteleuropäische Sommerzeit)","2","56","1","1728464117096"
"1010","j","SpeechGestureMatch","../RequiredFiles/videos/JaDaumenrunter_m.mp4","Ist der Ball in der blauen Box?","Green","Blue","J","affirmation","mismatch","speech","yes","ThumbDown","male","speech-gesture","1368","912","edge-chromium","61.16","Windows 10","21","female","left","Wed Oct 09 2024 10:16:32 GMT+0200 (Mitteleuropäische Sommerzeit)","2","57","0","1728464117096"
"994","j","SpeechGestureMatch","../RequiredFiles/videos/JaDaumenhoch_f.mp4","Ist der Ball in der blauen Box?","Green","Blue","J","affirmation","match","speech","yes","ThumbUp","female","speech-gesture","1368","912","edge-chromium","61.16","Windows 10","21","female","left","Wed Oct 09 2024 10:16:39 GMT+0200 (Mitteleuropäische Sommerzeit)","2","58","0","1728464117096"
"780","j","SpeechGestureMatch","../RequiredFiles/videos/JaDaumenhoch_m.mp4","Ist der Ball in der grünen Box?","Blue","Green","J","affirmation","match","speech","yes","ThumbUp","male","speech-gesture","1368","912","edge-chromium","61.16","Windows 10","21","female","left","Wed Oct 09 2024 10:16:45 GMT+0200 (Mitteleuropäische Sommerzeit)","2","59","0","1728464117096"
"904","f","SpeechGestureMatch","../RequiredFiles/videos/JaDaumenhoch_f.mp4","Ist der Ball in der blauen Box?","Blue","Green","F","affirmation","match","speech","yes","ThumbUp","female","speech-gesture","1368","912","edge-chromium","61.16","Windows 10","21","female","left","Wed Oct 09 2024 10:16:51 GMT+0200 (Mitteleuropäische Sommerzeit)","2","60","0","1728464117096"
"877","j","SpeechGestureMatch","../RequiredFiles/videos/JaDaumenhoch_f.mp4","Ist der Ball in der grünen Box?","Blue","Green","J","affirmation","match","speech","yes","ThumbUp","female","speech-gesture","1368","912","edge-chromium","61.16","Windows 10","21","female","left","Wed Oct 09 2024 10:16:58 GMT+0200 (Mitteleuropäische Sommerzeit)","2","61","0","1728464117096"
"781","f","SpeechGestureMatch","../RequiredFiles/videos/JaDaumenrunter_f.mp4","Ist der Ball in der grünen Box?","Green","Blue","F","affirmation","mismatch","speech","yes","ThumbDown","female","speech-gesture","1368","912","edge-chromium","61.16","Windows 10","21","female","left","Wed Oct 09 2024 10:17:04 GMT+0200 (Mitteleuropäische Sommerzeit)","2","62","0","1728464117096"
"972","f","SpeechGestureMatch","../RequiredFiles/videos/NeinDaumenrunter_m_no_gesture.mp4","Ist der Ball in der grünen Box?","Blue","Green","F","negation","na","speech","no","na","male","speech-gesture","1368","912","edge-chromium","61.16","Windows 10","21","female","left","Wed Oct 09 2024 10:17:11 GMT+0200 (Mitteleuropäische Sommerzeit)","2","63","0","1728464117096"
"1019","j","SpeechGestureMatch","../RequiredFiles/videos/JaDaumenhoch_f.mp4","Ist der Ball in der blauen Box?","Green","Blue","J","affirmation","match","speech","yes","ThumbUp","female","speech-gesture","1368","912","edge-chromium","61.16","Windows 10","21","female","left","Wed Oct 09 2024 10:17:17 GMT+0200 (Mitteleuropäische Sommerzeit)","2","64","0","1728464117096"
"958","f","SpeechGestureMatch","../RequiredFiles/videos/JaDaumenrunter_m_no_gesture.mp4","Ist der Ball in der grünen Box?","Green","Blue","F","affirmation","na","speech","yes","na","male","speech-gesture","1368","912","edge-chromium","61.16","Windows 10","21","female","left","Wed Oct 09 2024 10:17:24 GMT+0200 (Mitteleuropäische Sommerzeit)","2","65","0","1728464117096"
"798","j","SpeechGestureMatch","../RequiredFiles/videos/NeinDaumenrunter_m.mp4","Ist der Ball in der grünen Box?","Green","Blue","J","negation","match","speech","no","ThumbDown","male","speech-gesture","1368","912","edge-chromium","61.16","Windows 10","21","female","left","Wed Oct 09 2024 10:17:30 GMT+0200 (Mitteleuropäische Sommerzeit)","2","66","0","1728464117096"
"902","j","SpeechGestureMatch","../RequiredFiles/videos/NeinDaumenrunter_m.mp4","Ist der Ball in der grünen Box?","Blue","Green","F","negation","match","speech","no","ThumbDown","male","speech-gesture","1368","912","edge-chromium","61.16","Windows 10","21","female","left","Wed Oct 09 2024 10:17:36 GMT+0200 (Mitteleuropäische Sommerzeit)","2","67","1","1728464117096"
"884","j","SpeechGestureMatch","../RequiredFiles/videos/JaDaumenrunter_f.mp4","Ist der Ball in der grünen Box?","Blue","Green","J","affirmation","mismatch","speech","yes","ThumbDown","female","speech-gesture","1368","912","edge-chromium","61.16","Windows 10","21","female","left","Wed Oct 09 2024 10:17:43 GMT+0200 (Mitteleuropäische Sommerzeit)","2","68","0","1728464117096"
"1154","j","SpeechGestureMatch","../RequiredFiles/videos/NeinDaumenrunter_f_no_gesture.mp4","Ist der Ball in der blauen Box?","Blue","Green","J","negation","na","speech","no","na","female","speech-gesture","1368","912","edge-chromium","61.16","Windows 10","21","female","left","Wed Oct 09 2024 10:17:50 GMT+0200 (Mitteleuropäische Sommerzeit)","2","69","0","1728464117096"
"1238","f","SpeechGestureMatch","../RequiredFiles/videos/NeinDaumenhoch_f_no_gesture.mp4","Ist der Ball in der blauen Box?","Green","Blue","F","negation","na","speech","no","na","female","speech-gesture","1368","912","edge-chromium","61.16","Windows 10","21","female","left","Wed Oct 09 2024 10:17:56 GMT+0200 (Mitteleuropäische Sommerzeit)","2","70","0","1728464117096"
"884","f","SpeechGestureMatch","../RequiredFiles/videos/JaDaumenhoch_m.mp4","Ist der Ball in der grünen Box?","Green","Blue","F","affirmation","match","speech","yes","ThumbUp","male","speech-gesture","1368","912","edge-chromium","61.16","Windows 10","21","female","left","Wed Oct 09 2024 10:18:03 GMT+0200 (Mitteleuropäische Sommerzeit)","2","71","0","1728464117096"
"1060","f","SpeechGestureMatch","../RequiredFiles/videos/NeinDaumenrunter_f.mp4","Ist der Ball in der grünen Box?","Blue","Green","F","negation","match","speech","no","ThumbDown","female","speech-gesture","1368","912","edge-chromium","61.16","Windows 10","21","female","left","Wed Oct 09 2024 10:18:09 GMT+0200 (Mitteleuropäische Sommerzeit)","2","72","0","1728464117096"
"768","j","SpeechGestureMatch","../RequiredFiles/videos/JaDaumenrunter_m.mp4","Ist der Ball in der grünen Box?","Blue","Green","J","affirmation","mismatch","speech","yes","ThumbDown","male","speech-gesture","1368","912","edge-chromium","61.16","Windows 10","21","female","left","Wed Oct 09 2024 10:18:16 GMT+0200 (Mitteleuropäische Sommerzeit)","2","73","0","1728464117096"
"695","f","SpeechGestureMatch","../RequiredFiles/videos/JaDaumenhoch_m.mp4","Ist der Ball in der blauen Box?","Blue","Green","F","affirmation","match","speech","yes","ThumbUp","male","speech-gesture","1368","912","edge-chromium","61.16","Windows 10","21","female","left","Wed Oct 09 2024 10:18:22 GMT+0200 (Mitteleuropäische Sommerzeit)","2","74","0","1728464117096"
"863","f","SpeechGestureMatch","../RequiredFiles/videos/JaDaumenrunter_m.mp4","Ist der Ball in der grünen Box?","Green","Blue","F","affirmation","mismatch","speech","yes","ThumbDown","male","speech-gesture","1368","912","edge-chromium","61.16","Windows 10","21","female","left","Wed Oct 09 2024 10:18:28 GMT+0200 (Mitteleuropäische Sommerzeit)","2","75","0","1728464117096"
"989","f","SpeechGestureMatch","../RequiredFiles/videos/NeinDaumenrunter_f.mp4","Ist der Ball in der blauen Box?","Green","Blue","F","negation","match","speech","no","ThumbDown","female","speech-gesture","1368","912","edge-chromium","61.16","Windows 10","21","female","left","Wed Oct 09 2024 10:18:35 GMT+0200 (Mitteleuropäische Sommerzeit)","2","76","0","1728464117096"
"971","f","SpeechGestureMatch","../RequiredFiles/videos/JaDaumenhoch_m_no_gesture.mp4","Ist der Ball in der grünen Box?","Green","Blue","F","affirmation","na","speech","yes","na","male","speech-gesture","1368","912","edge-chromium","61.16","Windows 10","21","female","left","Wed Oct 09 2024 10:18:41 GMT+0200 (Mitteleuropäische Sommerzeit)","2","77","0","1728464117096"
"1269","j","SpeechGestureMatch","../RequiredFiles/videos/NeinDaumenrunter_f.mp4","Ist der Ball in der grünen Box?","Green","Blue","J","negation","match","speech","no","ThumbDown","female","speech-gesture","1368","912","edge-chromium","61.16","Windows 10","21","female","left","Wed Oct 09 2024 10:18:48 GMT+0200 (Mitteleuropäische Sommerzeit)","2","78","0","1728464117096"
"909","j","SpeechGestureMatch","../RequiredFiles/videos/NeinDaumenrunter_f.mp4","Ist der Ball in der blauen Box?","Blue","Green","J","negation","match","speech","no","ThumbDown","female","speech-gesture","1368","912","edge-chromium","61.16","Windows 10","21","female","left","Wed Oct 09 2024 10:18:55 GMT+0200 (Mitteleuropäische Sommerzeit)","2","79","0","1728464117096"
"991","f","SpeechGestureMatch","../RequiredFiles/videos/NeinDaumenhoch_m.mp4","Ist der Ball in der blauen Box?","Green","Blue","F","negation","mismatch","speech","no","ThumbUp","male","speech-gesture","1368","912","edge-chromium","61.16","Windows 10","21","female","left","Wed Oct 09 2024 10:19:01 GMT+0200 (Mitteleuropäische Sommerzeit)","2","80","0","1728464117096"
"999","f","SpeechGestureMatch","../RequiredFiles/videos/NeinDaumenrunter_f_no_gesture.mp4","Ist der Ball in der grünen Box?","Blue","Green","F","negation","na","speech","no","na","female","speech-gesture","1368","912","edge-chromium","61.16","Windows 10","21","female","left","Wed Oct 09 2024 10:19:08 GMT+0200 (Mitteleuropäische Sommerzeit)","2","81","0","1728464117096"
"937","j","SpeechGestureMatch","../RequiredFiles/videos/JaDaumenhoch_f_no_gesture.mp4","Ist der Ball in der blauen Box?","Green","Blue","J","affirmation","na","speech","yes","na","female","speech-gesture","1368","912","edge-chromium","61.16","Windows 10","21","female","left","Wed Oct 09 2024 10:19:14 GMT+0200 (Mitteleuropäische Sommerzeit)","2","82","0","1728464117096"
"8905","j","SpeechGestureMatch","../RequiredFiles/videos/NeinDaumenhoch_f_no_gesture.mp4","Ist der Ball in der grünen Box?","Green","Blue","J","negation","na","speech","no","na","female","speech-gesture","1368","912","edge-chromium","61.16","Windows 10","21","female","left","Wed Oct 09 2024 10:19:29 GMT+0200 (Mitteleuropäische Sommerzeit)","2","83","0","1728464117096"
"1512","j","SpeechGestureMatch","../RequiredFiles/videos/JaDaumenhoch_f_no_gesture.mp4","Ist der Ball in der grünen Box?","Blue","Green","J","affirmation","na","speech","yes","na","female","speech-gesture","1368","912","edge-chromium","61.16","Windows 10","21","female","left","Wed Oct 09 2024 10:19:36 GMT+0200 (Mitteleuropäische Sommerzeit)","2","84","0","1728464117096"
"1127","f","SpeechGestureMatch","../RequiredFiles/videos/NeinDaumenrunter_f.mp4","Ist der Ball in der grünen Box?","Blue","Green","F","negation","match","speech","no","ThumbDown","female","speech-gesture","1368","912","edge-chromium","61.16","Windows 10","21","female","left","Wed Oct 09 2024 10:19:42 GMT+0200 (Mitteleuropäische Sommerzeit)","2","85","0","1728464117096"
"919","f","SpeechGestureMatch","../RequiredFiles/videos/NeinDaumenhoch_m_no_gesture.mp4","Ist der Ball in der grünen Box?","Blue","Green","F","negation","na","speech","no","na","male","speech-gesture","1368","912","edge-chromium","61.16","Windows 10","21","female","left","Wed Oct 09 2024 10:19:49 GMT+0200 (Mitteleuropäische Sommerzeit)","2","86","0","1728464117096"
"835","j","SpeechGestureMatch","../RequiredFiles/videos/JaDaumenrunter_f.mp4","Ist der Ball in der blauen Box?","Green","Blue","J","affirmation","mismatch","speech","yes","ThumbDown","female","speech-gesture","1368","912","edge-chromium","61.16","Windows 10","21","female","left","Wed Oct 09 2024 10:19:55 GMT+0200 (Mitteleuropäische Sommerzeit)","2","87","0","1728464117096"
"1091","j","SpeechGestureMatch","../RequiredFiles/videos/JaDaumenrunter_f.mp4","Ist der Ball in der blauen Box?","Blue","Green","F","affirmation","mismatch","speech","yes","ThumbDown","female","speech-gesture","1368","912","edge-chromium","61.16","Windows 10","21","female","left","Wed Oct 09 2024 10:20:02 GMT+0200 (Mitteleuropäische Sommerzeit)","2","88","1","1728464117096"
"832","f","SpeechGestureMatch","../RequiredFiles/videos/JaDaumenrunter_f.mp4","Ist der Ball in der blauen Box?","Blue","Green","F","affirmation","mismatch","speech","yes","ThumbDown","female","speech-gesture","1368","912","edge-chromium","61.16","Windows 10","21","female","left","Wed Oct 09 2024 10:20:08 GMT+0200 (Mitteleuropäische Sommerzeit)","2","89","0","1728464117096"
"804","f","SpeechGestureMatch","../RequiredFiles/videos/JaDaumenhoch_m_no_gesture.mp4","Ist der Ball in der blauen Box?","Blue","Green","F","affirmation","na","speech","yes","na","male","speech-gesture","1368","912","edge-chromium","61.16","Windows 10","21","female","left","Wed Oct 09 2024 10:20:15 GMT+0200 (Mitteleuropäische Sommerzeit)","2","90","0","1728464117096"
"1016","j","SpeechGestureMatch","../RequiredFiles/videos/JaDaumenhoch_m.mp4","Ist der Ball in der blauen Box?","Blue","Green","F","affirmation","match","speech","yes","ThumbUp","male","speech-gesture","1368","912","edge-chromium","61.16","Windows 10","21","female","left","Wed Oct 09 2024 10:20:21 GMT+0200 (Mitteleuropäische Sommerzeit)","2","91","1","1728464117096"
"826","j","SpeechGestureMatch","../RequiredFiles/videos/NeinDaumenhoch_m.mp4","Ist der Ball in der grünen Box?","Green","Blue","J","negation","mismatch","speech","no","ThumbUp","male","speech-gesture","1368","912","edge-chromium","61.16","Windows 10","21","female","left","Wed Oct 09 2024 10:20:28 GMT+0200 (Mitteleuropäische Sommerzeit)","2","92","0","1728464117096"
"940","f","SpeechGestureMatch","../RequiredFiles/videos/JaDaumenrunter_m.mp4","Ist der Ball in der grünen Box?","Blue","Green","J","affirmation","mismatch","speech","yes","ThumbDown","male","speech-gesture","1368","912","edge-chromium","61.16","Windows 10","21","female","left","Wed Oct 09 2024 10:20:34 GMT+0200 (Mitteleuropäische Sommerzeit)","2","93","1","1728464117096"
"1185","f","SpeechGestureMatch","../RequiredFiles/videos/NeinDaumenhoch_f.mp4","Ist der Ball in der blauen Box?","Blue","Green","J","negation","mismatch","speech","no","ThumbUp","female","speech-gesture","1368","912","edge-chromium","61.16","Windows 10","21","female","left","Wed Oct 09 2024 10:20:41 GMT+0200 (Mitteleuropäische Sommerzeit)","2","94","1","1728464117096"
"858","f","SpeechGestureMatch","../RequiredFiles/videos/JaDaumenrunter_m_no_gesture.mp4","Ist der Ball in der blauen Box?","Blue","Green","F","affirmation","na","speech","yes","na","male","speech-gesture","1368","912","edge-chromium","61.16","Windows 10","21","female","left","Wed Oct 09 2024 10:20:47 GMT+0200 (Mitteleuropäische Sommerzeit)","2","95","0","1728464117096"
"882","j","SpeechGestureMatch","../RequiredFiles/videos/NeinDaumenrunter_m.mp4","Ist der Ball in der blauen Box?","Green","Blue","F","negation","match","speech","no","ThumbDown","male","speech-gesture","1368","912","edge-chromium","61.16","Windows 10","21","female","left","Wed Oct 09 2024 10:20:54 GMT+0200 (Mitteleuropäische Sommerzeit)","2","96","1","1728464117096"
"912","f","SpeechGestureMatch","../RequiredFiles/videos/NeinDaumenhoch_f_no_sound.mp4","Ist der Ball in der blauen Box?","Blue","Green","F","affirmation","na","gesture","na","ThumbUp","female","speech-gesture","1368","912","edge-chromium","61.16","Windows 10","21","female","left","Wed Oct 09 2024 10:29:17 GMT+0200 (Mitteleuropäische Sommerzeit)","3","1","0","1728464117096"
"1550","j","SpeechGestureMatch","../RequiredFiles/videos/JaDaumenrunter_f_no_sound.mp4","Ist der Ball in der grünen Box?","Green","Blue","J","negation","na","gesture","na","ThumbDown","female","speech-gesture","1368","912","edge-chromium","61.16","Windows 10","21","female","left","Wed Oct 09 2024 10:29:24 GMT+0200 (Mitteleuropäische Sommerzeit)","3","2","0","1728464117096"
"1905","f","SpeechGestureMatch","../RequiredFiles/videos/NeinDaumenrunter_f.mp4","Ist der Ball in der grünen Box?","Blue","Green","F","negation","match","gesture","no","ThumbDown","female","speech-gesture","1368","912","edge-chromium","61.16","Windows 10","21","female","left","Wed Oct 09 2024 10:29:31 GMT+0200 (Mitteleuropäische Sommerzeit)","3","3","0","1728464117096"
"1337","f","SpeechGestureMatch","../RequiredFiles/videos/JaDaumenrunter_m.mp4","Ist der Ball in der grünen Box?","Green","Blue","J","negation","mismatch","gesture","yes","ThumbDown","male","speech-gesture","1368","912","edge-chromium","61.16","Windows 10","21","female","left","Wed Oct 09 2024 10:29:38 GMT+0200 (Mitteleuropäische Sommerzeit)","3","4","1","1728464117096"
"1012","j","SpeechGestureMatch","../RequiredFiles/videos/JaDaumenhoch_f_no_sound.mp4","Ist der Ball in der grünen Box?","Blue","Green","J","affirmation","na","gesture","na","ThumbUp","female","speech-gesture","1368","912","edge-chromium","61.16","Windows 10","21","female","left","Wed Oct 09 2024 10:29:45 GMT+0200 (Mitteleuropäische Sommerzeit)","3","5","0","1728464117096"
"1782","f","SpeechGestureMatch","../RequiredFiles/videos/JaDaumenrunter_m.mp4","Ist der Ball in der blauen Box?","Green","Blue","F","negation","mismatch","gesture","yes","ThumbDown","male","speech-gesture","1368","912","edge-chromium","61.16","Windows 10","21","female","left","Wed Oct 09 2024 10:29:52 GMT+0200 (Mitteleuropäische Sommerzeit)","3","6","0","1728464117096"
"1728","j","SpeechGestureMatch","../RequiredFiles/videos/JaDaumenrunter_m_no_sound.mp4","Ist der Ball in der blauen Box?","Blue","Green","J","negation","na","gesture","na","ThumbDown","male","speech-gesture","1368","912","edge-chromium","61.16","Windows 10","21","female","left","Wed Oct 09 2024 10:29:59 GMT+0200 (Mitteleuropäische Sommerzeit)","3","7","0","1728464117096"
"1687","f","SpeechGestureMatch","../RequiredFiles/videos/NeinDaumenhoch_m.mp4","Ist der Ball in der grünen Box?","Green","Blue","F","affirmation","mismatch","gesture","no","ThumbUp","male","speech-gesture","1368","912","edge-chromium","61.16","Windows 10","21","female","left","Wed Oct 09 2024 10:30:06 GMT+0200 (Mitteleuropäische Sommerzeit)","3","8","0","1728464117096"
"1033","f","SpeechGestureMatch","../RequiredFiles/videos/JaDaumenhoch_m.mp4","Ist der Ball in der blauen Box?","Blue","Green","F","affirmation","match","gesture","yes","ThumbUp","male","speech-gesture","1368","912","edge-chromium","61.16","Windows 10","21","female","left","Wed Oct 09 2024 10:30:13 GMT+0200 (Mitteleuropäische Sommerzeit)","3","9","0","1728464117096"
"1387","j","SpeechGestureMatch","../RequiredFiles/videos/NeinDaumenhoch_f.mp4","Ist der Ball in der blauen Box?","Green","Blue","J","affirmation","mismatch","gesture","no","ThumbUp","female","speech-gesture","1368","912","edge-chromium","61.16","Windows 10","21","female","left","Wed Oct 09 2024 10:30:20 GMT+0200 (Mitteleuropäische Sommerzeit)","3","10","0","1728464117096"
"1534","j","SpeechGestureMatch","../RequiredFiles/videos/NeinDaumenrunter_f.mp4","Ist der Ball in der blauen Box?","Blue","Green","J","negation","match","gesture","no","ThumbDown","female","speech-gesture","1368","912","edge-chromium","61.16","Windows 10","21","female","left","Wed Oct 09 2024 10:30:27 GMT+0200 (Mitteleuropäische Sommerzeit)","3","11","0","1728464117096"
"1144","j","SpeechGestureMatch","../RequiredFiles/videos/JaDaumenhoch_f.mp4","Ist der Ball in der grünen Box?","Blue","Green","J","affirmation","match","gesture","yes","ThumbUp","female","speech-gesture","1368","912","edge-chromium","61.16","Windows 10","21","female","left","Wed Oct 09 2024 10:30:34 GMT+0200 (Mitteleuropäische Sommerzeit)","3","12","0","1728464117096"
"1146","j","SpeechGestureMatch","../RequiredFiles/videos/JaDaumenrunter_m.mp4","Ist der Ball in der grünen Box?","Green","Blue","J","negation","mismatch","gesture","yes","ThumbDown","male","speech-gesture","1368","912","edge-chromium","61.16","Windows 10","21","female","left","Wed Oct 09 2024 10:30:40 GMT+0200 (Mitteleuropäische Sommerzeit)","3","13","0","1728464117096"
"1025","j","SpeechGestureMatch","../RequiredFiles/videos/NeinDaumenrunter_f.mp4","Ist der Ball in der grünen Box?","Green","Blue","J","negation","match","gesture","no","ThumbDown","female","speech-gesture","1368","912","edge-chromium","61.16","Windows 10","21","female","left","Wed Oct 09 2024 10:30:47 GMT+0200 (Mitteleuropäische Sommerzeit)","3","14","0","1728464117096"
"1113","j","SpeechGestureMatch","../RequiredFiles/videos/JaDaumenhoch_m.mp4","Ist der Ball in der blauen Box?","Green","Blue","J","affirmation","match","gesture","yes","ThumbUp","male","speech-gesture","1368","912","edge-chromium","61.16","Windows 10","21","female","left","Wed Oct 09 2024 10:30:54 GMT+0200 (Mitteleuropäische Sommerzeit)","3","15","0","1728464117096"
"919","j","SpeechGestureMatch","../RequiredFiles/videos/JaDaumenhoch_m_no_sound.mp4","Ist der Ball in der blauen Box?","Green","Blue","J","affirmation","na","gesture","na","ThumbUp","male","speech-gesture","1368","912","edge-chromium","61.16","Windows 10","21","female","left","Wed Oct 09 2024 10:31:00 GMT+0200 (Mitteleuropäische Sommerzeit)","3","16","0","1728464117096"
"1403","j","SpeechGestureMatch","../RequiredFiles/videos/JaDaumenrunter_m.mp4","Ist der Ball in der blauen Box?","Blue","Green","J","negation","mismatch","gesture","yes","ThumbDown","male","speech-gesture","1368","912","edge-chromium","61.16","Windows 10","21","female","left","Wed Oct 09 2024 10:31:07 GMT+0200 (Mitteleuropäische Sommerzeit)","3","17","0","1728464117096"
"975","f","SpeechGestureMatch","../RequiredFiles/videos/JaDaumenhoch_m.mp4","Ist der Ball in der grünen Box?","Green","Blue","F","affirmation","match","gesture","yes","ThumbUp","male","speech-gesture","1368","912","edge-chromium","61.16","Windows 10","21","female","left","Wed Oct 09 2024 10:31:14 GMT+0200 (Mitteleuropäische Sommerzeit)","3","18","0","1728464117096"
"1362","j","SpeechGestureMatch","../RequiredFiles/videos/NeinDaumenhoch_m.mp4","Ist der Ball in der blauen Box?","Blue","Green","F","affirmation","mismatch","gesture","no","ThumbUp","male","speech-gesture","1368","912","edge-chromium","61.16","Windows 10","21","female","left","Wed Oct 09 2024 10:31:20 GMT+0200 (Mitteleuropäische Sommerzeit)","3","19","1","1728464117096"
"955","f","SpeechGestureMatch","../RequiredFiles/videos/JaDaumenrunter_f.mp4","Ist der Ball in der blauen Box?","Green","Blue","F","negation","mismatch","gesture","yes","ThumbDown","female","speech-gesture","1368","912","edge-chromium","61.16","Windows 10","21","female","left","Wed Oct 09 2024 10:31:27 GMT+0200 (Mitteleuropäische Sommerzeit)","3","20","0","1728464117096"
"1073","f","SpeechGestureMatch","../RequiredFiles/videos/NeinDaumenhoch_m.mp4","Ist der Ball in der blauen Box?","Green","Blue","J","affirmation","mismatch","gesture","no","ThumbUp","male","speech-gesture","1368","912","edge-chromium","61.16","Windows 10","21","female","left","Wed Oct 09 2024 10:31:34 GMT+0200 (Mitteleuropäische Sommerzeit)","3","21","1","1728464117096"
"999","f","SpeechGestureMatch","../RequiredFiles/videos/JaDaumenhoch_m.mp4","Ist der Ball in der blauen Box?","Blue","Green","F","affirmation","match","gesture","yes","ThumbUp","male","speech-gesture","1368","912","edge-chromium","61.16","Windows 10","21","female","left","Wed Oct 09 2024 10:31:40 GMT+0200 (Mitteleuropäische Sommerzeit)","3","22","0","1728464117096"
"1092","j","SpeechGestureMatch","../RequiredFiles/videos/NeinDaumenrunter_m_no_sound.mp4","Ist der Ball in der grünen Box?","Green","Blue","J","negation","na","gesture","na","ThumbDown","male","speech-gesture","1368","912","edge-chromium","61.16","Windows 10","21","female","left","Wed Oct 09 2024 10:31:47 GMT+0200 (Mitteleuropäische Sommerzeit)","3","23","0","1728464117096"
"1330","j","SpeechGestureMatch","../RequiredFiles/videos/JaDaumenrunter_f.mp4","Ist der Ball in der blauen Box?","Blue","Green","J","negation","mismatch","gesture","yes","ThumbDown","female","speech-gesture","1368","912","edge-chromium","61.16","Windows 10","21","female","left","Wed Oct 09 2024 10:31:54 GMT+0200 (Mitteleuropäische Sommerzeit)","3","24","0","1728464117096"
"1735","j","SpeechGestureMatch","../RequiredFiles/videos/JaDaumenhoch_f.mp4","Ist der Ball in der blauen Box?","Green","Blue","J","affirmation","match","gesture","yes","ThumbUp","female","speech-gesture","1368","912","edge-chromium","61.16","Windows 10","21","female","left","Wed Oct 09 2024 10:32:01 GMT+0200 (Mitteleuropäische Sommerzeit)","3","25","0","1728464117096"
"1426","f","SpeechGestureMatch","../RequiredFiles/videos/JaDaumenhoch_f.mp4","Ist der Ball in der grünen Box?","Green","Blue","F","affirmation","match","gesture","yes","ThumbUp","female","speech-gesture","1368","912","edge-chromium","61.16","Windows 10","21","female","left","Wed Oct 09 2024 10:32:08 GMT+0200 (Mitteleuropäische Sommerzeit)","3","26","0","1728464117096"
"1361","j","SpeechGestureMatch","../RequiredFiles/videos/NeinDaumenrunter_f.mp4","Ist der Ball in der blauen Box?","Blue","Green","J","negation","match","gesture","no","ThumbDown","female","speech-gesture","1368","912","edge-chromium","61.16","Windows 10","21","female","left","Wed Oct 09 2024 10:32:15 GMT+0200 (Mitteleuropäische Sommerzeit)","3","27","0","1728464117096"
"1169","f","SpeechGestureMatch","../RequiredFiles/videos/JaDaumenhoch_f.mp4","Ist der Ball in der grünen Box?","Blue","Green","J","affirmation","match","gesture","yes","ThumbUp","female","speech-gesture","1368","912","edge-chromium","61.16","Windows 10","21","female","left","Wed Oct 09 2024 10:32:22 GMT+0200 (Mitteleuropäische Sommerzeit)","3","28","1","1728464117096"
"935","j","SpeechGestureMatch","../RequiredFiles/videos/JaDaumenhoch_f_no_sound.mp4","Ist der Ball in der blauen Box?","Green","Blue","J","affirmation","na","gesture","na","ThumbUp","female","speech-gesture","1368","912","edge-chromium","61.16","Windows 10","21","female","left","Wed Oct 09 2024 10:32:28 GMT+0200 (Mitteleuropäische Sommerzeit)","3","29","0","1728464117096"
"1466","f","SpeechGestureMatch","../RequiredFiles/videos/JaDaumenrunter_m.mp4","Ist der Ball in der grünen Box?","Blue","Green","F","negation","mismatch","gesture","yes","ThumbDown","male","speech-gesture","1368","912","edge-chromium","61.16","Windows 10","21","female","left","Wed Oct 09 2024 10:32:35 GMT+0200 (Mitteleuropäische Sommerzeit)","3","30","0","1728464117096"
"1176","j","SpeechGestureMatch","../RequiredFiles/videos/NeinDaumenhoch_f.mp4","Ist der Ball in der grünen Box?","Green","Blue","F","affirmation","mismatch","gesture","no","ThumbUp","female","speech-gesture","1368","912","edge-chromium","61.16","Windows 10","21","female","left","Wed Oct 09 2024 10:32:42 GMT+0200 (Mitteleuropäische Sommerzeit)","3","31","1","1728464117096"
"1191","f","SpeechGestureMatch","../RequiredFiles/videos/NeinDaumenhoch_f.mp4","Ist der Ball in der blauen Box?","Green","Blue","J","affirmation","mismatch","gesture","no","ThumbUp","female","speech-gesture","1368","912","edge-chromium","61.16","Windows 10","21","female","left","Wed Oct 09 2024 10:32:49 GMT+0200 (Mitteleuropäische Sommerzeit)","3","32","1","1728464117096"
"970","j","SpeechGestureMatch","../RequiredFiles/videos/JaDaumenhoch_m_no_sound.mp4","Ist der Ball in der grünen Box?","Blue","Green","J","affirmation","na","gesture","na","ThumbUp","male","speech-gesture","1368","912","edge-chromium","61.16","Windows 10","21","female","left","Wed Oct 09 2024 10:32:55 GMT+0200 (Mitteleuropäische Sommerzeit)","3","33","0","1728464117096"
"1449","j","SpeechGestureMatch","../RequiredFiles/videos/NeinDaumenhoch_m.mp4","Ist der Ball in der grünen Box?","Blue","Green","J","affirmation","mismatch","gesture","no","ThumbUp","male","speech-gesture","1368","912","edge-chromium","61.16","Windows 10","21","female","left","Wed Oct 09 2024 10:33:02 GMT+0200 (Mitteleuropäische Sommerzeit)","3","34","0","1728464117096"
"1072","f","SpeechGestureMatch","../RequiredFiles/videos/NeinDaumenrunter_m.mp4","Ist der Ball in der grünen Box?","Blue","Green","F","negation","match","gesture","no","ThumbDown","male","speech-gesture","1368","912","edge-chromium","61.16","Windows 10","21","female","left","Wed Oct 09 2024 10:33:09 GMT+0200 (Mitteleuropäische Sommerzeit)","3","35","0","1728464117096"
"1261","f","SpeechGestureMatch","../RequiredFiles/videos/NeinDaumenrunter_m_no_sound.mp4","Ist der Ball in der blauen Box?","Green","Blue","F","negation","na","gesture","na","ThumbDown","male","speech-gesture","1368","912","edge-chromium","61.16","Windows 10","21","female","left","Wed Oct 09 2024 10:33:16 GMT+0200 (Mitteleuropäische Sommerzeit)","3","36","0","1728464117096"
"1248","j","SpeechGestureMatch","../RequiredFiles/videos/NeinDaumenrunter_f_no_sound.mp4","Ist der Ball in der grünen Box?","Green","Blue","J","negation","na","gesture","na","ThumbDown","female","speech-gesture","1368","912","edge-chromium","61.16","Windows 10","21","female","left","Wed Oct 09 2024 10:33:22 GMT+0200 (Mitteleuropäische Sommerzeit)","3","37","0","1728464117096"
"1352","j","SpeechGestureMatch","../RequiredFiles/videos/JaDaumenrunter_m.mp4","Ist der Ball in der blauen Box?","Blue","Green","J","negation","mismatch","gesture","yes","ThumbDown","male","speech-gesture","1368","912","edge-chromium","61.16","Windows 10","21","female","left","Wed Oct 09 2024 10:33:29 GMT+0200 (Mitteleuropäische Sommerzeit)","3","38","0","1728464117096"
"1129","f","SpeechGestureMatch","../RequiredFiles/videos/JaDaumenrunter_f_no_sound.mp4","Ist der Ball in der grünen Box?","Blue","Green","F","negation","na","gesture","na","ThumbDown","female","speech-gesture","1368","912","edge-chromium","61.16","Windows 10","21","female","left","Wed Oct 09 2024 10:33:36 GMT+0200 (Mitteleuropäische Sommerzeit)","3","39","0","1728464117096"
"1180","f","SpeechGestureMatch","../RequiredFiles/videos/JaDaumenhoch_m_no_sound.mp4","Ist der Ball in der blauen Box?","Blue","Green","F","affirmation","na","gesture","na","ThumbUp","male","speech-gesture","1368","912","edge-chromium","61.16","Windows 10","21","female","left","Wed Oct 09 2024 10:33:43 GMT+0200 (Mitteleuropäische Sommerzeit)","3","40","0","1728464117096"
"1041","f","SpeechGestureMatch","../RequiredFiles/videos/NeinDaumenhoch_m_no_sound.mp4","Ist der Ball in der blauen Box?","Blue","Green","F","affirmation","na","gesture","na","ThumbUp","male","speech-gesture","1368","912","edge-chromium","61.16","Windows 10","21","female","left","Wed Oct 09 2024 10:33:49 GMT+0200 (Mitteleuropäische Sommerzeit)","3","41","0","1728464117096"
"1541","j","SpeechGestureMatch","../RequiredFiles/videos/NeinDaumenhoch_m.mp4","Ist der Ball in der grünen Box?","Blue","Green","J","affirmation","mismatch","gesture","no","ThumbUp","male","speech-gesture","1368","912","edge-chromium","61.16","Windows 10","21","female","left","Wed Oct 09 2024 10:33:56 GMT+0200 (Mitteleuropäische Sommerzeit)","3","42","0","1728464117096"
"1221","f","SpeechGestureMatch","../RequiredFiles/videos/NeinDaumenhoch_f.mp4","Ist der Ball in der blauen Box?","Blue","Green","F","affirmation","mismatch","gesture","no","ThumbUp","female","speech-gesture","1368","912","edge-chromium","61.16","Windows 10","21","female","left","Wed Oct 09 2024 10:34:03 GMT+0200 (Mitteleuropäische Sommerzeit)","3","43","0","1728464117096"
"1348","j","SpeechGestureMatch","../RequiredFiles/videos/JaDaumenrunter_m_no_sound.mp4","Ist der Ball in der grünen Box?","Green","Blue","J","negation","na","gesture","na","ThumbDown","male","speech-gesture","1368","912","edge-chromium","61.16","Windows 10","21","female","left","Wed Oct 09 2024 10:34:10 GMT+0200 (Mitteleuropäische Sommerzeit)","3","44","0","1728464117096"
"1210","f","SpeechGestureMatch","../RequiredFiles/videos/NeinDaumenrunter_f.mp4","Ist der Ball in der grünen Box?","Blue","Green","F","negation","match","gesture","no","ThumbDown","female","speech-gesture","1368","912","edge-chromium","61.16","Windows 10","21","female","left","Wed Oct 09 2024 10:34:17 GMT+0200 (Mitteleuropäische Sommerzeit)","3","45","0","1728464117096"
"998","f","SpeechGestureMatch","../RequiredFiles/videos/NeinDaumenrunter_f_no_sound.mp4","Ist der Ball in der blauen Box?","Green","Blue","F","negation","na","gesture","na","ThumbDown","female","speech-gesture","1368","912","edge-chromium","61.16","Windows 10","21","female","left","Wed Oct 09 2024 10:34:23 GMT+0200 (Mitteleuropäische Sommerzeit)","3","46","0","1728464117096"
"1395","f","SpeechGestureMatch","../RequiredFiles/videos/NeinDaumenrunter_m.mp4","Ist der Ball in der blauen Box?","Green","Blue","F","negation","match","gesture","no","ThumbDown","male","speech-gesture","1368","912","edge-chromium","61.16","Windows 10","21","female","left","Wed Oct 09 2024 10:34:30 GMT+0200 (Mitteleuropäische Sommerzeit)","3","47","0","1728464117096"
"1440","j","SpeechGestureMatch","../RequiredFiles/videos/NeinDaumenhoch_m.mp4","Ist der Ball in der blauen Box?","Green","Blue","J","affirmation","mismatch","gesture","no","ThumbUp","male","speech-gesture","1368","912","edge-chromium","61.16","Windows 10","21","female","left","Wed Oct 09 2024 10:34:37 GMT+0200 (Mitteleuropäische Sommerzeit)","3","48","0","1728464117096"
"1116","j","SpeechGestureMatch","../RequiredFiles/videos/NeinDaumenhoch_f_no_sound.mp4","Ist der Ball in der blauen Box?","Green","Blue","J","affirmation","na","gesture","na","ThumbUp","female","speech-gesture","1368","912","edge-chromium","61.16","Windows 10","21","female","left","Wed Oct 09 2024 10:34:44 GMT+0200 (Mitteleuropäische Sommerzeit)","3","49","0","1728464117096"
"1673","j","SpeechGestureMatch","../RequiredFiles/videos/NeinDaumenhoch_f_no_sound.mp4","Ist der Ball in der grünen Box?","Blue","Green","J","affirmation","na","gesture","na","ThumbUp","female","speech-gesture","1368","912","edge-chromium","61.16","Windows 10","21","female","left","Wed Oct 09 2024 10:34:51 GMT+0200 (Mitteleuropäische Sommerzeit)","3","50","0","1728464117096"
"1560","j","SpeechGestureMatch","../RequiredFiles/videos/JaDaumenrunter_f.mp4","Ist der Ball in der grünen Box?","Green","Blue","J","negation","mismatch","gesture","yes","ThumbDown","female","speech-gesture","1368","912","edge-chromium","61.16","Windows 10","21","female","left","Wed Oct 09 2024 10:34:58 GMT+0200 (Mitteleuropäische Sommerzeit)","3","51","0","1728464117096"
"883","f","SpeechGestureMatch","../RequiredFiles/videos/JaDaumenhoch_f.mp4","Ist der Ball in der blauen Box?","Blue","Green","F","affirmation","match","gesture","yes","ThumbUp","female","speech-gesture","1368","912","edge-chromium","61.16","Windows 10","21","female","left","Wed Oct 09 2024 10:35:05 GMT+0200 (Mitteleuropäische Sommerzeit)","3","52","0","1728464117096"
"997","j","SpeechGestureMatch","../RequiredFiles/videos/JaDaumenrunter_f.mp4","Ist der Ball in der blauen Box?","Blue","Green","J","negation","mismatch","gesture","yes","ThumbDown","female","speech-gesture","1368","912","edge-chromium","61.16","Windows 10","21","female","left","Wed Oct 09 2024 10:35:11 GMT+0200 (Mitteleuropäische Sommerzeit)","3","53","0","1728464117096"
"1074","f","SpeechGestureMatch","../RequiredFiles/videos/NeinDaumenhoch_f.mp4","Ist der Ball in der grünen Box?","Blue","Green","J","affirmation","mismatch","gesture","no","ThumbUp","female","speech-gesture","1368","912","edge-chromium","61.16","Windows 10","21","female","left","Wed Oct 09 2024 10:35:18 GMT+0200 (Mitteleuropäische Sommerzeit)","3","54","1","1728464117096"
"1025","j","SpeechGestureMatch","../RequiredFiles/videos/JaDaumenhoch_m.mp4","Ist der Ball in der grünen Box?","Blue","Green","J","affirmation","match","gesture","yes","ThumbUp","male","speech-gesture","1368","912","edge-chromium","61.16","Windows 10","21","female","left","Wed Oct 09 2024 10:35:24 GMT+0200 (Mitteleuropäische Sommerzeit)","3","55","0","1728464117096"
"1419","j","SpeechGestureMatch","../RequiredFiles/videos/NeinDaumenhoch_f.mp4","Ist der Ball in der grünen Box?","Green","Blue","F","affirmation","mismatch","gesture","no","ThumbUp","female","speech-gesture","1368","912","edge-chromium","61.16","Windows 10","21","female","left","Wed Oct 09 2024 10:35:31 GMT+0200 (Mitteleuropäische Sommerzeit)","3","56","1","1728464117096"
"1408","f","SpeechGestureMatch","../RequiredFiles/videos/JaDaumenrunter_m.mp4","Ist der Ball in der grünen Box?","Blue","Green","F","negation","mismatch","gesture","yes","ThumbDown","male","speech-gesture","1368","912","edge-chromium","61.16","Windows 10","21","female","left","Wed Oct 09 2024 10:35:38 GMT+0200 (Mitteleuropäische Sommerzeit)","3","57","0","1728464117096"
"949","j","SpeechGestureMatch","../RequiredFiles/videos/JaDaumenhoch_m.mp4","Ist der Ball in der grünen Box?","Blue","Green","J","affirmation","match","gesture","yes","ThumbUp","male","speech-gesture","1368","912","edge-chromium","61.16","Windows 10","21","female","left","Wed Oct 09 2024 10:35:45 GMT+0200 (Mitteleuropäische Sommerzeit)","3","58","0","1728464117096"
"1454","f","SpeechGestureMatch","../RequiredFiles/videos/NeinDaumenrunter_m.mp4","Ist der Ball in der blauen Box?","Blue","Green","J","negation","match","gesture","no","ThumbDown","male","speech-gesture","1368","912","edge-chromium","61.16","Windows 10","21","female","left","Wed Oct 09 2024 10:35:52 GMT+0200 (Mitteleuropäische Sommerzeit)","3","59","1","1728464117096"
"995","f","SpeechGestureMatch","../RequiredFiles/videos/NeinDaumenrunter_m.mp4","Ist der Ball in der blauen Box?","Green","Blue","F","negation","match","gesture","no","ThumbDown","male","speech-gesture","1368","912","edge-chromium","61.16","Windows 10","21","female","left","Wed Oct 09 2024 10:35:58 GMT+0200 (Mitteleuropäische Sommerzeit)","3","60","0","1728464117096"
"1122","f","SpeechGestureMatch","../RequiredFiles/videos/JaDaumenhoch_m.mp4","Ist der Ball in der grünen Box?","Green","Blue","F","affirmation","match","gesture","yes","ThumbUp","male","speech-gesture","1368","912","edge-chromium","61.16","Windows 10","21","female","left","Wed Oct 09 2024 10:36:05 GMT+0200 (Mitteleuropäische Sommerzeit)","3","61","0","1728464117096"
"821","j","SpeechGestureMatch","../RequiredFiles/videos/NeinDaumenrunter_m_no_sound.mp4","Ist der Ball in der blauen Box?","Blue","Green","J","negation","na","gesture","na","ThumbDown","male","speech-gesture","1368","912","edge-chromium","61.16","Windows 10","21","female","left","Wed Oct 09 2024 10:36:11 GMT+0200 (Mitteleuropäische Sommerzeit)","3","62","0","1728464117096"
"1074","f","SpeechGestureMatch","../RequiredFiles/videos/JaDaumenhoch_f.mp4","Ist der Ball in der blauen Box?","Blue","Green","F","affirmation","match","gesture","yes","ThumbUp","female","speech-gesture","1368","912","edge-chromium","61.16","Windows 10","21","female","left","Wed Oct 09 2024 10:36:18 GMT+0200 (Mitteleuropäische Sommerzeit)","3","63","0","1728464117096"
"930","j","SpeechGestureMatch","../RequiredFiles/videos/NeinDaumenhoch_m_no_sound.mp4","Ist der Ball in der grünen Box?","Blue","Green","J","affirmation","na","gesture","na","ThumbUp","male","speech-gesture","1368","912","edge-chromium","61.16","Windows 10","21","female","left","Wed Oct 09 2024 10:36:24 GMT+0200 (Mitteleuropäische Sommerzeit)","3","64","0","1728464117096"
"1068","f","SpeechGestureMatch","../RequiredFiles/videos/JaDaumenhoch_f_no_sound.mp4","Ist der Ball in der grünen Box?","Green","Blue","F","affirmation","na","gesture","na","ThumbUp","female","speech-gesture","1368","912","edge-chromium","61.16","Windows 10","21","female","left","Wed Oct 09 2024 10:36:31 GMT+0200 (Mitteleuropäische Sommerzeit)","3","65","0","1728464117096"
"1284","f","SpeechGestureMatch","../RequiredFiles/videos/JaDaumenrunter_f.mp4","Ist der Ball in der blauen Box?","Green","Blue","F","negation","mismatch","gesture","yes","ThumbDown","female","speech-gesture","1368","912","edge-chromium","61.16","Windows 10","21","female","left","Wed Oct 09 2024 10:36:38 GMT+0200 (Mitteleuropäische Sommerzeit)","3","66","0","1728464117096"
"1187","f","SpeechGestureMatch","../RequiredFiles/videos/NeinDaumenhoch_f.mp4","Ist der Ball in der blauen Box?","Blue","Green","F","affirmation","mismatch","gesture","no","ThumbUp","female","speech-gesture","1368","912","edge-chromium","61.16","Windows 10","21","female","left","Wed Oct 09 2024 10:36:45 GMT+0200 (Mitteleuropäische Sommerzeit)","3","67","0","1728464117096"
"1072","j","SpeechGestureMatch","../RequiredFiles/videos/NeinDaumenhoch_m.mp4","Ist der Ball in der blauen Box?","Blue","Green","F","affirmation","mismatch","gesture","no","ThumbUp","male","speech-gesture","1368","912","edge-chromium","61.16","Windows 10","21","female","left","Wed Oct 09 2024 10:36:51 GMT+0200 (Mitteleuropäische Sommerzeit)","3","68","1","1728464117096"
"870","f","SpeechGestureMatch","../RequiredFiles/videos/JaDaumenhoch_f_no_sound.mp4","Ist der Ball in der blauen Box?","Blue","Green","F","affirmation","na","gesture","na","ThumbUp","female","speech-gesture","1368","912","edge-chromium","61.16","Windows 10","21","female","left","Wed Oct 09 2024 10:36:58 GMT+0200 (Mitteleuropäische Sommerzeit)","3","69","0","1728464117096"
"832","f","SpeechGestureMatch","../RequiredFiles/videos/JaDaumenhoch_m_no_sound.mp4","Ist der Ball in der grünen Box?","Green","Blue","F","affirmation","na","gesture","na","ThumbUp","male","speech-gesture","1368","912","edge-chromium","61.16","Windows 10","21","female","left","Wed Oct 09 2024 10:37:04 GMT+0200 (Mitteleuropäische Sommerzeit)","3","70","0","1728464117096"
"1890","f","SpeechGestureMatch","../RequiredFiles/videos/JaDaumenrunter_f.mp4","Ist der Ball in der grünen Box?","Blue","Green","F","negation","mismatch","gesture","yes","ThumbDown","female","speech-gesture","1368","912","edge-chromium","61.16","Windows 10","21","female","left","Wed Oct 09 2024 10:37:11 GMT+0200 (Mitteleuropäische Sommerzeit)","3","71","0","1728464117096"
"1288","f","SpeechGestureMatch","../RequiredFiles/videos/JaDaumenhoch_f.mp4","Ist der Ball in der grünen Box?","Green","Blue","F","affirmation","match","gesture","yes","ThumbUp","female","speech-gesture","1368","912","edge-chromium","61.16","Windows 10","21","female","left","Wed Oct 09 2024 10:37:18 GMT+0200 (Mitteleuropäische Sommerzeit)","3","72","0","1728464117096"
"1023","j","SpeechGestureMatch","../RequiredFiles/videos/JaDaumenhoch_m.mp4","Ist der Ball in der blauen Box?","Green","Blue","J","affirmation","match","gesture","yes","ThumbUp","male","speech-gesture","1368","912","edge-chromium","61.16","Windows 10","21","female","left","Wed Oct 09 2024 10:37:25 GMT+0200 (Mitteleuropäische Sommerzeit)","3","73","0","1728464117096"
"934","f","SpeechGestureMatch","../RequiredFiles/videos/NeinDaumenhoch_f.mp4","Ist der Ball in der grünen Box?","Blue","Green","J","affirmation","mismatch","gesture","no","ThumbUp","female","speech-gesture","1368","912","edge-chromium","61.16","Windows 10","21","female","left","Wed Oct 09 2024 10:37:31 GMT+0200 (Mitteleuropäische Sommerzeit)","3","74","1","1728464117096"
"918","j","SpeechGestureMatch","../RequiredFiles/videos/JaDaumenhoch_f.mp4","Ist der Ball in der blauen Box?","Green","Blue","J","affirmation","match","gesture","yes","ThumbUp","female","speech-gesture","1368","912","edge-chromium","61.16","Windows 10","21","female","left","Wed Oct 09 2024 10:37:38 GMT+0200 (Mitteleuropäische Sommerzeit)","3","75","0","1728464117096"
