"rt","response","stim","video","question","box_colour_left","box_colour_right","correct_key","polarity","matching","modality","verbal","gesture","speaker","order","width","height","browser","vsync_rate","os","age","gender","handedness","date","blockNum","trialNum","error","vpNum"
"1497","f","SpeechGestureMatch","../RequiredFiles/videos/JaDaumenhoch_f.mp4","Ist der Ball in der grünen Box?","Green","Blue","F","affirmation","match","gesture","yes","ThumbUp","female","gesture-speech","1440","900","firefox","60.79","Mac OS","21","male","right","Wed Oct 02 2024 15:44:06 GMT+0200 (Mitteleuropäische Sommerzeit)","1","1","0","1727879585321"
"1269","f","SpeechGestureMatch","../RequiredFiles/videos/JaDaumenhoch_m.mp4","Ist der Ball in der blauen Box?","Blue","Green","F","affirmation","match","gesture","yes","ThumbUp","male","gesture-speech","1440","900","firefox","60.79","Mac OS","21","male","right","Wed Oct 02 2024 15:44:12 GMT+0200 (Mitteleuropäische Sommerzeit)","1","2","0","1727879585321"
"1612","j","SpeechGestureMatch","../RequiredFiles/videos/NeinDaumenhoch_f.mp4","Ist der Ball in der grünen Box?","Blue","Green","J","affirmation","mismatch","gesture","no","ThumbUp","female","gesture-speech","1440","900","firefox","60.79","Mac OS","21","male","right","Wed Oct 02 2024 15:44:20 GMT+0200 (Mitteleuropäische Sommerzeit)","1","3","0","1727879585321"
"1341","f","SpeechGestureMatch","../RequiredFiles/videos/NeinDaumenrunter_m.mp4","Ist der Ball in der blauen Box?","Blue","Green","J","negation","match","gesture","no","ThumbDown","male","gesture-speech","1440","900","firefox","60.79","Mac OS","21","male","right","Wed Oct 02 2024 15:44:27 GMT+0200 (Mitteleuropäische Sommerzeit)","1","4","1","1727879585321"
"1162","j","SpeechGestureMatch","../RequiredFiles/videos/NeinDaumenrunter_m.mp4","Ist der Ball in der grünen Box?","Green","Blue","J","negation","match","gesture","no","ThumbDown","male","gesture-speech","1440","900","firefox","60.79","Mac OS","21","male","right","Wed Oct 02 2024 15:44:33 GMT+0200 (Mitteleuropäische Sommerzeit)","1","5","0","1727879585321"
"1711","j","SpeechGestureMatch","../RequiredFiles/videos/NeinDaumenrunter_f.mp4","Ist der Ball in der blauen Box?","Blue","Green","J","negation","match","gesture","no","ThumbDown","female","gesture-speech","1440","900","firefox","60.79","Mac OS","21","male","right","Wed Oct 02 2024 15:44:41 GMT+0200 (Mitteleuropäische Sommerzeit)","1","6","0","1727879585321"
"1396","f","SpeechGestureMatch","../RequiredFiles/videos/JaDaumenhoch_f.mp4","Ist der Ball in der blauen Box?","Blue","Green","F","affirmation","match","gesture","yes","ThumbUp","female","gesture-speech","1440","900","firefox","60.79","Mac OS","21","male","right","Wed Oct 02 2024 15:44:47 GMT+0200 (Mitteleuropäische Sommerzeit)","1","7","0","1727879585321"
"2014","f","SpeechGestureMatch","../RequiredFiles/videos/NeinDaumenrunter_f_no_sound.mp4","Ist der Ball in der blauen Box?","Blue","Green","J","negation","na","gesture","na","ThumbDown","female","gesture-speech","1440","900","firefox","60.79","Mac OS","21","male","right","Wed Oct 02 2024 15:44:55 GMT+0200 (Mitteleuropäische Sommerzeit)","1","8","1","1727879585321"
"2084","j","SpeechGestureMatch","../RequiredFiles/videos/NeinDaumenhoch_m_no_sound.mp4","Ist der Ball in der grünen Box?","Blue","Green","J","affirmation","na","gesture","na","ThumbUp","male","gesture-speech","1440","900","firefox","60.79","Mac OS","21","male","right","Wed Oct 02 2024 15:45:03 GMT+0200 (Mitteleuropäische Sommerzeit)","1","9","0","1727879585321"
"2335","f","SpeechGestureMatch","../RequiredFiles/videos/NeinDaumenhoch_m.mp4","Ist der Ball in der grünen Box?","Blue","Green","J","affirmation","mismatch","gesture","no","ThumbUp","male","gesture-speech","1440","900","firefox","60.79","Mac OS","21","male","right","Wed Oct 02 2024 15:45:11 GMT+0200 (Mitteleuropäische Sommerzeit)","1","10","1","1727879585321"
"1927","f","SpeechGestureMatch","../RequiredFiles/videos/NeinDaumenrunter_m.mp4","Ist der Ball in der blauen Box?","Green","Blue","F","negation","match","gesture","no","ThumbDown","male","gesture-speech","1440","900","firefox","60.79","Mac OS","21","male","right","Wed Oct 02 2024 15:45:18 GMT+0200 (Mitteleuropäische Sommerzeit)","1","11","0","1727879585321"
"2239","j","SpeechGestureMatch","../RequiredFiles/videos/NeinDaumenrunter_f_no_sound.mp4","Ist der Ball in der grünen Box?","Green","Blue","J","negation","na","gesture","na","ThumbDown","female","gesture-speech","1440","900","firefox","60.79","Mac OS","21","male","right","Wed Oct 02 2024 15:45:26 GMT+0200 (Mitteleuropäische Sommerzeit)","1","12","0","1727879585321"
"1094","j","SpeechGestureMatch","../RequiredFiles/videos/JaDaumenhoch_m.mp4","Ist der Ball in der blauen Box?","Green","Blue","J","affirmation","match","gesture","yes","ThumbUp","male","gesture-speech","1440","900","firefox","60.79","Mac OS","21","male","right","Wed Oct 02 2024 15:45:32 GMT+0200 (Mitteleuropäische Sommerzeit)","1","13","0","1727879585321"
"1574","f","SpeechGestureMatch","../RequiredFiles/videos/JaDaumenrunter_f_no_sound.mp4","Ist der Ball in der blauen Box?","Green","Blue","F","negation","na","gesture","na","ThumbDown","female","gesture-speech","1440","900","firefox","60.79","Mac OS","21","male","right","Wed Oct 02 2024 15:45:40 GMT+0200 (Mitteleuropäische Sommerzeit)","1","14","0","1727879585321"
"1670","f","SpeechGestureMatch","../RequiredFiles/videos/JaDaumenhoch_f_no_sound.mp4","Ist der Ball in der blauen Box?","Blue","Green","F","affirmation","na","gesture","na","ThumbUp","female","gesture-speech","1440","900","firefox","60.79","Mac OS","21","male","right","Wed Oct 02 2024 15:45:47 GMT+0200 (Mitteleuropäische Sommerzeit)","1","15","0","1727879585321"
"1158","j","SpeechGestureMatch","../RequiredFiles/videos/JaDaumenhoch_m_no_sound.mp4","Ist der Ball in der grünen Box?","Blue","Green","J","affirmation","na","gesture","na","ThumbUp","male","gesture-speech","1440","900","firefox","60.79","Mac OS","21","male","right","Wed Oct 02 2024 15:45:53 GMT+0200 (Mitteleuropäische Sommerzeit)","1","16","0","1727879585321"
"1595","f","SpeechGestureMatch","../RequiredFiles/videos/JaDaumenhoch_m_no_sound.mp4","Ist der Ball in der blauen Box?","Blue","Green","F","affirmation","na","gesture","na","ThumbUp","male","gesture-speech","1440","900","firefox","60.79","Mac OS","21","male","right","Wed Oct 02 2024 15:46:01 GMT+0200 (Mitteleuropäische Sommerzeit)","1","17","0","1727879585321"
"1447","f","SpeechGestureMatch","../RequiredFiles/videos/JaDaumenhoch_m_no_sound.mp4","Ist der Ball in der grünen Box?","Green","Blue","F","affirmation","na","gesture","na","ThumbUp","male","gesture-speech","1440","900","firefox","60.79","Mac OS","21","male","right","Wed Oct 02 2024 15:46:07 GMT+0200 (Mitteleuropäische Sommerzeit)","1","18","0","1727879585321"
"966","j","SpeechGestureMatch","../RequiredFiles/videos/JaDaumenhoch_m_no_sound.mp4","Ist der Ball in der blauen Box?","Green","Blue","J","affirmation","na","gesture","na","ThumbUp","male","gesture-speech","1440","900","firefox","60.79","Mac OS","21","male","right","Wed Oct 02 2024 15:46:14 GMT+0200 (Mitteleuropäische Sommerzeit)","1","19","0","1727879585321"
"1749","j","SpeechGestureMatch","../RequiredFiles/videos/JaDaumenrunter_f.mp4","Ist der Ball in der grünen Box?","Green","Blue","J","negation","mismatch","gesture","yes","ThumbDown","female","gesture-speech","1440","900","firefox","60.79","Mac OS","21","male","right","Wed Oct 02 2024 15:46:21 GMT+0200 (Mitteleuropäische Sommerzeit)","1","20","0","1727879585321"
"799","j","SpeechGestureMatch","../RequiredFiles/videos/JaDaumenhoch_f.mp4","Ist der Ball in der grünen Box?","Blue","Green","J","affirmation","match","gesture","yes","ThumbUp","female","gesture-speech","1440","900","firefox","60.79","Mac OS","21","male","right","Wed Oct 02 2024 15:46:28 GMT+0200 (Mitteleuropäische Sommerzeit)","1","21","0","1727879585321"
"880","f","SpeechGestureMatch","../RequiredFiles/videos/NeinDaumenrunter_f.mp4","Ist der Ball in der grünen Box?","Blue","Green","F","negation","match","gesture","no","ThumbDown","female","gesture-speech","1440","900","firefox","60.79","Mac OS","21","male","right","Wed Oct 02 2024 15:46:34 GMT+0200 (Mitteleuropäische Sommerzeit)","1","22","0","1727879585321"
"1058","f","SpeechGestureMatch","../RequiredFiles/videos/NeinDaumenrunter_f_no_sound.mp4","Ist der Ball in der blauen Box?","Green","Blue","F","negation","na","gesture","na","ThumbDown","female","gesture-speech","1440","900","firefox","60.79","Mac OS","21","male","right","Wed Oct 02 2024 15:46:41 GMT+0200 (Mitteleuropäische Sommerzeit)","1","23","0","1727879585321"
"1713","f","SpeechGestureMatch","../RequiredFiles/videos/JaDaumenrunter_f.mp4","Ist der Ball in der grünen Box?","Blue","Green","F","negation","mismatch","gesture","yes","ThumbDown","female","gesture-speech","1440","900","firefox","60.79","Mac OS","21","male","right","Wed Oct 02 2024 15:46:48 GMT+0200 (Mitteleuropäische Sommerzeit)","1","24","0","1727879585321"
"1660","j","SpeechGestureMatch","../RequiredFiles/videos/NeinDaumenhoch_m.mp4","Ist der Ball in der blauen Box?","Green","Blue","J","affirmation","mismatch","gesture","no","ThumbUp","male","gesture-speech","1440","900","firefox","60.79","Mac OS","21","male","right","Wed Oct 02 2024 15:46:55 GMT+0200 (Mitteleuropäische Sommerzeit)","1","25","0","1727879585321"
"1320","j","SpeechGestureMatch","../RequiredFiles/videos/JaDaumenhoch_m.mp4","Ist der Ball in der grünen Box?","Blue","Green","J","affirmation","match","gesture","yes","ThumbUp","male","gesture-speech","1440","900","firefox","60.79","Mac OS","21","male","right","Wed Oct 02 2024 15:47:02 GMT+0200 (Mitteleuropäische Sommerzeit)","1","26","0","1727879585321"
"1767","f","SpeechGestureMatch","../RequiredFiles/videos/NeinDaumenhoch_f.mp4","Ist der Ball in der grünen Box?","Green","Blue","F","affirmation","mismatch","gesture","no","ThumbUp","female","gesture-speech","1440","900","firefox","60.79","Mac OS","21","male","right","Wed Oct 02 2024 15:47:10 GMT+0200 (Mitteleuropäische Sommerzeit)","1","27","0","1727879585321"
"2362","f","SpeechGestureMatch","../RequiredFiles/videos/JaDaumenrunter_f_no_sound.mp4","Ist der Ball in der grünen Box?","Green","Blue","J","negation","na","gesture","na","ThumbDown","female","gesture-speech","1440","900","firefox","60.79","Mac OS","21","male","right","Wed Oct 02 2024 15:47:17 GMT+0200 (Mitteleuropäische Sommerzeit)","1","28","1","1727879585321"
"1210","f","SpeechGestureMatch","../RequiredFiles/videos/NeinDaumenrunter_m.mp4","Ist der Ball in der blauen Box?","Blue","Green","J","negation","match","gesture","no","ThumbDown","male","gesture-speech","1440","900","firefox","60.79","Mac OS","21","male","right","Wed Oct 02 2024 15:47:24 GMT+0200 (Mitteleuropäische Sommerzeit)","1","29","1","1727879585321"
"1611","j","SpeechGestureMatch","../RequiredFiles/videos/JaDaumenrunter_f.mp4","Ist der Ball in der blauen Box?","Blue","Green","J","negation","mismatch","gesture","yes","ThumbDown","female","gesture-speech","1440","900","firefox","60.79","Mac OS","21","male","right","Wed Oct 02 2024 15:47:31 GMT+0200 (Mitteleuropäische Sommerzeit)","1","30","0","1727879585321"
"1345","j","SpeechGestureMatch","../RequiredFiles/videos/NeinDaumenhoch_f_no_sound.mp4","Ist der Ball in der grünen Box?","Blue","Green","J","affirmation","na","gesture","na","ThumbUp","female","gesture-speech","1440","900","firefox","60.79","Mac OS","21","male","right","Wed Oct 02 2024 15:47:38 GMT+0200 (Mitteleuropäische Sommerzeit)","1","31","0","1727879585321"
"1265","f","SpeechGestureMatch","../RequiredFiles/videos/NeinDaumenrunter_f_no_sound.mp4","Ist der Ball in der grünen Box?","Blue","Green","F","negation","na","gesture","na","ThumbDown","female","gesture-speech","1440","900","firefox","60.79","Mac OS","21","male","right","Wed Oct 02 2024 15:47:45 GMT+0200 (Mitteleuropäische Sommerzeit)","1","32","0","1727879585321"
"849","j","SpeechGestureMatch","../RequiredFiles/videos/NeinDaumenhoch_m_no_sound.mp4","Ist der Ball in der blauen Box?","Green","Blue","J","affirmation","na","gesture","na","ThumbUp","male","gesture-speech","1440","900","firefox","60.79","Mac OS","21","male","right","Wed Oct 02 2024 15:47:52 GMT+0200 (Mitteleuropäische Sommerzeit)","1","33","0","1727879585321"
"1199","f","SpeechGestureMatch","../RequiredFiles/videos/NeinDaumenrunter_f.mp4","Ist der Ball in der grünen Box?","Blue","Green","F","negation","match","gesture","no","ThumbDown","female","gesture-speech","1440","900","firefox","60.79","Mac OS","21","male","right","Wed Oct 02 2024 15:47:58 GMT+0200 (Mitteleuropäische Sommerzeit)","1","34","0","1727879585321"
"2961","f","SpeechGestureMatch","../RequiredFiles/videos/NeinDaumenhoch_f.mp4","Ist der Ball in der grünen Box?","Green","Blue","F","affirmation","mismatch","gesture","no","ThumbUp","female","gesture-speech","1440","900","firefox","60.79","Mac OS","21","male","right","Wed Oct 02 2024 15:48:07 GMT+0200 (Mitteleuropäische Sommerzeit)","1","35","0","1727879585321"
"1508","j","SpeechGestureMatch","../RequiredFiles/videos/JaDaumenhoch_m.mp4","Ist der Ball in der grünen Box?","Blue","Green","J","affirmation","match","gesture","yes","ThumbUp","male","gesture-speech","1440","900","firefox","60.79","Mac OS","21","male","right","Wed Oct 02 2024 15:48:14 GMT+0200 (Mitteleuropäische Sommerzeit)","1","36","0","1727879585321"
"1819","f","SpeechGestureMatch","../RequiredFiles/videos/JaDaumenrunter_m.mp4","Ist der Ball in der grünen Box?","Green","Blue","J","negation","mismatch","gesture","yes","ThumbDown","male","gesture-speech","1440","900","firefox","60.79","Mac OS","21","male","right","Wed Oct 02 2024 15:48:21 GMT+0200 (Mitteleuropäische Sommerzeit)","1","37","1","1727879585321"
"2127","f","SpeechGestureMatch","../RequiredFiles/videos/JaDaumenrunter_m.mp4","Ist der Ball in der blauen Box?","Green","Blue","F","negation","mismatch","gesture","yes","ThumbDown","male","gesture-speech","1440","900","firefox","60.79","Mac OS","21","male","right","Wed Oct 02 2024 15:48:29 GMT+0200 (Mitteleuropäische Sommerzeit)","1","38","0","1727879585321"
"1442","j","SpeechGestureMatch","../RequiredFiles/videos/NeinDaumenhoch_m_no_sound.mp4","Ist der Ball in der grünen Box?","Green","Blue","F","affirmation","na","gesture","na","ThumbUp","male","gesture-speech","1440","900","firefox","60.79","Mac OS","21","male","right","Wed Oct 02 2024 15:48:36 GMT+0200 (Mitteleuropäische Sommerzeit)","1","39","1","1727879585321"
"1509","j","SpeechGestureMatch","../RequiredFiles/videos/JaDaumenrunter_f.mp4","Ist der Ball in der blauen Box?","Green","Blue","F","negation","mismatch","gesture","yes","ThumbDown","female","gesture-speech","1440","900","firefox","60.79","Mac OS","21","male","right","Wed Oct 02 2024 15:48:43 GMT+0200 (Mitteleuropäische Sommerzeit)","1","40","1","1727879585321"
"1527","f","SpeechGestureMatch","../RequiredFiles/videos/NeinDaumenhoch_f_no_sound.mp4","Ist der Ball in der blauen Box?","Blue","Green","F","affirmation","na","gesture","na","ThumbUp","female","gesture-speech","1440","900","firefox","60.79","Mac OS","21","male","right","Wed Oct 02 2024 15:48:50 GMT+0200 (Mitteleuropäische Sommerzeit)","1","41","0","1727879585321"
"1395","f","SpeechGestureMatch","../RequiredFiles/videos/JaDaumenhoch_m.mp4","Ist der Ball in der grünen Box?","Green","Blue","F","affirmation","match","gesture","yes","ThumbUp","male","gesture-speech","1440","900","firefox","60.79","Mac OS","21","male","right","Wed Oct 02 2024 15:48:57 GMT+0200 (Mitteleuropäische Sommerzeit)","1","42","0","1727879585321"
"2148","j","SpeechGestureMatch","../RequiredFiles/videos/JaDaumenrunter_f.mp4","Ist der Ball in der grünen Box?","Green","Blue","J","negation","mismatch","gesture","yes","ThumbDown","female","gesture-speech","1440","900","firefox","60.79","Mac OS","21","male","right","Wed Oct 02 2024 15:49:05 GMT+0200 (Mitteleuropäische Sommerzeit)","1","43","0","1727879585321"
"1035","f","SpeechGestureMatch","../RequiredFiles/videos/JaDaumenrunter_m_no_sound.mp4","Ist der Ball in der blauen Box?","Blue","Green","J","negation","na","gesture","na","ThumbDown","male","gesture-speech","1440","900","firefox","60.79","Mac OS","21","male","right","Wed Oct 02 2024 15:49:11 GMT+0200 (Mitteleuropäische Sommerzeit)","1","44","1","1727879585321"
"2143","f","SpeechGestureMatch","../RequiredFiles/videos/NeinDaumenrunter_m.mp4","Ist der Ball in der grünen Box?","Blue","Green","F","negation","match","gesture","no","ThumbDown","male","gesture-speech","1440","900","firefox","60.79","Mac OS","21","male","right","Wed Oct 02 2024 15:49:19 GMT+0200 (Mitteleuropäische Sommerzeit)","1","45","0","1727879585321"
"1867","j","SpeechGestureMatch","../RequiredFiles/videos/JaDaumenhoch_f.mp4","Ist der Ball in der blauen Box?","Blue","Green","F","affirmation","match","gesture","yes","ThumbUp","female","gesture-speech","1440","900","firefox","60.79","Mac OS","21","male","right","Wed Oct 02 2024 15:49:26 GMT+0200 (Mitteleuropäische Sommerzeit)","1","46","1","1727879585321"
"2515","j","SpeechGestureMatch","../RequiredFiles/videos/NeinDaumenhoch_m.mp4","Ist der Ball in der grünen Box?","Blue","Green","J","affirmation","mismatch","gesture","no","ThumbUp","male","gesture-speech","1440","900","firefox","60.79","Mac OS","21","male","right","Wed Oct 02 2024 15:49:34 GMT+0200 (Mitteleuropäische Sommerzeit)","1","47","0","1727879585321"
"1940","j","SpeechGestureMatch","../RequiredFiles/videos/JaDaumenhoch_f.mp4","Ist der Ball in der blauen Box?","Green","Blue","J","affirmation","match","gesture","yes","ThumbUp","female","gesture-speech","1440","900","firefox","60.79","Mac OS","21","male","right","Wed Oct 02 2024 15:49:42 GMT+0200 (Mitteleuropäische Sommerzeit)","1","48","0","1727879585321"
"3655","f","SpeechGestureMatch","../RequiredFiles/videos/NeinDaumenhoch_m.mp4","Ist der Ball in der blauen Box?","Blue","Green","F","affirmation","mismatch","gesture","no","ThumbUp","male","gesture-speech","1440","900","firefox","60.79","Mac OS","21","male","right","Wed Oct 02 2024 15:49:51 GMT+0200 (Mitteleuropäische Sommerzeit)","1","49","0","1727879585321"
"2369","j","SpeechGestureMatch","../RequiredFiles/videos/NeinDaumenhoch_f_no_sound.mp4","Ist der Ball in der grünen Box?","Green","Blue","F","affirmation","na","gesture","na","ThumbUp","female","gesture-speech","1440","900","firefox","60.79","Mac OS","21","male","right","Wed Oct 02 2024 15:49:59 GMT+0200 (Mitteleuropäische Sommerzeit)","1","50","1","1727879585321"
"1390","f","SpeechGestureMatch","../RequiredFiles/videos/JaDaumenhoch_f.mp4","Ist der Ball in der grünen Box?","Green","Blue","F","affirmation","match","gesture","yes","ThumbUp","female","gesture-speech","1440","900","firefox","60.79","Mac OS","21","male","right","Wed Oct 02 2024 15:50:06 GMT+0200 (Mitteleuropäische Sommerzeit)","1","51","0","1727879585321"
"1605","j","SpeechGestureMatch","../RequiredFiles/videos/JaDaumenrunter_m.mp4","Ist der Ball in der blauen Box?","Blue","Green","J","negation","mismatch","gesture","yes","ThumbDown","male","gesture-speech","1440","900","firefox","60.79","Mac OS","21","male","right","Wed Oct 02 2024 15:50:13 GMT+0200 (Mitteleuropäische Sommerzeit)","1","52","0","1727879585321"
"2242","f","SpeechGestureMatch","../RequiredFiles/videos/JaDaumenrunter_m.mp4","Ist der Ball in der grünen Box?","Blue","Green","F","negation","mismatch","gesture","yes","ThumbDown","male","gesture-speech","1440","900","firefox","60.79","Mac OS","21","male","right","Wed Oct 02 2024 15:50:21 GMT+0200 (Mitteleuropäische Sommerzeit)","1","53","0","1727879585321"
"1983","f","SpeechGestureMatch","../RequiredFiles/videos/NeinDaumenrunter_f.mp4","Ist der Ball in der blauen Box?","Green","Blue","F","negation","match","gesture","no","ThumbDown","female","gesture-speech","1440","900","firefox","60.79","Mac OS","21","male","right","Wed Oct 02 2024 15:50:28 GMT+0200 (Mitteleuropäische Sommerzeit)","1","54","0","1727879585321"
"2106","j","SpeechGestureMatch","../RequiredFiles/videos/JaDaumenrunter_m.mp4","Ist der Ball in der grünen Box?","Green","Blue","J","negation","mismatch","gesture","yes","ThumbDown","male","gesture-speech","1440","900","firefox","60.79","Mac OS","21","male","right","Wed Oct 02 2024 15:50:36 GMT+0200 (Mitteleuropäische Sommerzeit)","1","55","0","1727879585321"
"1154","j","SpeechGestureMatch","../RequiredFiles/videos/JaDaumenhoch_f.mp4","Ist der Ball in der blauen Box?","Green","Blue","J","affirmation","match","gesture","yes","ThumbUp","female","gesture-speech","1440","900","firefox","60.79","Mac OS","21","male","right","Wed Oct 02 2024 15:50:43 GMT+0200 (Mitteleuropäische Sommerzeit)","1","56","0","1727879585321"
"1227","j","SpeechGestureMatch","../RequiredFiles/videos/JaDaumenhoch_f.mp4","Ist der Ball in der grünen Box?","Blue","Green","J","affirmation","match","gesture","yes","ThumbUp","female","gesture-speech","1440","900","firefox","60.79","Mac OS","21","male","right","Wed Oct 02 2024 15:50:50 GMT+0200 (Mitteleuropäische Sommerzeit)","1","57","0","1727879585321"
"977","f","SpeechGestureMatch","../RequiredFiles/videos/JaDaumenhoch_m.mp4","Ist der Ball in der blauen Box?","Blue","Green","F","affirmation","match","gesture","yes","ThumbUp","male","gesture-speech","1440","900","firefox","60.79","Mac OS","21","male","right","Wed Oct 02 2024 15:50:56 GMT+0200 (Mitteleuropäische Sommerzeit)","1","58","0","1727879585321"
"1377","f","SpeechGestureMatch","../RequiredFiles/videos/NeinDaumenrunter_m.mp4","Ist der Ball in der grünen Box?","Blue","Green","F","negation","match","gesture","no","ThumbDown","male","gesture-speech","1440","900","firefox","60.79","Mac OS","21","male","right","Wed Oct 02 2024 15:51:03 GMT+0200 (Mitteleuropäische Sommerzeit)","1","59","0","1727879585321"
"1009","j","SpeechGestureMatch","../RequiredFiles/videos/JaDaumenhoch_m.mp4","Ist der Ball in der blauen Box?","Green","Blue","J","affirmation","match","gesture","yes","ThumbUp","male","gesture-speech","1440","900","firefox","60.79","Mac OS","21","male","right","Wed Oct 02 2024 15:51:10 GMT+0200 (Mitteleuropäische Sommerzeit)","1","60","0","1727879585321"
"2414","j","SpeechGestureMatch","../RequiredFiles/videos/JaDaumenrunter_f.mp4","Ist der Ball in der grünen Box?","Blue","Green","F","negation","mismatch","gesture","yes","ThumbDown","female","gesture-speech","1440","900","firefox","60.79","Mac OS","21","male","right","Wed Oct 02 2024 15:51:18 GMT+0200 (Mitteleuropäische Sommerzeit)","1","61","1","1727879585321"
"2093","f","SpeechGestureMatch","../RequiredFiles/videos/JaDaumenrunter_m_no_sound.mp4","Ist der Ball in der grünen Box?","Green","Blue","J","negation","na","gesture","na","ThumbDown","male","gesture-speech","1440","900","firefox","60.79","Mac OS","21","male","right","Wed Oct 02 2024 15:51:25 GMT+0200 (Mitteleuropäische Sommerzeit)","1","62","1","1727879585321"
"2460","j","SpeechGestureMatch","../RequiredFiles/videos/NeinDaumenhoch_m.mp4","Ist der Ball in der blauen Box?","Blue","Green","F","affirmation","mismatch","gesture","no","ThumbUp","male","gesture-speech","1440","900","firefox","60.79","Mac OS","21","male","right","Wed Oct 02 2024 15:51:33 GMT+0200 (Mitteleuropäische Sommerzeit)","1","63","1","1727879585321"
"2031","j","SpeechGestureMatch","../RequiredFiles/videos/NeinDaumenrunter_m.mp4","Ist der Ball in der grünen Box?","Green","Blue","J","negation","match","gesture","no","ThumbDown","male","gesture-speech","1440","900","firefox","60.79","Mac OS","21","male","right","Wed Oct 02 2024 15:51:41 GMT+0200 (Mitteleuropäische Sommerzeit)","1","64","0","1727879585321"
"2234","f","SpeechGestureMatch","../RequiredFiles/videos/NeinDaumenrunter_m_no_sound.mp4","Ist der Ball in der grünen Box?","Blue","Green","F","negation","na","gesture","na","ThumbDown","male","gesture-speech","1440","900","firefox","60.79","Mac OS","21","male","right","Wed Oct 02 2024 15:51:49 GMT+0200 (Mitteleuropäische Sommerzeit)","1","65","0","1727879585321"
"2763","j","SpeechGestureMatch","../RequiredFiles/videos/JaDaumenrunter_f.mp4","Ist der Ball in der blauen Box?","Blue","Green","J","negation","mismatch","gesture","yes","ThumbDown","female","gesture-speech","1440","900","firefox","60.79","Mac OS","21","male","right","Wed Oct 02 2024 15:51:57 GMT+0200 (Mitteleuropäische Sommerzeit)","1","66","0","1727879585321"
"1740","f","SpeechGestureMatch","../RequiredFiles/videos/JaDaumenrunter_m_no_sound.mp4","Ist der Ball in der blauen Box?","Green","Blue","F","negation","na","gesture","na","ThumbDown","male","gesture-speech","1440","900","firefox","60.79","Mac OS","21","male","right","Wed Oct 02 2024 15:52:04 GMT+0200 (Mitteleuropäische Sommerzeit)","1","67","0","1727879585321"
"1862","j","SpeechGestureMatch","../RequiredFiles/videos/NeinDaumenhoch_m_no_sound.mp4","Ist der Ball in der blauen Box?","Blue","Green","F","affirmation","na","gesture","na","ThumbUp","male","gesture-speech","1440","900","firefox","60.79","Mac OS","21","male","right","Wed Oct 02 2024 15:52:12 GMT+0200 (Mitteleuropäische Sommerzeit)","1","68","1","1727879585321"
"2501","f","SpeechGestureMatch","../RequiredFiles/videos/JaDaumenrunter_m.mp4","Ist der Ball in der blauen Box?","Blue","Green","J","negation","mismatch","gesture","yes","ThumbDown","male","gesture-speech","1440","900","firefox","60.79","Mac OS","21","male","right","Wed Oct 02 2024 15:52:20 GMT+0200 (Mitteleuropäische Sommerzeit)","1","69","1","1727879585321"
"2520","f","SpeechGestureMatch","../RequiredFiles/videos/JaDaumenrunter_m_no_sound.mp4","Ist der Ball in der grünen Box?","Blue","Green","F","negation","na","gesture","na","ThumbDown","male","gesture-speech","1440","900","firefox","60.79","Mac OS","21","male","right","Wed Oct 02 2024 15:52:28 GMT+0200 (Mitteleuropäische Sommerzeit)","1","70","0","1727879585321"
"1726","j","SpeechGestureMatch","../RequiredFiles/videos/JaDaumenhoch_f_no_sound.mp4","Ist der Ball in der grünen Box?","Blue","Green","J","affirmation","na","gesture","na","ThumbUp","female","gesture-speech","1440","900","firefox","60.79","Mac OS","21","male","right","Wed Oct 02 2024 15:52:35 GMT+0200 (Mitteleuropäische Sommerzeit)","1","71","0","1727879585321"
"1901","j","SpeechGestureMatch","../RequiredFiles/videos/NeinDaumenhoch_f.mp4","Ist der Ball in der grünen Box?","Blue","Green","J","affirmation","mismatch","gesture","no","ThumbUp","female","gesture-speech","1440","900","firefox","60.79","Mac OS","21","male","right","Wed Oct 02 2024 15:52:43 GMT+0200 (Mitteleuropäische Sommerzeit)","1","72","0","1727879585321"
"2146","f","SpeechGestureMatch","../RequiredFiles/videos/JaDaumenrunter_m.mp4","Ist der Ball in der grünen Box?","Blue","Green","F","negation","mismatch","gesture","yes","ThumbDown","male","gesture-speech","1440","900","firefox","60.79","Mac OS","21","male","right","Wed Oct 02 2024 15:52:50 GMT+0200 (Mitteleuropäische Sommerzeit)","1","73","0","1727879585321"
"2914","j","SpeechGestureMatch","../RequiredFiles/videos/NeinDaumenhoch_m.mp4","Ist der Ball in der blauen Box?","Green","Blue","J","affirmation","mismatch","gesture","no","ThumbUp","male","gesture-speech","1440","900","firefox","60.79","Mac OS","21","male","right","Wed Oct 02 2024 15:52:59 GMT+0200 (Mitteleuropäische Sommerzeit)","1","74","0","1727879585321"
"2203","f","SpeechGestureMatch","../RequiredFiles/videos/JaDaumenhoch_m.mp4","Ist der Ball in der grünen Box?","Green","Blue","F","affirmation","match","gesture","yes","ThumbUp","male","gesture-speech","1440","900","firefox","60.79","Mac OS","21","male","right","Wed Oct 02 2024 15:53:06 GMT+0200 (Mitteleuropäische Sommerzeit)","1","75","0","1727879585321"
"1579","j","SpeechGestureMatch","../RequiredFiles/videos/NeinDaumenrunter_m_no_sound.mp4","Ist der Ball in der blauen Box?","Green","Blue","F","negation","na","gesture","na","ThumbDown","male","gesture-speech","1440","900","firefox","60.79","Mac OS","21","male","right","Wed Oct 02 2024 15:53:14 GMT+0200 (Mitteleuropäische Sommerzeit)","1","76","1","1727879585321"
"1119","f","SpeechGestureMatch","../RequiredFiles/videos/NeinDaumenrunter_f.mp4","Ist der Ball in der blauen Box?","Blue","Green","J","negation","match","gesture","no","ThumbDown","female","gesture-speech","1440","900","firefox","60.79","Mac OS","21","male","right","Wed Oct 02 2024 15:53:20 GMT+0200 (Mitteleuropäische Sommerzeit)","1","77","1","1727879585321"
"1097","f","SpeechGestureMatch","../RequiredFiles/videos/NeinDaumenrunter_f.mp4","Ist der Ball in der grünen Box?","Green","Blue","J","negation","match","gesture","no","ThumbDown","female","gesture-speech","1440","900","firefox","60.79","Mac OS","21","male","right","Wed Oct 02 2024 15:53:27 GMT+0200 (Mitteleuropäische Sommerzeit)","1","78","1","1727879585321"
"1837","f","SpeechGestureMatch","../RequiredFiles/videos/NeinDaumenhoch_m.mp4","Ist der Ball in der grünen Box?","Green","Blue","F","affirmation","mismatch","gesture","no","ThumbUp","male","gesture-speech","1440","900","firefox","60.79","Mac OS","21","male","right","Wed Oct 02 2024 15:53:34 GMT+0200 (Mitteleuropäische Sommerzeit)","1","79","0","1727879585321"
"2634","f","SpeechGestureMatch","../RequiredFiles/videos/NeinDaumenhoch_m.mp4","Ist der Ball in der grünen Box?","Green","Blue","F","affirmation","mismatch","gesture","no","ThumbUp","male","gesture-speech","1440","900","firefox","60.79","Mac OS","21","male","right","Wed Oct 02 2024 15:53:42 GMT+0200 (Mitteleuropäische Sommerzeit)","1","80","0","1727879585321"
"1588","f","SpeechGestureMatch","../RequiredFiles/videos/JaDaumenhoch_f_no_sound.mp4","Ist der Ball in der grünen Box?","Green","Blue","F","affirmation","na","gesture","na","ThumbUp","female","gesture-speech","1440","900","firefox","60.79","Mac OS","21","male","right","Wed Oct 02 2024 15:53:49 GMT+0200 (Mitteleuropäische Sommerzeit)","1","81","0","1727879585321"
"1038","f","SpeechGestureMatch","../RequiredFiles/videos/NeinDaumenrunter_f.mp4","Ist der Ball in der blauen Box?","Green","Blue","F","negation","match","gesture","no","ThumbDown","female","gesture-speech","1440","900","firefox","60.79","Mac OS","21","male","right","Wed Oct 02 2024 15:53:56 GMT+0200 (Mitteleuropäische Sommerzeit)","1","82","0","1727879585321"
"1156","j","SpeechGestureMatch","../RequiredFiles/videos/NeinDaumenhoch_f.mp4","Ist der Ball in der blauen Box?","Green","Blue","J","affirmation","mismatch","gesture","no","ThumbUp","female","gesture-speech","1440","900","firefox","60.79","Mac OS","21","male","right","Wed Oct 02 2024 15:54:03 GMT+0200 (Mitteleuropäische Sommerzeit)","1","83","0","1727879585321"
"1183","f","SpeechGestureMatch","../RequiredFiles/videos/NeinDaumenrunter_m_no_sound.mp4","Ist der Ball in der blauen Box?","Blue","Green","J","negation","na","gesture","na","ThumbDown","male","gesture-speech","1440","900","firefox","60.79","Mac OS","21","male","right","Wed Oct 02 2024 15:54:09 GMT+0200 (Mitteleuropäische Sommerzeit)","1","84","1","1727879585321"
"885","j","SpeechGestureMatch","../RequiredFiles/videos/NeinDaumenhoch_f.mp4","Ist der Ball in der blauen Box?","Green","Blue","J","affirmation","mismatch","gesture","no","ThumbUp","female","gesture-speech","1440","900","firefox","60.79","Mac OS","21","male","right","Wed Oct 02 2024 15:54:16 GMT+0200 (Mitteleuropäische Sommerzeit)","1","85","0","1727879585321"
"1059","f","SpeechGestureMatch","../RequiredFiles/videos/NeinDaumenrunter_m.mp4","Ist der Ball in der blauen Box?","Green","Blue","F","negation","match","gesture","no","ThumbDown","male","gesture-speech","1440","900","firefox","60.79","Mac OS","21","male","right","Wed Oct 02 2024 15:54:23 GMT+0200 (Mitteleuropäische Sommerzeit)","1","86","0","1727879585321"
"1351","f","SpeechGestureMatch","../RequiredFiles/videos/NeinDaumenrunter_f.mp4","Ist der Ball in der grünen Box?","Green","Blue","J","negation","match","gesture","no","ThumbDown","female","gesture-speech","1440","900","firefox","60.79","Mac OS","21","male","right","Wed Oct 02 2024 15:54:29 GMT+0200 (Mitteleuropäische Sommerzeit)","1","87","1","1727879585321"
"1188","j","SpeechGestureMatch","../RequiredFiles/videos/NeinDaumenhoch_f_no_sound.mp4","Ist der Ball in der blauen Box?","Green","Blue","J","affirmation","na","gesture","na","ThumbUp","female","gesture-speech","1440","900","firefox","60.79","Mac OS","21","male","right","Wed Oct 02 2024 15:54:36 GMT+0200 (Mitteleuropäische Sommerzeit)","1","88","0","1727879585321"
"3479","f","SpeechGestureMatch","../RequiredFiles/videos/NeinDaumenhoch_f.mp4","Ist der Ball in der blauen Box?","Blue","Green","F","affirmation","mismatch","gesture","no","ThumbUp","female","gesture-speech","1440","900","firefox","60.79","Mac OS","21","male","right","Wed Oct 02 2024 15:54:45 GMT+0200 (Mitteleuropäische Sommerzeit)","1","89","0","1727879585321"
"1669","j","SpeechGestureMatch","../RequiredFiles/videos/NeinDaumenrunter_m_no_sound.mp4","Ist der Ball in der grünen Box?","Green","Blue","J","negation","na","gesture","na","ThumbDown","male","gesture-speech","1440","900","firefox","60.79","Mac OS","21","male","right","Wed Oct 02 2024 15:54:52 GMT+0200 (Mitteleuropäische Sommerzeit)","1","90","0","1727879585321"
"2050","j","SpeechGestureMatch","../RequiredFiles/videos/JaDaumenrunter_f.mp4","Ist der Ball in der blauen Box?","Green","Blue","F","negation","mismatch","gesture","yes","ThumbDown","female","gesture-speech","1440","900","firefox","60.79","Mac OS","21","male","right","Wed Oct 02 2024 15:55:00 GMT+0200 (Mitteleuropäische Sommerzeit)","1","91","1","1727879585321"
"2017","j","SpeechGestureMatch","../RequiredFiles/videos/JaDaumenrunter_f_no_sound.mp4","Ist der Ball in der blauen Box?","Blue","Green","J","negation","na","gesture","na","ThumbDown","female","gesture-speech","1440","900","firefox","60.79","Mac OS","21","male","right","Wed Oct 02 2024 15:55:08 GMT+0200 (Mitteleuropäische Sommerzeit)","1","92","0","1727879585321"
"1548","j","SpeechGestureMatch","../RequiredFiles/videos/JaDaumenhoch_f_no_sound.mp4","Ist der Ball in der blauen Box?","Green","Blue","J","affirmation","na","gesture","na","ThumbUp","female","gesture-speech","1440","900","firefox","60.79","Mac OS","21","male","right","Wed Oct 02 2024 15:55:15 GMT+0200 (Mitteleuropäische Sommerzeit)","1","93","0","1727879585321"
"1743","f","SpeechGestureMatch","../RequiredFiles/videos/NeinDaumenhoch_f.mp4","Ist der Ball in der blauen Box?","Blue","Green","F","affirmation","mismatch","gesture","no","ThumbUp","female","gesture-speech","1440","900","firefox","60.79","Mac OS","21","male","right","Wed Oct 02 2024 15:55:22 GMT+0200 (Mitteleuropäische Sommerzeit)","1","94","0","1727879585321"
"3113","j","SpeechGestureMatch","../RequiredFiles/videos/JaDaumenrunter_m.mp4","Ist der Ball in der blauen Box?","Green","Blue","F","negation","mismatch","gesture","yes","ThumbDown","male","gesture-speech","1440","900","firefox","60.79","Mac OS","21","male","right","Wed Oct 02 2024 15:55:31 GMT+0200 (Mitteleuropäische Sommerzeit)","1","95","1","1727879585321"
"2030","f","SpeechGestureMatch","../RequiredFiles/videos/JaDaumenrunter_f_no_sound.mp4","Ist der Ball in der grünen Box?","Blue","Green","F","negation","na","gesture","na","ThumbDown","female","gesture-speech","1440","900","firefox","60.79","Mac OS","21","male","right","Wed Oct 02 2024 15:55:38 GMT+0200 (Mitteleuropäische Sommerzeit)","1","96","0","1727879585321"
"1159","j","SpeechGestureMatch","../RequiredFiles/videos/JaDaumenhoch_f_no_sound.mp4","Ist der Ball in der blauen Box?","Green","Blue","J","affirmation","na","gesture","na","ThumbUp","female","gesture-speech","1440","900","firefox","60.79","Mac OS","21","male","right","Wed Oct 02 2024 15:56:02 GMT+0200 (Mitteleuropäische Sommerzeit)","2","1","0","1727879585321"
"2400","f","SpeechGestureMatch","../RequiredFiles/videos/NeinDaumenrunter_f.mp4","Ist der Ball in der blauen Box?","Green","Blue","F","negation","match","gesture","no","ThumbDown","female","gesture-speech","1440","900","firefox","60.79","Mac OS","21","male","right","Wed Oct 02 2024 15:56:10 GMT+0200 (Mitteleuropäische Sommerzeit)","2","2","0","1727879585321"
"1720","f","SpeechGestureMatch","../RequiredFiles/videos/NeinDaumenrunter_m.mp4","Ist der Ball in der grünen Box?","Blue","Green","F","negation","match","gesture","no","ThumbDown","male","gesture-speech","1440","900","firefox","60.79","Mac OS","21","male","right","Wed Oct 02 2024 15:56:17 GMT+0200 (Mitteleuropäische Sommerzeit)","2","3","0","1727879585321"
"1978","j","SpeechGestureMatch","../RequiredFiles/videos/JaDaumenrunter_f_no_sound.mp4","Ist der Ball in der blauen Box?","Blue","Green","J","negation","na","gesture","na","ThumbDown","female","gesture-speech","1440","900","firefox","60.79","Mac OS","21","male","right","Wed Oct 02 2024 15:56:25 GMT+0200 (Mitteleuropäische Sommerzeit)","2","4","0","1727879585321"
"1628","j","SpeechGestureMatch","../RequiredFiles/videos/JaDaumenhoch_f.mp4","Ist der Ball in der blauen Box?","Green","Blue","J","affirmation","match","gesture","yes","ThumbUp","female","gesture-speech","1440","900","firefox","60.79","Mac OS","21","male","right","Wed Oct 02 2024 15:56:32 GMT+0200 (Mitteleuropäische Sommerzeit)","2","5","0","1727879585321"
"1728","j","SpeechGestureMatch","../RequiredFiles/videos/JaDaumenrunter_f_no_sound.mp4","Ist der Ball in der grünen Box?","Green","Blue","J","negation","na","gesture","na","ThumbDown","female","gesture-speech","1440","900","firefox","60.79","Mac OS","21","male","right","Wed Oct 02 2024 15:56:39 GMT+0200 (Mitteleuropäische Sommerzeit)","2","6","0","1727879585321"
"1786","j","SpeechGestureMatch","../RequiredFiles/videos/JaDaumenhoch_f.mp4","Ist der Ball in der blauen Box?","Blue","Green","F","affirmation","match","gesture","yes","ThumbUp","female","gesture-speech","1440","900","firefox","60.79","Mac OS","21","male","right","Wed Oct 02 2024 15:56:46 GMT+0200 (Mitteleuropäische Sommerzeit)","2","7","1","1727879585321"
"1734","f","SpeechGestureMatch","../RequiredFiles/videos/NeinDaumenrunter_m_no_sound.mp4","Ist der Ball in der grünen Box?","Blue","Green","F","negation","na","gesture","na","ThumbDown","male","gesture-speech","1440","900","firefox","60.79","Mac OS","21","male","right","Wed Oct 02 2024 15:56:54 GMT+0200 (Mitteleuropäische Sommerzeit)","2","8","0","1727879585321"
"1171","j","SpeechGestureMatch","../RequiredFiles/videos/NeinDaumenhoch_f_no_sound.mp4","Ist der Ball in der blauen Box?","Green","Blue","J","affirmation","na","gesture","na","ThumbUp","female","gesture-speech","1440","900","firefox","60.79","Mac OS","21","male","right","Wed Oct 02 2024 15:57:01 GMT+0200 (Mitteleuropäische Sommerzeit)","2","9","0","1727879585321"
"960","j","SpeechGestureMatch","../RequiredFiles/videos/JaDaumenhoch_m.mp4","Ist der Ball in der grünen Box?","Blue","Green","J","affirmation","match","gesture","yes","ThumbUp","male","gesture-speech","1440","900","firefox","60.79","Mac OS","21","male","right","Wed Oct 02 2024 15:57:07 GMT+0200 (Mitteleuropäische Sommerzeit)","2","10","0","1727879585321"
"1131","f","SpeechGestureMatch","../RequiredFiles/videos/NeinDaumenrunter_f_no_sound.mp4","Ist der Ball in der blauen Box?","Blue","Green","J","negation","na","gesture","na","ThumbDown","female","gesture-speech","1440","900","firefox","60.79","Mac OS","21","male","right","Wed Oct 02 2024 15:57:14 GMT+0200 (Mitteleuropäische Sommerzeit)","2","11","1","1727879585321"
"1789","f","SpeechGestureMatch","../RequiredFiles/videos/JaDaumenrunter_f_no_sound.mp4","Ist der Ball in der grünen Box?","Blue","Green","F","negation","na","gesture","na","ThumbDown","female","gesture-speech","1440","900","firefox","60.79","Mac OS","21","male","right","Wed Oct 02 2024 15:57:21 GMT+0200 (Mitteleuropäische Sommerzeit)","2","12","0","1727879585321"
"1966","f","SpeechGestureMatch","../RequiredFiles/videos/JaDaumenrunter_f.mp4","Ist der Ball in der blauen Box?","Green","Blue","F","negation","mismatch","gesture","yes","ThumbDown","female","gesture-speech","1440","900","firefox","60.79","Mac OS","21","male","right","Wed Oct 02 2024 15:57:29 GMT+0200 (Mitteleuropäische Sommerzeit)","2","13","0","1727879585321"
"2444","f","SpeechGestureMatch","../RequiredFiles/videos/NeinDaumenhoch_f_no_sound.mp4","Ist der Ball in der grünen Box?","Blue","Green","J","affirmation","na","gesture","na","ThumbUp","female","gesture-speech","1440","900","firefox","60.79","Mac OS","21","male","right","Wed Oct 02 2024 15:57:37 GMT+0200 (Mitteleuropäische Sommerzeit)","2","14","1","1727879585321"
"836","j","SpeechGestureMatch","../RequiredFiles/videos/NeinDaumenhoch_f.mp4","Ist der Ball in der blauen Box?","Green","Blue","J","affirmation","mismatch","gesture","no","ThumbUp","female","gesture-speech","1440","900","firefox","60.79","Mac OS","21","male","right","Wed Oct 02 2024 15:57:43 GMT+0200 (Mitteleuropäische Sommerzeit)","2","15","0","1727879585321"
"1173","f","SpeechGestureMatch","../RequiredFiles/videos/JaDaumenrunter_m_no_sound.mp4","Ist der Ball in der grünen Box?","Green","Blue","J","negation","na","gesture","na","ThumbDown","male","gesture-speech","1440","900","firefox","60.79","Mac OS","21","male","right","Wed Oct 02 2024 15:57:50 GMT+0200 (Mitteleuropäische Sommerzeit)","2","16","1","1727879585321"
"2676","j","SpeechGestureMatch","../RequiredFiles/videos/NeinDaumenrunter_m_no_sound.mp4","Ist der Ball in der blauen Box?","Blue","Green","J","negation","na","gesture","na","ThumbDown","male","gesture-speech","1440","900","firefox","60.79","Mac OS","21","male","right","Wed Oct 02 2024 15:57:58 GMT+0200 (Mitteleuropäische Sommerzeit)","2","17","0","1727879585321"
"2378","f","SpeechGestureMatch","../RequiredFiles/videos/JaDaumenrunter_m.mp4","Ist der Ball in der grünen Box?","Blue","Green","F","negation","mismatch","gesture","yes","ThumbDown","male","gesture-speech","1440","900","firefox","60.79","Mac OS","21","male","right","Wed Oct 02 2024 15:58:06 GMT+0200 (Mitteleuropäische Sommerzeit)","2","18","0","1727879585321"
"1552","f","SpeechGestureMatch","../RequiredFiles/videos/JaDaumenrunter_f.mp4","Ist der Ball in der grünen Box?","Blue","Green","F","negation","mismatch","gesture","yes","ThumbDown","female","gesture-speech","1440","900","firefox","60.79","Mac OS","21","male","right","Wed Oct 02 2024 15:58:13 GMT+0200 (Mitteleuropäische Sommerzeit)","2","19","0","1727879585321"
"1491","j","SpeechGestureMatch","../RequiredFiles/videos/NeinDaumenhoch_m_no_sound.mp4","Ist der Ball in der blauen Box?","Green","Blue","J","affirmation","na","gesture","na","ThumbUp","male","gesture-speech","1440","900","firefox","60.79","Mac OS","21","male","right","Wed Oct 02 2024 15:58:20 GMT+0200 (Mitteleuropäische Sommerzeit)","2","20","0","1727879585321"
"1118","j","SpeechGestureMatch","../RequiredFiles/videos/NeinDaumenhoch_m.mp4","Ist der Ball in der grünen Box?","Blue","Green","J","affirmation","mismatch","gesture","no","ThumbUp","male","gesture-speech","1440","900","firefox","60.79","Mac OS","21","male","right","Wed Oct 02 2024 15:58:27 GMT+0200 (Mitteleuropäische Sommerzeit)","2","21","0","1727879585321"
"872","f","SpeechGestureMatch","../RequiredFiles/videos/JaDaumenhoch_f.mp4","Ist der Ball in der blauen Box?","Blue","Green","F","affirmation","match","gesture","yes","ThumbUp","female","gesture-speech","1440","900","firefox","60.79","Mac OS","21","male","right","Wed Oct 02 2024 15:58:33 GMT+0200 (Mitteleuropäische Sommerzeit)","2","22","0","1727879585321"
"884","f","SpeechGestureMatch","../RequiredFiles/videos/JaDaumenhoch_f.mp4","Ist der Ball in der grünen Box?","Green","Blue","F","affirmation","match","gesture","yes","ThumbUp","female","gesture-speech","1440","900","firefox","60.79","Mac OS","21","male","right","Wed Oct 02 2024 15:58:39 GMT+0200 (Mitteleuropäische Sommerzeit)","2","23","0","1727879585321"
"1187","f","SpeechGestureMatch","../RequiredFiles/videos/NeinDaumenrunter_f.mp4","Ist der Ball in der grünen Box?","Blue","Green","F","negation","match","gesture","no","ThumbDown","female","gesture-speech","1440","900","firefox","60.79","Mac OS","21","male","right","Wed Oct 02 2024 15:58:46 GMT+0200 (Mitteleuropäische Sommerzeit)","2","24","0","1727879585321"
"1319","j","SpeechGestureMatch","../RequiredFiles/videos/NeinDaumenhoch_m.mp4","Ist der Ball in der blauen Box?","Green","Blue","J","affirmation","mismatch","gesture","no","ThumbUp","male","gesture-speech","1440","900","firefox","60.79","Mac OS","21","male","right","Wed Oct 02 2024 15:58:53 GMT+0200 (Mitteleuropäische Sommerzeit)","2","25","0","1727879585321"
"1826","f","SpeechGestureMatch","../RequiredFiles/videos/NeinDaumenrunter_f.mp4","Ist der Ball in der grünen Box?","Blue","Green","F","negation","match","gesture","no","ThumbDown","female","gesture-speech","1440","900","firefox","60.79","Mac OS","21","male","right","Wed Oct 02 2024 15:59:01 GMT+0200 (Mitteleuropäische Sommerzeit)","2","26","0","1727879585321"
"1170","j","SpeechGestureMatch","../RequiredFiles/videos/NeinDaumenhoch_f.mp4","Ist der Ball in der grünen Box?","Blue","Green","J","affirmation","mismatch","gesture","no","ThumbUp","female","gesture-speech","1440","900","firefox","60.79","Mac OS","21","male","right","Wed Oct 02 2024 15:59:07 GMT+0200 (Mitteleuropäische Sommerzeit)","2","27","0","1727879585321"
"1499","f","SpeechGestureMatch","../RequiredFiles/videos/JaDaumenhoch_f_no_sound.mp4","Ist der Ball in der grünen Box?","Green","Blue","F","affirmation","na","gesture","na","ThumbUp","female","gesture-speech","1440","900","firefox","60.79","Mac OS","21","male","right","Wed Oct 02 2024 15:59:14 GMT+0200 (Mitteleuropäische Sommerzeit)","2","28","0","1727879585321"
"1083","j","SpeechGestureMatch","../RequiredFiles/videos/JaDaumenhoch_f_no_sound.mp4","Ist der Ball in der grünen Box?","Blue","Green","J","affirmation","na","gesture","na","ThumbUp","female","gesture-speech","1440","900","firefox","60.79","Mac OS","21","male","right","Wed Oct 02 2024 15:59:21 GMT+0200 (Mitteleuropäische Sommerzeit)","2","29","0","1727879585321"
"1586","f","SpeechGestureMatch","../RequiredFiles/videos/NeinDaumenhoch_m.mp4","Ist der Ball in der blauen Box?","Blue","Green","F","affirmation","mismatch","gesture","no","ThumbUp","male","gesture-speech","1440","900","firefox","60.79","Mac OS","21","male","right","Wed Oct 02 2024 15:59:28 GMT+0200 (Mitteleuropäische Sommerzeit)","2","30","0","1727879585321"
"2257","j","SpeechGestureMatch","../RequiredFiles/videos/JaDaumenhoch_f.mp4","Ist der Ball in der grünen Box?","Blue","Green","J","affirmation","match","gesture","yes","ThumbUp","female","gesture-speech","1440","900","firefox","60.79","Mac OS","21","male","right","Wed Oct 02 2024 15:59:36 GMT+0200 (Mitteleuropäische Sommerzeit)","2","31","0","1727879585321"
"2017","f","SpeechGestureMatch","../RequiredFiles/videos/JaDaumenrunter_m_no_sound.mp4","Ist der Ball in der grünen Box?","Blue","Green","F","negation","na","gesture","na","ThumbDown","male","gesture-speech","1440","900","firefox","60.79","Mac OS","21","male","right","Wed Oct 02 2024 15:59:44 GMT+0200 (Mitteleuropäische Sommerzeit)","2","32","0","1727879585321"
"1041","f","SpeechGestureMatch","../RequiredFiles/videos/JaDaumenhoch_m_no_sound.mp4","Ist der Ball in der blauen Box?","Blue","Green","F","affirmation","na","gesture","na","ThumbUp","male","gesture-speech","1440","900","firefox","60.79","Mac OS","21","male","right","Wed Oct 02 2024 15:59:50 GMT+0200 (Mitteleuropäische Sommerzeit)","2","33","0","1727879585321"
"1829","f","SpeechGestureMatch","../RequiredFiles/videos/NeinDaumenhoch_f.mp4","Ist der Ball in der grünen Box?","Green","Blue","F","affirmation","mismatch","gesture","no","ThumbUp","female","gesture-speech","1440","900","firefox","60.79","Mac OS","21","male","right","Wed Oct 02 2024 15:59:57 GMT+0200 (Mitteleuropäische Sommerzeit)","2","34","0","1727879585321"
"1877","j","SpeechGestureMatch","../RequiredFiles/videos/NeinDaumenrunter_m.mp4","Ist der Ball in der grünen Box?","Green","Blue","J","negation","match","gesture","no","ThumbDown","male","gesture-speech","1440","900","firefox","60.79","Mac OS","21","male","right","Wed Oct 02 2024 16:00:05 GMT+0200 (Mitteleuropäische Sommerzeit)","2","35","0","1727879585321"
"1115","j","SpeechGestureMatch","../RequiredFiles/videos/JaDaumenhoch_m.mp4","Ist der Ball in der blauen Box?","Green","Blue","J","affirmation","match","gesture","yes","ThumbUp","male","gesture-speech","1440","900","firefox","60.79","Mac OS","21","male","right","Wed Oct 02 2024 16:00:11 GMT+0200 (Mitteleuropäische Sommerzeit)","2","36","0","1727879585321"
"1633","f","SpeechGestureMatch","../RequiredFiles/videos/NeinDaumenrunter_m_no_sound.mp4","Ist der Ball in der grünen Box?","Green","Blue","J","negation","na","gesture","na","ThumbDown","male","gesture-speech","1440","900","firefox","60.79","Mac OS","21","male","right","Wed Oct 02 2024 16:00:19 GMT+0200 (Mitteleuropäische Sommerzeit)","2","37","1","1727879585321"
"1287","j","SpeechGestureMatch","../RequiredFiles/videos/JaDaumenrunter_f.mp4","Ist der Ball in der grünen Box?","Green","Blue","J","negation","mismatch","gesture","yes","ThumbDown","female","gesture-speech","1440","900","firefox","60.79","Mac OS","21","male","right","Wed Oct 02 2024 16:00:25 GMT+0200 (Mitteleuropäische Sommerzeit)","2","38","0","1727879585321"
"1808","f","SpeechGestureMatch","../RequiredFiles/videos/NeinDaumenhoch_m.mp4","Ist der Ball in der grünen Box?","Green","Blue","F","affirmation","mismatch","gesture","no","ThumbUp","male","gesture-speech","1440","900","firefox","60.79","Mac OS","21","male","right","Wed Oct 02 2024 16:00:33 GMT+0200 (Mitteleuropäische Sommerzeit)","2","39","0","1727879585321"
"1563","f","SpeechGestureMatch","../RequiredFiles/videos/NeinDaumenrunter_m.mp4","Ist der Ball in der grünen Box?","Blue","Green","F","negation","match","gesture","no","ThumbDown","male","gesture-speech","1440","900","firefox","60.79","Mac OS","21","male","right","Wed Oct 02 2024 16:00:40 GMT+0200 (Mitteleuropäische Sommerzeit)","2","40","0","1727879585321"
"1662","f","SpeechGestureMatch","../RequiredFiles/videos/NeinDaumenhoch_m.mp4","Ist der Ball in der grünen Box?","Green","Blue","F","affirmation","mismatch","gesture","no","ThumbUp","male","gesture-speech","1440","900","firefox","60.79","Mac OS","21","male","right","Wed Oct 02 2024 16:00:47 GMT+0200 (Mitteleuropäische Sommerzeit)","2","41","0","1727879585321"
"2000","j","SpeechGestureMatch","../RequiredFiles/videos/NeinDaumenhoch_f.mp4","Ist der Ball in der blauen Box?","Green","Blue","J","affirmation","mismatch","gesture","no","ThumbUp","female","gesture-speech","1440","900","firefox","60.79","Mac OS","21","male","right","Wed Oct 02 2024 16:00:55 GMT+0200 (Mitteleuropäische Sommerzeit)","2","42","0","1727879585321"
"1115","f","SpeechGestureMatch","../RequiredFiles/videos/NeinDaumenhoch_f.mp4","Ist der Ball in der grünen Box?","Green","Blue","F","affirmation","mismatch","gesture","no","ThumbUp","female","gesture-speech","1440","900","firefox","60.79","Mac OS","21","male","right","Wed Oct 02 2024 16:01:01 GMT+0200 (Mitteleuropäische Sommerzeit)","2","43","0","1727879585321"
"931","f","SpeechGestureMatch","../RequiredFiles/videos/JaDaumenrunter_f.mp4","Ist der Ball in der blauen Box?","Green","Blue","F","negation","mismatch","gesture","yes","ThumbDown","female","gesture-speech","1440","900","firefox","60.79","Mac OS","21","male","right","Wed Oct 02 2024 16:01:08 GMT+0200 (Mitteleuropäische Sommerzeit)","2","44","0","1727879585321"
"814","f","SpeechGestureMatch","../RequiredFiles/videos/NeinDaumenhoch_f.mp4","Ist der Ball in der blauen Box?","Blue","Green","F","affirmation","mismatch","gesture","no","ThumbUp","female","gesture-speech","1440","900","firefox","60.79","Mac OS","21","male","right","Wed Oct 02 2024 16:01:14 GMT+0200 (Mitteleuropäische Sommerzeit)","2","45","0","1727879585321"
"1649","f","SpeechGestureMatch","../RequiredFiles/videos/JaDaumenrunter_m.mp4","Ist der Ball in der grünen Box?","Green","Blue","J","negation","mismatch","gesture","yes","ThumbDown","male","gesture-speech","1440","900","firefox","60.79","Mac OS","21","male","right","Wed Oct 02 2024 16:01:21 GMT+0200 (Mitteleuropäische Sommerzeit)","2","46","1","1727879585321"
"1090","j","SpeechGestureMatch","../RequiredFiles/videos/NeinDaumenrunter_f_no_sound.mp4","Ist der Ball in der grünen Box?","Blue","Green","F","negation","na","gesture","na","ThumbDown","female","gesture-speech","1440","900","firefox","60.79","Mac OS","21","male","right","Wed Oct 02 2024 16:01:28 GMT+0200 (Mitteleuropäische Sommerzeit)","2","47","1","1727879585321"
"2229","j","SpeechGestureMatch","../RequiredFiles/videos/JaDaumenrunter_f.mp4","Ist der Ball in der blauen Box?","Blue","Green","J","negation","mismatch","gesture","yes","ThumbDown","female","gesture-speech","1440","900","firefox","60.79","Mac OS","21","male","right","Wed Oct 02 2024 16:01:36 GMT+0200 (Mitteleuropäische Sommerzeit)","2","48","0","1727879585321"
"819","j","SpeechGestureMatch","../RequiredFiles/videos/JaDaumenhoch_f.mp4","Ist der Ball in der blauen Box?","Green","Blue","J","affirmation","match","gesture","yes","ThumbUp","female","gesture-speech","1440","900","firefox","60.79","Mac OS","21","male","right","Wed Oct 02 2024 16:01:42 GMT+0200 (Mitteleuropäische Sommerzeit)","2","49","0","1727879585321"
"2054","j","SpeechGestureMatch","../RequiredFiles/videos/JaDaumenrunter_f.mp4","Ist der Ball in der blauen Box?","Blue","Green","J","negation","mismatch","gesture","yes","ThumbDown","female","gesture-speech","1440","900","firefox","60.79","Mac OS","21","male","right","Wed Oct 02 2024 16:01:50 GMT+0200 (Mitteleuropäische Sommerzeit)","2","50","0","1727879585321"
"1190","j","SpeechGestureMatch","../RequiredFiles/videos/JaDaumenhoch_m.mp4","Ist der Ball in der blauen Box?","Green","Blue","J","affirmation","match","gesture","yes","ThumbUp","male","gesture-speech","1440","900","firefox","60.79","Mac OS","21","male","right","Wed Oct 02 2024 16:01:57 GMT+0200 (Mitteleuropäische Sommerzeit)","2","51","0","1727879585321"
"1273","f","SpeechGestureMatch","../RequiredFiles/videos/NeinDaumenhoch_m_no_sound.mp4","Ist der Ball in der grünen Box?","Green","Blue","F","affirmation","na","gesture","na","ThumbUp","male","gesture-speech","1440","900","firefox","60.79","Mac OS","21","male","right","Wed Oct 02 2024 16:02:03 GMT+0200 (Mitteleuropäische Sommerzeit)","2","52","0","1727879585321"
"1340","j","SpeechGestureMatch","../RequiredFiles/videos/JaDaumenrunter_m_no_sound.mp4","Ist der Ball in der blauen Box?","Blue","Green","J","negation","na","gesture","na","ThumbDown","male","gesture-speech","1440","900","firefox","60.79","Mac OS","21","male","right","Wed Oct 02 2024 16:02:10 GMT+0200 (Mitteleuropäische Sommerzeit)","2","53","0","1727879585321"
"1468","f","SpeechGestureMatch","../RequiredFiles/videos/NeinDaumenrunter_m.mp4","Ist der Ball in der blauen Box?","Green","Blue","F","negation","match","gesture","no","ThumbDown","male","gesture-speech","1440","900","firefox","60.79","Mac OS","21","male","right","Wed Oct 02 2024 16:02:17 GMT+0200 (Mitteleuropäische Sommerzeit)","2","54","0","1727879585321"
"1348","j","SpeechGestureMatch","../RequiredFiles/videos/NeinDaumenhoch_m.mp4","Ist der Ball in der blauen Box?","Green","Blue","J","affirmation","mismatch","gesture","no","ThumbUp","male","gesture-speech","1440","900","firefox","60.79","Mac OS","21","male","right","Wed Oct 02 2024 16:02:24 GMT+0200 (Mitteleuropäische Sommerzeit)","2","55","0","1727879585321"
"895","j","SpeechGestureMatch","../RequiredFiles/videos/NeinDaumenhoch_m.mp4","Ist der Ball in der grünen Box?","Blue","Green","J","affirmation","mismatch","gesture","no","ThumbUp","male","gesture-speech","1440","900","firefox","60.79","Mac OS","21","male","right","Wed Oct 02 2024 16:02:31 GMT+0200 (Mitteleuropäische Sommerzeit)","2","56","0","1727879585321"
"1473","f","SpeechGestureMatch","../RequiredFiles/videos/NeinDaumenrunter_m.mp4","Ist der Ball in der blauen Box?","Green","Blue","F","negation","match","gesture","no","ThumbDown","male","gesture-speech","1440","900","firefox","60.79","Mac OS","21","male","right","Wed Oct 02 2024 16:02:38 GMT+0200 (Mitteleuropäische Sommerzeit)","2","57","0","1727879585321"
"1668","f","SpeechGestureMatch","../RequiredFiles/videos/NeinDaumenrunter_m_no_sound.mp4","Ist der Ball in der blauen Box?","Green","Blue","F","negation","na","gesture","na","ThumbDown","male","gesture-speech","1440","900","firefox","60.79","Mac OS","21","male","right","Wed Oct 02 2024 16:02:45 GMT+0200 (Mitteleuropäische Sommerzeit)","2","58","0","1727879585321"
"1153","j","SpeechGestureMatch","../RequiredFiles/videos/JaDaumenhoch_m.mp4","Ist der Ball in der grünen Box?","Green","Blue","F","affirmation","match","gesture","yes","ThumbUp","male","gesture-speech","1440","900","firefox","60.79","Mac OS","21","male","right","Wed Oct 02 2024 16:02:52 GMT+0200 (Mitteleuropäische Sommerzeit)","2","59","1","1727879585321"
"1264","f","SpeechGestureMatch","../RequiredFiles/videos/NeinDaumenhoch_f.mp4","Ist der Ball in der grünen Box?","Blue","Green","J","affirmation","mismatch","gesture","no","ThumbUp","female","gesture-speech","1440","900","firefox","60.79","Mac OS","21","male","right","Wed Oct 02 2024 16:02:59 GMT+0200 (Mitteleuropäische Sommerzeit)","2","60","1","1727879585321"
"925","j","SpeechGestureMatch","../RequiredFiles/videos/JaDaumenrunter_m.mp4","Ist der Ball in der blauen Box?","Blue","Green","J","negation","mismatch","gesture","yes","ThumbDown","male","gesture-speech","1440","900","firefox","60.79","Mac OS","21","male","right","Wed Oct 02 2024 16:03:05 GMT+0200 (Mitteleuropäische Sommerzeit)","2","61","0","1727879585321"
"2269","f","SpeechGestureMatch","../RequiredFiles/videos/NeinDaumenhoch_f_no_sound.mp4","Ist der Ball in der grünen Box?","Green","Blue","F","affirmation","na","gesture","na","ThumbUp","female","gesture-speech","1440","900","firefox","60.79","Mac OS","21","male","right","Wed Oct 02 2024 16:03:13 GMT+0200 (Mitteleuropäische Sommerzeit)","2","62","0","1727879585321"
"1392","j","SpeechGestureMatch","../RequiredFiles/videos/JaDaumenhoch_m.mp4","Ist der Ball in der grünen Box?","Blue","Green","J","affirmation","match","gesture","yes","ThumbUp","male","gesture-speech","1440","900","firefox","60.79","Mac OS","21","male","right","Wed Oct 02 2024 16:03:20 GMT+0200 (Mitteleuropäische Sommerzeit)","2","63","0","1727879585321"
"1111","f","SpeechGestureMatch","../RequiredFiles/videos/NeinDaumenrunter_f.mp4","Ist der Ball in der blauen Box?","Blue","Green","J","negation","match","gesture","no","ThumbDown","female","gesture-speech","1440","900","firefox","60.79","Mac OS","21","male","right","Wed Oct 02 2024 16:03:27 GMT+0200 (Mitteleuropäische Sommerzeit)","2","64","1","1727879585321"
"1520","f","SpeechGestureMatch","../RequiredFiles/videos/NeinDaumenrunter_f_no_sound.mp4","Ist der Ball in der blauen Box?","Green","Blue","F","negation","na","gesture","na","ThumbDown","female","gesture-speech","1440","900","firefox","60.79","Mac OS","21","male","right","Wed Oct 02 2024 16:03:34 GMT+0200 (Mitteleuropäische Sommerzeit)","2","65","0","1727879585321"
"1269","j","SpeechGestureMatch","../RequiredFiles/videos/JaDaumenhoch_f.mp4","Ist der Ball in der grünen Box?","Blue","Green","J","affirmation","match","gesture","yes","ThumbUp","female","gesture-speech","1440","900","firefox","60.79","Mac OS","21","male","right","Wed Oct 02 2024 16:03:41 GMT+0200 (Mitteleuropäische Sommerzeit)","2","66","0","1727879585321"
"3042","f","SpeechGestureMatch","../RequiredFiles/videos/JaDaumenrunter_m.mp4","Ist der Ball in der blauen Box?","Green","Blue","F","negation","mismatch","gesture","yes","ThumbDown","male","gesture-speech","1440","900","firefox","60.79","Mac OS","21","male","right","Wed Oct 02 2024 16:03:49 GMT+0200 (Mitteleuropäische Sommerzeit)","2","67","0","1727879585321"
"822","f","SpeechGestureMatch","../RequiredFiles/videos/NeinDaumenrunter_f.mp4","Ist der Ball in der grünen Box?","Green","Blue","J","negation","match","gesture","no","ThumbDown","female","gesture-speech","1440","900","firefox","60.79","Mac OS","21","male","right","Wed Oct 02 2024 16:03:56 GMT+0200 (Mitteleuropäische Sommerzeit)","2","68","1","1727879585321"
"1814","f","SpeechGestureMatch","../RequiredFiles/videos/NeinDaumenhoch_f_no_sound.mp4","Ist der Ball in der blauen Box?","Blue","Green","F","affirmation","na","gesture","na","ThumbUp","female","gesture-speech","1440","900","firefox","60.79","Mac OS","21","male","right","Wed Oct 02 2024 16:04:03 GMT+0200 (Mitteleuropäische Sommerzeit)","2","69","0","1727879585321"
"1757","f","SpeechGestureMatch","../RequiredFiles/videos/JaDaumenrunter_m.mp4","Ist der Ball in der grünen Box?","Blue","Green","F","negation","mismatch","gesture","yes","ThumbDown","male","gesture-speech","1440","900","firefox","60.79","Mac OS","21","male","right","Wed Oct 02 2024 16:04:10 GMT+0200 (Mitteleuropäische Sommerzeit)","2","70","0","1727879585321"
"928","j","SpeechGestureMatch","../RequiredFiles/videos/JaDaumenhoch_m_no_sound.mp4","Ist der Ball in der blauen Box?","Green","Blue","J","affirmation","na","gesture","na","ThumbUp","male","gesture-speech","1440","900","firefox","60.79","Mac OS","21","male","right","Wed Oct 02 2024 16:04:17 GMT+0200 (Mitteleuropäische Sommerzeit)","2","71","0","1727879585321"
"1054","f","SpeechGestureMatch","../RequiredFiles/videos/NeinDaumenrunter_f.mp4","Ist der Ball in der blauen Box?","Blue","Green","J","negation","match","gesture","no","ThumbDown","female","gesture-speech","1440","900","firefox","60.79","Mac OS","21","male","right","Wed Oct 02 2024 16:04:23 GMT+0200 (Mitteleuropäische Sommerzeit)","2","72","1","1727879585321"
"1153","f","SpeechGestureMatch","../RequiredFiles/videos/JaDaumenhoch_f.mp4","Ist der Ball in der grünen Box?","Green","Blue","F","affirmation","match","gesture","yes","ThumbUp","female","gesture-speech","1440","900","firefox","60.79","Mac OS","21","male","right","Wed Oct 02 2024 16:04:30 GMT+0200 (Mitteleuropäische Sommerzeit)","2","73","0","1727879585321"
"1137","j","SpeechGestureMatch","../RequiredFiles/videos/NeinDaumenhoch_f.mp4","Ist der Ball in der blauen Box?","Blue","Green","F","affirmation","mismatch","gesture","no","ThumbUp","female","gesture-speech","1440","900","firefox","60.79","Mac OS","21","male","right","Wed Oct 02 2024 16:04:37 GMT+0200 (Mitteleuropäische Sommerzeit)","2","74","1","1727879585321"
"3285","f","SpeechGestureMatch","../RequiredFiles/videos/JaDaumenrunter_f_no_sound.mp4","Ist der Ball in der blauen Box?","Green","Blue","F","negation","na","gesture","na","ThumbDown","female","gesture-speech","1440","900","firefox","60.79","Mac OS","21","male","right","Wed Oct 02 2024 16:04:46 GMT+0200 (Mitteleuropäische Sommerzeit)","2","75","0","1727879585321"
"2784","f","SpeechGestureMatch","../RequiredFiles/videos/JaDaumenhoch_m_no_sound.mp4","Ist der Ball in der grünen Box?","Blue","Green","J","affirmation","na","gesture","na","ThumbUp","male","gesture-speech","1440","900","firefox","60.79","Mac OS","21","male","right","Wed Oct 02 2024 16:04:54 GMT+0200 (Mitteleuropäische Sommerzeit)","2","76","1","1727879585321"
"1692","f","SpeechGestureMatch","../RequiredFiles/videos/JaDaumenhoch_m.mp4","Ist der Ball in der blauen Box?","Blue","Green","F","affirmation","match","gesture","yes","ThumbUp","male","gesture-speech","1440","900","firefox","60.79","Mac OS","21","male","right","Wed Oct 02 2024 16:05:01 GMT+0200 (Mitteleuropäische Sommerzeit)","2","77","0","1727879585321"
"1602","f","SpeechGestureMatch","../RequiredFiles/videos/NeinDaumenrunter_f.mp4","Ist der Ball in der blauen Box?","Green","Blue","F","negation","match","gesture","no","ThumbDown","female","gesture-speech","1440","900","firefox","60.79","Mac OS","21","male","right","Wed Oct 02 2024 16:05:08 GMT+0200 (Mitteleuropäische Sommerzeit)","2","78","0","1727879585321"
"1937","j","SpeechGestureMatch","../RequiredFiles/videos/NeinDaumenrunter_f_no_sound.mp4","Ist der Ball in der grünen Box?","Green","Blue","J","negation","na","gesture","na","ThumbDown","female","gesture-speech","1440","900","firefox","60.79","Mac OS","21","male","right","Wed Oct 02 2024 16:05:16 GMT+0200 (Mitteleuropäische Sommerzeit)","2","79","0","1727879585321"
"1281","j","SpeechGestureMatch","../RequiredFiles/videos/NeinDaumenhoch_m_no_sound.mp4","Ist der Ball in der grünen Box?","Blue","Green","J","affirmation","na","gesture","na","ThumbUp","male","gesture-speech","1440","900","firefox","60.79","Mac OS","21","male","right","Wed Oct 02 2024 16:05:23 GMT+0200 (Mitteleuropäische Sommerzeit)","2","80","0","1727879585321"
"3028","j","SpeechGestureMatch","../RequiredFiles/videos/NeinDaumenrunter_m.mp4","Ist der Ball in der blauen Box?","Blue","Green","J","negation","match","gesture","no","ThumbDown","male","gesture-speech","1440","900","firefox","60.79","Mac OS","21","male","right","Wed Oct 02 2024 16:05:31 GMT+0200 (Mitteleuropäische Sommerzeit)","2","81","0","1727879585321"
"1876","j","SpeechGestureMatch","../RequiredFiles/videos/JaDaumenrunter_m.mp4","Ist der Ball in der blauen Box?","Blue","Green","J","negation","mismatch","gesture","yes","ThumbDown","male","gesture-speech","1440","900","firefox","60.79","Mac OS","21","male","right","Wed Oct 02 2024 16:05:39 GMT+0200 (Mitteleuropäische Sommerzeit)","2","82","0","1727879585321"
"1289","f","SpeechGestureMatch","../RequiredFiles/videos/JaDaumenhoch_m.mp4","Ist der Ball in der grünen Box?","Green","Blue","F","affirmation","match","gesture","yes","ThumbUp","male","gesture-speech","1440","900","firefox","60.79","Mac OS","21","male","right","Wed Oct 02 2024 16:05:46 GMT+0200 (Mitteleuropäische Sommerzeit)","2","83","0","1727879585321"
"3933","j","SpeechGestureMatch","../RequiredFiles/videos/JaDaumenrunter_f.mp4","Ist der Ball in der grünen Box?","Green","Blue","J","negation","mismatch","gesture","yes","ThumbDown","female","gesture-speech","1440","900","firefox","60.79","Mac OS","21","male","right","Wed Oct 02 2024 16:05:55 GMT+0200 (Mitteleuropäische Sommerzeit)","2","84","0","1727879585321"
"1214","f","SpeechGestureMatch","../RequiredFiles/videos/NeinDaumenrunter_f.mp4","Ist der Ball in der grünen Box?","Green","Blue","J","negation","match","gesture","no","ThumbDown","female","gesture-speech","1440","900","firefox","60.79","Mac OS","21","male","right","Wed Oct 02 2024 16:06:02 GMT+0200 (Mitteleuropäische Sommerzeit)","2","85","1","1727879585321"
"1209","j","SpeechGestureMatch","../RequiredFiles/videos/JaDaumenrunter_m.mp4","Ist der Ball in der blauen Box?","Green","Blue","F","negation","mismatch","gesture","yes","ThumbDown","male","gesture-speech","1440","900","firefox","60.79","Mac OS","21","male","right","Wed Oct 02 2024 16:06:09 GMT+0200 (Mitteleuropäische Sommerzeit)","2","86","1","1727879585321"
"1602","f","SpeechGestureMatch","../RequiredFiles/videos/JaDaumenrunter_f.mp4","Ist der Ball in der grünen Box?","Blue","Green","F","negation","mismatch","gesture","yes","ThumbDown","female","gesture-speech","1440","900","firefox","60.79","Mac OS","21","male","right","Wed Oct 02 2024 16:06:16 GMT+0200 (Mitteleuropäische Sommerzeit)","2","87","0","1727879585321"
"2692","j","SpeechGestureMatch","../RequiredFiles/videos/JaDaumenrunter_m_no_sound.mp4","Ist der Ball in der blauen Box?","Green","Blue","F","negation","na","gesture","na","ThumbDown","male","gesture-speech","1440","900","firefox","60.79","Mac OS","21","male","right","Wed Oct 02 2024 16:06:24 GMT+0200 (Mitteleuropäische Sommerzeit)","2","88","1","1727879585321"
"1148","f","SpeechGestureMatch","../RequiredFiles/videos/JaDaumenhoch_m_no_sound.mp4","Ist der Ball in der grünen Box?","Green","Blue","F","affirmation","na","gesture","na","ThumbUp","male","gesture-speech","1440","900","firefox","60.79","Mac OS","21","male","right","Wed Oct 02 2024 16:06:31 GMT+0200 (Mitteleuropäische Sommerzeit)","2","89","0","1727879585321"
"1625","f","SpeechGestureMatch","../RequiredFiles/videos/NeinDaumenhoch_m.mp4","Ist der Ball in der blauen Box?","Blue","Green","F","affirmation","mismatch","gesture","no","ThumbUp","male","gesture-speech","1440","900","firefox","60.79","Mac OS","21","male","right","Wed Oct 02 2024 16:06:38 GMT+0200 (Mitteleuropäische Sommerzeit)","2","90","0","1727879585321"
"1510","f","SpeechGestureMatch","../RequiredFiles/videos/JaDaumenhoch_f_no_sound.mp4","Ist der Ball in der blauen Box?","Blue","Green","F","affirmation","na","gesture","na","ThumbUp","female","gesture-speech","1440","900","firefox","60.79","Mac OS","21","male","right","Wed Oct 02 2024 16:06:45 GMT+0200 (Mitteleuropäische Sommerzeit)","2","91","0","1727879585321"
"2457","f","SpeechGestureMatch","../RequiredFiles/videos/JaDaumenrunter_m.mp4","Ist der Ball in der grünen Box?","Green","Blue","J","negation","mismatch","gesture","yes","ThumbDown","male","gesture-speech","1440","900","firefox","60.79","Mac OS","21","male","right","Wed Oct 02 2024 16:06:53 GMT+0200 (Mitteleuropäische Sommerzeit)","2","92","1","1727879585321"
"1547","f","SpeechGestureMatch","../RequiredFiles/videos/JaDaumenhoch_m.mp4","Ist der Ball in der blauen Box?","Blue","Green","F","affirmation","match","gesture","yes","ThumbUp","male","gesture-speech","1440","900","firefox","60.79","Mac OS","21","male","right","Wed Oct 02 2024 16:07:00 GMT+0200 (Mitteleuropäische Sommerzeit)","2","93","0","1727879585321"
"2461","j","SpeechGestureMatch","../RequiredFiles/videos/NeinDaumenrunter_m.mp4","Ist der Ball in der grünen Box?","Green","Blue","J","negation","match","gesture","no","ThumbDown","male","gesture-speech","1440","900","firefox","60.79","Mac OS","21","male","right","Wed Oct 02 2024 16:07:08 GMT+0200 (Mitteleuropäische Sommerzeit)","2","94","0","1727879585321"
"1532","f","SpeechGestureMatch","../RequiredFiles/videos/NeinDaumenhoch_m_no_sound.mp4","Ist der Ball in der blauen Box?","Blue","Green","F","affirmation","na","gesture","na","ThumbUp","male","gesture-speech","1440","900","firefox","60.79","Mac OS","21","male","right","Wed Oct 02 2024 16:07:15 GMT+0200 (Mitteleuropäische Sommerzeit)","2","95","0","1727879585321"
"1801","j","SpeechGestureMatch","../RequiredFiles/videos/NeinDaumenrunter_m.mp4","Ist der Ball in der blauen Box?","Blue","Green","J","negation","match","gesture","no","ThumbDown","male","gesture-speech","1440","900","firefox","60.79","Mac OS","21","male","right","Wed Oct 02 2024 16:07:22 GMT+0200 (Mitteleuropäische Sommerzeit)","2","96","0","1727879585321"
"2115","f","SpeechGestureMatch","../RequiredFiles/videos/JaDaumenrunter_f.mp4","Ist der Ball in der blauen Box?","Green","Blue","J","affirmation","mismatch","speech","yes","ThumbDown","female","gesture-speech","1440","900","firefox","60.79","Mac OS","21","male","right","Wed Oct 02 2024 16:10:46 GMT+0200 (Mitteleuropäische Sommerzeit)","3","1","1","1727879585321"
"1606","f","SpeechGestureMatch","../RequiredFiles/videos/NeinDaumenhoch_m.mp4","Ist der Ball in der grünen Box?","Blue","Green","F","negation","mismatch","speech","no","ThumbUp","male","gesture-speech","1440","900","firefox","60.79","Mac OS","21","male","right","Wed Oct 02 2024 16:10:53 GMT+0200 (Mitteleuropäische Sommerzeit)","3","2","0","1727879585321"
"1154","f","SpeechGestureMatch","../RequiredFiles/videos/NeinDaumenhoch_f.mp4","Ist der Ball in der grünen Box?","Blue","Green","F","negation","mismatch","speech","no","ThumbUp","female","gesture-speech","1440","900","firefox","60.79","Mac OS","21","male","right","Wed Oct 02 2024 16:11:00 GMT+0200 (Mitteleuropäische Sommerzeit)","3","3","0","1727879585321"
"922","j","SpeechGestureMatch","../RequiredFiles/videos/JaDaumenhoch_f_no_gesture.mp4","Ist der Ball in der grünen Box?","Blue","Green","J","affirmation","na","speech","yes","na","female","gesture-speech","1440","900","firefox","60.79","Mac OS","21","male","right","Wed Oct 02 2024 16:11:06 GMT+0200 (Mitteleuropäische Sommerzeit)","3","4","0","1727879585321"
"1021","j","SpeechGestureMatch","../RequiredFiles/videos/NeinDaumenrunter_f_no_gesture.mp4","Ist der Ball in der grünen Box?","Green","Blue","J","negation","na","speech","no","na","female","gesture-speech","1440","900","firefox","60.79","Mac OS","21","male","right","Wed Oct 02 2024 16:11:13 GMT+0200 (Mitteleuropäische Sommerzeit)","3","5","0","1727879585321"
"779","j","SpeechGestureMatch","../RequiredFiles/videos/JaDaumenrunter_f_no_gesture.mp4","Ist der Ball in der blauen Box?","Green","Blue","J","affirmation","na","speech","yes","na","female","gesture-speech","1440","900","firefox","60.79","Mac OS","21","male","right","Wed Oct 02 2024 16:11:19 GMT+0200 (Mitteleuropäische Sommerzeit)","3","6","0","1727879585321"
"1347","f","SpeechGestureMatch","../RequiredFiles/videos/JaDaumenrunter_m_no_gesture.mp4","Ist der Ball in der blauen Box?","Blue","Green","F","affirmation","na","speech","yes","na","male","gesture-speech","1440","900","firefox","60.79","Mac OS","21","male","right","Wed Oct 02 2024 16:11:26 GMT+0200 (Mitteleuropäische Sommerzeit)","3","7","0","1727879585321"
"1438","f","SpeechGestureMatch","../RequiredFiles/videos/JaDaumenrunter_f.mp4","Ist der Ball in der grünen Box?","Green","Blue","F","affirmation","mismatch","speech","yes","ThumbDown","female","gesture-speech","1440","900","firefox","60.79","Mac OS","21","male","right","Wed Oct 02 2024 16:11:33 GMT+0200 (Mitteleuropäische Sommerzeit)","3","8","0","1727879585321"
"2445","f","SpeechGestureMatch","../RequiredFiles/videos/NeinDaumenrunter_m.mp4","Ist der Ball in der blauen Box?","Green","Blue","F","negation","match","speech","no","ThumbDown","male","gesture-speech","1440","900","firefox","60.79","Mac OS","21","male","right","Wed Oct 02 2024 16:11:41 GMT+0200 (Mitteleuropäische Sommerzeit)","3","9","0","1727879585321"
"1062","f","SpeechGestureMatch","../RequiredFiles/videos/NeinDaumenhoch_m.mp4","Ist der Ball in der grünen Box?","Blue","Green","F","negation","mismatch","speech","no","ThumbUp","male","gesture-speech","1440","900","firefox","60.79","Mac OS","21","male","right","Wed Oct 02 2024 16:11:48 GMT+0200 (Mitteleuropäische Sommerzeit)","3","10","0","1727879585321"
"1778","j","SpeechGestureMatch","../RequiredFiles/videos/JaDaumenhoch_m_no_gesture.mp4","Ist der Ball in der blauen Box?","Green","Blue","J","affirmation","na","speech","yes","na","male","gesture-speech","1440","900","firefox","60.79","Mac OS","21","male","right","Wed Oct 02 2024 16:11:55 GMT+0200 (Mitteleuropäische Sommerzeit)","3","11","0","1727879585321"
"1267","f","SpeechGestureMatch","../RequiredFiles/videos/NeinDaumenrunter_m.mp4","Ist der Ball in der grünen Box?","Green","Blue","J","negation","match","speech","no","ThumbDown","male","gesture-speech","1440","900","firefox","60.79","Mac OS","21","male","right","Wed Oct 02 2024 16:12:02 GMT+0200 (Mitteleuropäische Sommerzeit)","3","12","1","1727879585321"
"924","j","SpeechGestureMatch","../RequiredFiles/videos/JaDaumenrunter_m.mp4","Ist der Ball in der grünen Box?","Blue","Green","J","affirmation","mismatch","speech","yes","ThumbDown","male","gesture-speech","1440","900","firefox","60.79","Mac OS","21","male","right","Wed Oct 02 2024 16:12:08 GMT+0200 (Mitteleuropäische Sommerzeit)","3","13","0","1727879585321"
"1185","f","SpeechGestureMatch","../RequiredFiles/videos/JaDaumenrunter_m.mp4","Ist der Ball in der blauen Box?","Blue","Green","F","affirmation","mismatch","speech","yes","ThumbDown","male","gesture-speech","1440","900","firefox","60.79","Mac OS","21","male","right","Wed Oct 02 2024 16:12:15 GMT+0200 (Mitteleuropäische Sommerzeit)","3","14","0","1727879585321"
"2278","f","SpeechGestureMatch","../RequiredFiles/videos/NeinDaumenrunter_f.mp4","Ist der Ball in der blauen Box?","Blue","Green","J","negation","match","speech","no","ThumbDown","female","gesture-speech","1440","900","firefox","60.79","Mac OS","21","male","right","Wed Oct 02 2024 16:12:23 GMT+0200 (Mitteleuropäische Sommerzeit)","3","15","1","1727879585321"
"889","j","SpeechGestureMatch","../RequiredFiles/videos/JaDaumenrunter_m.mp4","Ist der Ball in der blauen Box?","Green","Blue","J","affirmation","mismatch","speech","yes","ThumbDown","male","gesture-speech","1440","900","firefox","60.79","Mac OS","21","male","right","Wed Oct 02 2024 16:12:29 GMT+0200 (Mitteleuropäische Sommerzeit)","3","16","0","1727879585321"
"808","f","SpeechGestureMatch","../RequiredFiles/videos/NeinDaumenrunter_m.mp4","Ist der Ball in der blauen Box?","Blue","Green","J","negation","match","speech","no","ThumbDown","male","gesture-speech","1440","900","firefox","60.79","Mac OS","21","male","right","Wed Oct 02 2024 16:12:36 GMT+0200 (Mitteleuropäische Sommerzeit)","3","17","1","1727879585321"
"908","f","SpeechGestureMatch","../RequiredFiles/videos/JaDaumenrunter_m.mp4","Ist der Ball in der grünen Box?","Green","Blue","F","affirmation","mismatch","speech","yes","ThumbDown","male","gesture-speech","1440","900","firefox","60.79","Mac OS","21","male","right","Wed Oct 02 2024 16:12:42 GMT+0200 (Mitteleuropäische Sommerzeit)","3","18","0","1727879585321"
"741","f","SpeechGestureMatch","../RequiredFiles/videos/JaDaumenhoch_f.mp4","Ist der Ball in der blauen Box?","Blue","Green","F","affirmation","match","speech","yes","ThumbUp","female","gesture-speech","1440","900","firefox","60.79","Mac OS","21","male","right","Wed Oct 02 2024 16:12:48 GMT+0200 (Mitteleuropäische Sommerzeit)","3","19","0","1727879585321"
"862","j","SpeechGestureMatch","../RequiredFiles/videos/NeinDaumenhoch_f.mp4","Ist der Ball in der blauen Box?","Green","Blue","F","negation","mismatch","speech","no","ThumbUp","female","gesture-speech","1440","900","firefox","60.79","Mac OS","21","male","right","Wed Oct 02 2024 16:12:55 GMT+0200 (Mitteleuropäische Sommerzeit)","3","20","1","1727879585321"
"2535","j","SpeechGestureMatch","../RequiredFiles/videos/JaDaumenrunter_m_no_gesture.mp4","Ist der Ball in der blauen Box?","Green","Blue","J","affirmation","na","speech","yes","na","male","gesture-speech","1440","900","firefox","60.79","Mac OS","21","male","right","Wed Oct 02 2024 16:13:03 GMT+0200 (Mitteleuropäische Sommerzeit)","3","21","0","1727879585321"
"1668","f","SpeechGestureMatch","../RequiredFiles/videos/NeinDaumenrunter_m.mp4","Ist der Ball in der grünen Box?","Blue","Green","F","negation","match","speech","no","ThumbDown","male","gesture-speech","1440","900","firefox","60.79","Mac OS","21","male","right","Wed Oct 02 2024 16:13:10 GMT+0200 (Mitteleuropäische Sommerzeit)","3","22","0","1727879585321"
"2780","f","SpeechGestureMatch","../RequiredFiles/videos/JaDaumenhoch_m_no_gesture.mp4","Ist der Ball in der blauen Box?","Blue","Green","F","affirmation","na","speech","yes","na","male","gesture-speech","1440","900","firefox","60.79","Mac OS","21","male","right","Wed Oct 02 2024 16:13:18 GMT+0200 (Mitteleuropäische Sommerzeit)","3","23","0","1727879585321"
"1258","f","SpeechGestureMatch","../RequiredFiles/videos/JaDaumenhoch_m.mp4","Ist der Ball in der blauen Box?","Blue","Green","F","affirmation","match","speech","yes","ThumbUp","male","gesture-speech","1440","900","firefox","60.79","Mac OS","21","male","right","Wed Oct 02 2024 16:13:25 GMT+0200 (Mitteleuropäische Sommerzeit)","3","24","0","1727879585321"
"1890","f","SpeechGestureMatch","../RequiredFiles/videos/JaDaumenrunter_m.mp4","Ist der Ball in der grünen Box?","Blue","Green","J","affirmation","mismatch","speech","yes","ThumbDown","male","gesture-speech","1440","900","firefox","60.79","Mac OS","21","male","right","Wed Oct 02 2024 16:13:33 GMT+0200 (Mitteleuropäische Sommerzeit)","3","25","1","1727879585321"
"850","j","SpeechGestureMatch","../RequiredFiles/videos/NeinDaumenrunter_m.mp4","Ist der Ball in der blauen Box?","Blue","Green","J","negation","match","speech","no","ThumbDown","male","gesture-speech","1440","900","firefox","60.79","Mac OS","21","male","right","Wed Oct 02 2024 16:13:39 GMT+0200 (Mitteleuropäische Sommerzeit)","3","26","0","1727879585321"
"1051","j","SpeechGestureMatch","../RequiredFiles/videos/JaDaumenhoch_f.mp4","Ist der Ball in der grünen Box?","Blue","Green","J","affirmation","match","speech","yes","ThumbUp","female","gesture-speech","1440","900","firefox","60.79","Mac OS","21","male","right","Wed Oct 02 2024 16:13:46 GMT+0200 (Mitteleuropäische Sommerzeit)","3","27","0","1727879585321"
"923","f","SpeechGestureMatch","../RequiredFiles/videos/NeinDaumenhoch_m_no_gesture.mp4","Ist der Ball in der blauen Box?","Green","Blue","F","negation","na","speech","no","na","male","gesture-speech","1440","900","firefox","60.79","Mac OS","21","male","right","Wed Oct 02 2024 16:13:52 GMT+0200 (Mitteleuropäische Sommerzeit)","3","28","0","1727879585321"
"1626","f","SpeechGestureMatch","../RequiredFiles/videos/JaDaumenrunter_f_no_gesture.mp4","Ist der Ball in der grünen Box?","Blue","Green","J","affirmation","na","speech","yes","na","female","gesture-speech","1440","900","firefox","60.79","Mac OS","21","male","right","Wed Oct 02 2024 16:13:59 GMT+0200 (Mitteleuropäische Sommerzeit)","3","29","1","1727879585321"
"893","j","SpeechGestureMatch","../RequiredFiles/videos/NeinDaumenrunter_f.mp4","Ist der Ball in der blauen Box?","Blue","Green","J","negation","match","speech","no","ThumbDown","female","gesture-speech","1440","900","firefox","60.79","Mac OS","21","male","right","Wed Oct 02 2024 16:14:06 GMT+0200 (Mitteleuropäische Sommerzeit)","3","30","0","1727879585321"
"838","f","SpeechGestureMatch","../RequiredFiles/videos/JaDaumenhoch_m.mp4","Ist der Ball in der blauen Box?","Green","Blue","J","affirmation","match","speech","yes","ThumbUp","male","gesture-speech","1440","900","firefox","60.79","Mac OS","21","male","right","Wed Oct 02 2024 16:14:12 GMT+0200 (Mitteleuropäische Sommerzeit)","3","31","1","1727879585321"
"825","j","SpeechGestureMatch","../RequiredFiles/videos/NeinDaumenhoch_f.mp4","Ist der Ball in der grünen Box?","Green","Blue","J","negation","mismatch","speech","no","ThumbUp","female","gesture-speech","1440","900","firefox","60.79","Mac OS","21","male","right","Wed Oct 02 2024 16:14:19 GMT+0200 (Mitteleuropäische Sommerzeit)","3","32","0","1727879585321"
"2470","j","SpeechGestureMatch","../RequiredFiles/videos/JaDaumenrunter_f.mp4","Ist der Ball in der grünen Box?","Blue","Green","J","affirmation","mismatch","speech","yes","ThumbDown","female","gesture-speech","1440","900","firefox","60.79","Mac OS","21","male","right","Wed Oct 02 2024 16:14:27 GMT+0200 (Mitteleuropäische Sommerzeit)","3","33","0","1727879585321"
"927","j","SpeechGestureMatch","../RequiredFiles/videos/JaDaumenhoch_m.mp4","Ist der Ball in der grünen Box?","Blue","Green","J","affirmation","match","speech","yes","ThumbUp","male","gesture-speech","1440","900","firefox","60.79","Mac OS","21","male","right","Wed Oct 02 2024 16:14:33 GMT+0200 (Mitteleuropäische Sommerzeit)","3","34","0","1727879585321"
"1021","f","SpeechGestureMatch","../RequiredFiles/videos/NeinDaumenrunter_m_no_gesture.mp4","Ist der Ball in der grünen Box?","Green","Blue","J","negation","na","speech","no","na","male","gesture-speech","1440","900","firefox","60.79","Mac OS","21","male","right","Wed Oct 02 2024 16:14:40 GMT+0200 (Mitteleuropäische Sommerzeit)","3","35","1","1727879585321"
"1832","f","SpeechGestureMatch","../RequiredFiles/videos/JaDaumenrunter_f.mp4","Ist der Ball in der grünen Box?","Green","Blue","F","affirmation","mismatch","speech","yes","ThumbDown","female","gesture-speech","1440","900","firefox","60.79","Mac OS","21","male","right","Wed Oct 02 2024 16:14:47 GMT+0200 (Mitteleuropäische Sommerzeit)","3","36","0","1727879585321"
"1245","f","SpeechGestureMatch","../RequiredFiles/videos/JaDaumenhoch_f.mp4","Ist der Ball in der grünen Box?","Green","Blue","F","affirmation","match","speech","yes","ThumbUp","female","gesture-speech","1440","900","firefox","60.79","Mac OS","21","male","right","Wed Oct 02 2024 16:14:54 GMT+0200 (Mitteleuropäische Sommerzeit)","3","37","0","1727879585321"
"1307","j","SpeechGestureMatch","../RequiredFiles/videos/JaDaumenhoch_f_no_gesture.mp4","Ist der Ball in der blauen Box?","Green","Blue","J","affirmation","na","speech","yes","na","female","gesture-speech","1440","900","firefox","60.79","Mac OS","21","male","right","Wed Oct 02 2024 16:15:01 GMT+0200 (Mitteleuropäische Sommerzeit)","3","38","0","1727879585321"
"1389","f","SpeechGestureMatch","../RequiredFiles/videos/NeinDaumenhoch_m.mp4","Ist der Ball in der blauen Box?","Blue","Green","J","negation","mismatch","speech","no","ThumbUp","male","gesture-speech","1440","900","firefox","60.79","Mac OS","21","male","right","Wed Oct 02 2024 16:15:07 GMT+0200 (Mitteleuropäische Sommerzeit)","3","39","1","1727879585321"
"1424","f","SpeechGestureMatch","../RequiredFiles/videos/JaDaumenhoch_f.mp4","Ist der Ball in der grünen Box?","Green","Blue","F","affirmation","match","speech","yes","ThumbUp","female","gesture-speech","1440","900","firefox","60.79","Mac OS","21","male","right","Wed Oct 02 2024 16:15:14 GMT+0200 (Mitteleuropäische Sommerzeit)","3","40","0","1727879585321"
"1615","j","SpeechGestureMatch","../RequiredFiles/videos/JaDaumenrunter_m.mp4","Ist der Ball in der blauen Box?","Green","Blue","J","affirmation","mismatch","speech","yes","ThumbDown","male","gesture-speech","1440","900","firefox","60.79","Mac OS","21","male","right","Wed Oct 02 2024 16:15:22 GMT+0200 (Mitteleuropäische Sommerzeit)","3","41","0","1727879585321"
"2591","f","SpeechGestureMatch","../RequiredFiles/videos/NeinDaumenrunter_m_no_gesture.mp4","Ist der Ball in der grünen Box?","Blue","Green","F","negation","na","speech","no","na","male","gesture-speech","1440","900","firefox","60.79","Mac OS","21","male","right","Wed Oct 02 2024 16:15:30 GMT+0200 (Mitteleuropäische Sommerzeit)","3","42","0","1727879585321"
"1354","f","SpeechGestureMatch","../RequiredFiles/videos/NeinDaumenrunter_m_no_gesture.mp4","Ist der Ball in der blauen Box?","Green","Blue","F","negation","na","speech","no","na","male","gesture-speech","1440","900","firefox","60.79","Mac OS","21","male","right","Wed Oct 02 2024 16:15:37 GMT+0200 (Mitteleuropäische Sommerzeit)","3","43","0","1727879585321"
"1174","f","SpeechGestureMatch","../RequiredFiles/videos/NeinDaumenhoch_m.mp4","Ist der Ball in der blauen Box?","Blue","Green","J","negation","mismatch","speech","no","ThumbUp","male","gesture-speech","1440","900","firefox","60.79","Mac OS","21","male","right","Wed Oct 02 2024 16:15:43 GMT+0200 (Mitteleuropäische Sommerzeit)","3","44","1","1727879585321"
"1192","j","SpeechGestureMatch","../RequiredFiles/videos/NeinDaumenhoch_f.mp4","Ist der Ball in der blauen Box?","Green","Blue","F","negation","mismatch","speech","no","ThumbUp","female","gesture-speech","1440","900","firefox","60.79","Mac OS","21","male","right","Wed Oct 02 2024 16:15:50 GMT+0200 (Mitteleuropäische Sommerzeit)","3","45","1","1727879585321"
"1510","j","SpeechGestureMatch","../RequiredFiles/videos/NeinDaumenhoch_m_no_gesture.mp4","Ist der Ball in der blauen Box?","Blue","Green","J","negation","na","speech","no","na","male","gesture-speech","1440","900","firefox","60.79","Mac OS","21","male","right","Wed Oct 02 2024 16:15:57 GMT+0200 (Mitteleuropäische Sommerzeit)","3","46","0","1727879585321"
"2474","f","SpeechGestureMatch","../RequiredFiles/videos/NeinDaumenrunter_f_no_gesture.mp4","Ist der Ball in der grünen Box?","Blue","Green","F","negation","na","speech","no","na","female","gesture-speech","1440","900","firefox","60.79","Mac OS","21","male","right","Wed Oct 02 2024 16:16:05 GMT+0200 (Mitteleuropäische Sommerzeit)","3","47","0","1727879585321"
"2276","j","SpeechGestureMatch","../RequiredFiles/videos/JaDaumenrunter_f.mp4","Ist der Ball in der blauen Box?","Green","Blue","J","affirmation","mismatch","speech","yes","ThumbDown","female","gesture-speech","1440","900","firefox","60.79","Mac OS","21","male","right","Wed Oct 02 2024 16:16:13 GMT+0200 (Mitteleuropäische Sommerzeit)","3","48","0","1727879585321"
"2200","f","SpeechGestureMatch","../RequiredFiles/videos/JaDaumenrunter_m.mp4","Ist der Ball in der blauen Box?","Blue","Green","F","affirmation","mismatch","speech","yes","ThumbDown","male","gesture-speech","1440","900","firefox","60.79","Mac OS","21","male","right","Wed Oct 02 2024 16:16:21 GMT+0200 (Mitteleuropäische Sommerzeit)","3","49","0","1727879585321"
"2791","j","SpeechGestureMatch","../RequiredFiles/videos/NeinDaumenhoch_f.mp4","Ist der Ball in der blauen Box?","Blue","Green","J","negation","mismatch","speech","no","ThumbUp","female","gesture-speech","1440","900","firefox","60.79","Mac OS","21","male","right","Wed Oct 02 2024 16:16:29 GMT+0200 (Mitteleuropäische Sommerzeit)","3","50","0","1727879585321"
"1150","f","SpeechGestureMatch","../RequiredFiles/videos/NeinDaumenhoch_f.mp4","Ist der Ball in der grünen Box?","Green","Blue","J","negation","mismatch","speech","no","ThumbUp","female","gesture-speech","1440","900","firefox","60.79","Mac OS","21","male","right","Wed Oct 02 2024 16:16:36 GMT+0200 (Mitteleuropäische Sommerzeit)","3","51","1","1727879585321"
"843","j","SpeechGestureMatch","../RequiredFiles/videos/JaDaumenhoch_m.mp4","Ist der Ball in der blauen Box?","Green","Blue","J","affirmation","match","speech","yes","ThumbUp","male","gesture-speech","1440","900","firefox","60.79","Mac OS","21","male","right","Wed Oct 02 2024 16:16:42 GMT+0200 (Mitteleuropäische Sommerzeit)","3","52","0","1727879585321"
"1476","f","SpeechGestureMatch","../RequiredFiles/videos/NeinDaumenhoch_m.mp4","Ist der Ball in der blauen Box?","Green","Blue","F","negation","mismatch","speech","no","ThumbUp","male","gesture-speech","1440","900","firefox","60.79","Mac OS","21","male","right","Wed Oct 02 2024 16:16:49 GMT+0200 (Mitteleuropäische Sommerzeit)","3","53","0","1727879585321"
"899","f","SpeechGestureMatch","../RequiredFiles/videos/JaDaumenhoch_m.mp4","Ist der Ball in der blauen Box?","Blue","Green","F","affirmation","match","speech","yes","ThumbUp","male","gesture-speech","1440","900","firefox","60.79","Mac OS","21","male","right","Wed Oct 02 2024 16:16:56 GMT+0200 (Mitteleuropäische Sommerzeit)","3","54","0","1727879585321"
"2841","j","SpeechGestureMatch","../RequiredFiles/videos/JaDaumenrunter_m_no_gesture.mp4","Ist der Ball in der grünen Box?","Blue","Green","J","affirmation","na","speech","yes","na","male","gesture-speech","1440","900","firefox","60.79","Mac OS","21","male","right","Wed Oct 02 2024 16:17:04 GMT+0200 (Mitteleuropäische Sommerzeit)","3","55","0","1727879585321"
"981","f","SpeechGestureMatch","../RequiredFiles/videos/NeinDaumenrunter_m_no_gesture.mp4","Ist der Ball in der blauen Box?","Blue","Green","J","negation","na","speech","no","na","male","gesture-speech","1440","900","firefox","60.79","Mac OS","21","male","right","Wed Oct 02 2024 16:17:10 GMT+0200 (Mitteleuropäische Sommerzeit)","3","56","1","1727879585321"
"748","j","SpeechGestureMatch","../RequiredFiles/videos/JaDaumenrunter_f_no_gesture.mp4","Ist der Ball in der blauen Box?","Blue","Green","F","affirmation","na","speech","yes","na","female","gesture-speech","1440","900","firefox","60.79","Mac OS","21","male","right","Wed Oct 02 2024 16:17:17 GMT+0200 (Mitteleuropäische Sommerzeit)","3","57","1","1727879585321"
"1498","f","SpeechGestureMatch","../RequiredFiles/videos/NeinDaumenrunter_f.mp4","Ist der Ball in der blauen Box?","Green","Blue","F","negation","match","speech","no","ThumbDown","female","gesture-speech","1440","900","firefox","60.79","Mac OS","21","male","right","Wed Oct 02 2024 16:17:24 GMT+0200 (Mitteleuropäische Sommerzeit)","3","58","0","1727879585321"
"848","f","SpeechGestureMatch","../RequiredFiles/videos/NeinDaumenrunter_m.mp4","Ist der Ball in der grünen Box?","Green","Blue","J","negation","match","speech","no","ThumbDown","male","gesture-speech","1440","900","firefox","60.79","Mac OS","21","male","right","Wed Oct 02 2024 16:17:30 GMT+0200 (Mitteleuropäische Sommerzeit)","3","59","1","1727879585321"
"1138","j","SpeechGestureMatch","../RequiredFiles/videos/NeinDaumenhoch_m.mp4","Ist der Ball in der blauen Box?","Green","Blue","F","negation","mismatch","speech","no","ThumbUp","male","gesture-speech","1440","900","firefox","60.79","Mac OS","21","male","right","Wed Oct 02 2024 16:17:37 GMT+0200 (Mitteleuropäische Sommerzeit)","3","60","1","1727879585321"
"1573","j","SpeechGestureMatch","../RequiredFiles/videos/NeinDaumenhoch_m_no_gesture.mp4","Ist der Ball in der grünen Box?","Green","Blue","J","negation","na","speech","no","na","male","gesture-speech","1440","900","firefox","60.79","Mac OS","21","male","right","Wed Oct 02 2024 16:17:44 GMT+0200 (Mitteleuropäische Sommerzeit)","3","61","0","1727879585321"
"1754","j","SpeechGestureMatch","../RequiredFiles/videos/NeinDaumenhoch_m.mp4","Ist der Ball in der grünen Box?","Green","Blue","J","negation","mismatch","speech","no","ThumbUp","male","gesture-speech","1440","900","firefox","60.79","Mac OS","21","male","right","Wed Oct 02 2024 16:17:51 GMT+0200 (Mitteleuropäische Sommerzeit)","3","62","0","1727879585321"
"2722","f","SpeechGestureMatch","../RequiredFiles/videos/JaDaumenhoch_f.mp4","Ist der Ball in der blauen Box?","Green","Blue","J","affirmation","match","speech","yes","ThumbUp","female","gesture-speech","1440","900","firefox","60.79","Mac OS","21","male","right","Wed Oct 02 2024 16:17:59 GMT+0200 (Mitteleuropäische Sommerzeit)","3","63","1","1727879585321"
"955","j","SpeechGestureMatch","../RequiredFiles/videos/JaDaumenhoch_f.mp4","Ist der Ball in der grünen Box?","Blue","Green","J","affirmation","match","speech","yes","ThumbUp","female","gesture-speech","1440","900","firefox","60.79","Mac OS","21","male","right","Wed Oct 02 2024 16:18:06 GMT+0200 (Mitteleuropäische Sommerzeit)","3","64","0","1727879585321"
"1192","f","SpeechGestureMatch","../RequiredFiles/videos/JaDaumenrunter_f.mp4","Ist der Ball in der blauen Box?","Blue","Green","F","affirmation","mismatch","speech","yes","ThumbDown","female","gesture-speech","1440","900","firefox","60.79","Mac OS","21","male","right","Wed Oct 02 2024 16:18:13 GMT+0200 (Mitteleuropäische Sommerzeit)","3","65","0","1727879585321"
"1221","f","SpeechGestureMatch","../RequiredFiles/videos/JaDaumenrunter_m_no_gesture.mp4","Ist der Ball in der grünen Box?","Green","Blue","F","affirmation","na","speech","yes","na","male","gesture-speech","1440","900","firefox","60.79","Mac OS","21","male","right","Wed Oct 02 2024 16:18:19 GMT+0200 (Mitteleuropäische Sommerzeit)","3","66","0","1727879585321"
"881","f","SpeechGestureMatch","../RequiredFiles/videos/JaDaumenhoch_f_no_gesture.mp4","Ist der Ball in der blauen Box?","Blue","Green","F","affirmation","na","speech","yes","na","female","gesture-speech","1440","900","firefox","60.79","Mac OS","21","male","right","Wed Oct 02 2024 16:18:26 GMT+0200 (Mitteleuropäische Sommerzeit)","3","67","0","1727879585321"
"832","f","SpeechGestureMatch","../RequiredFiles/videos/NeinDaumenrunter_m.mp4","Ist der Ball in der grünen Box?","Blue","Green","F","negation","match","speech","no","ThumbDown","male","gesture-speech","1440","900","firefox","60.79","Mac OS","21","male","right","Wed Oct 02 2024 16:18:33 GMT+0200 (Mitteleuropäische Sommerzeit)","3","68","0","1727879585321"
"972","f","SpeechGestureMatch","../RequiredFiles/videos/NeinDaumenhoch_m_no_gesture.mp4","Ist der Ball in der grünen Box?","Blue","Green","F","negation","na","speech","no","na","male","gesture-speech","1440","900","firefox","60.79","Mac OS","21","male","right","Wed Oct 02 2024 16:18:39 GMT+0200 (Mitteleuropäische Sommerzeit)","3","69","0","1727879585321"
"1314","f","SpeechGestureMatch","../RequiredFiles/videos/JaDaumenhoch_m_no_gesture.mp4","Ist der Ball in der grünen Box?","Green","Blue","F","affirmation","na","speech","yes","na","male","gesture-speech","1440","900","firefox","60.79","Mac OS","21","male","right","Wed Oct 02 2024 16:18:46 GMT+0200 (Mitteleuropäische Sommerzeit)","3","70","0","1727879585321"
"1021","j","SpeechGestureMatch","../RequiredFiles/videos/NeinDaumenrunter_f_no_gesture.mp4","Ist der Ball in der blauen Box?","Blue","Green","J","negation","na","speech","no","na","female","gesture-speech","1440","900","firefox","60.79","Mac OS","21","male","right","Wed Oct 02 2024 16:18:53 GMT+0200 (Mitteleuropäische Sommerzeit)","3","71","0","1727879585321"
"967","f","SpeechGestureMatch","../RequiredFiles/videos/NeinDaumenhoch_f_no_gesture.mp4","Ist der Ball in der grünen Box?","Green","Blue","J","negation","na","speech","no","na","female","gesture-speech","1440","900","firefox","60.79","Mac OS","21","male","right","Wed Oct 02 2024 16:18:59 GMT+0200 (Mitteleuropäische Sommerzeit)","3","72","1","1727879585321"
"698","j","SpeechGestureMatch","../RequiredFiles/videos/JaDaumenhoch_f.mp4","Ist der Ball in der blauen Box?","Green","Blue","J","affirmation","match","speech","yes","ThumbUp","female","gesture-speech","1440","900","firefox","60.79","Mac OS","21","male","right","Wed Oct 02 2024 16:19:05 GMT+0200 (Mitteleuropäische Sommerzeit)","3","73","0","1727879585321"
"738","f","SpeechGestureMatch","../RequiredFiles/videos/JaDaumenhoch_m.mp4","Ist der Ball in der grünen Box?","Green","Blue","F","affirmation","match","speech","yes","ThumbUp","male","gesture-speech","1440","900","firefox","60.79","Mac OS","21","male","right","Wed Oct 02 2024 16:19:12 GMT+0200 (Mitteleuropäische Sommerzeit)","3","74","0","1727879585321"
"970","j","SpeechGestureMatch","../RequiredFiles/videos/NeinDaumenhoch_f_no_gesture.mp4","Ist der Ball in der grünen Box?","Blue","Green","F","negation","na","speech","no","na","female","gesture-speech","1440","900","firefox","60.79","Mac OS","21","male","right","Wed Oct 02 2024 16:19:18 GMT+0200 (Mitteleuropäische Sommerzeit)","3","75","1","1727879585321"
"854","f","SpeechGestureMatch","../RequiredFiles/videos/NeinDaumenrunter_f.mp4","Ist der Ball in der grünen Box?","Blue","Green","F","negation","match","speech","no","ThumbDown","female","gesture-speech","1440","900","firefox","60.79","Mac OS","21","male","right","Wed Oct 02 2024 16:19:25 GMT+0200 (Mitteleuropäische Sommerzeit)","3","76","0","1727879585321"
"1611","j","SpeechGestureMatch","../RequiredFiles/videos/NeinDaumenrunter_f.mp4","Ist der Ball in der grünen Box?","Green","Blue","J","negation","match","speech","no","ThumbDown","female","gesture-speech","1440","900","firefox","60.79","Mac OS","21","male","right","Wed Oct 02 2024 16:19:32 GMT+0200 (Mitteleuropäische Sommerzeit)","3","77","0","1727879585321"
"1300","f","SpeechGestureMatch","../RequiredFiles/videos/JaDaumenrunter_f.mp4","Ist der Ball in der grünen Box?","Blue","Green","J","affirmation","mismatch","speech","yes","ThumbDown","female","gesture-speech","1440","900","firefox","60.79","Mac OS","21","male","right","Wed Oct 02 2024 16:19:38 GMT+0200 (Mitteleuropäische Sommerzeit)","3","78","1","1727879585321"
"794","j","SpeechGestureMatch","../RequiredFiles/videos/NeinDaumenhoch_f.mp4","Ist der Ball in der grünen Box?","Blue","Green","F","negation","mismatch","speech","no","ThumbUp","female","gesture-speech","1440","900","firefox","60.79","Mac OS","21","male","right","Wed Oct 02 2024 16:19:45 GMT+0200 (Mitteleuropäische Sommerzeit)","3","79","1","1727879585321"
"837","f","SpeechGestureMatch","../RequiredFiles/videos/JaDaumenhoch_f.mp4","Ist der Ball in der blauen Box?","Blue","Green","F","affirmation","match","speech","yes","ThumbUp","female","gesture-speech","1440","900","firefox","60.79","Mac OS","21","male","right","Wed Oct 02 2024 16:19:51 GMT+0200 (Mitteleuropäische Sommerzeit)","3","80","0","1727879585321"
"1057","j","SpeechGestureMatch","../RequiredFiles/videos/NeinDaumenrunter_f.mp4","Ist der Ball in der grünen Box?","Green","Blue","J","negation","match","speech","no","ThumbDown","female","gesture-speech","1440","900","firefox","60.79","Mac OS","21","male","right","Wed Oct 02 2024 16:19:58 GMT+0200 (Mitteleuropäische Sommerzeit)","3","81","0","1727879585321"
"1852","f","SpeechGestureMatch","../RequiredFiles/videos/JaDaumenrunter_f_no_gesture.mp4","Ist der Ball in der grünen Box?","Green","Blue","F","affirmation","na","speech","yes","na","female","gesture-speech","1440","900","firefox","60.79","Mac OS","21","male","right","Wed Oct 02 2024 16:20:05 GMT+0200 (Mitteleuropäische Sommerzeit)","3","82","0","1727879585321"
