"rt","response","stim","video","question","box_colour_left","box_colour_right","correct_key","polarity","matching","modality","verbal","gesture","speaker","order","width","height","browser","vsync_rate","os","age","gender","handedness","date","blockNum","trialNum","error","vpNum"
"1166","f","SpeechGestureMatch","../RequiredFiles/videos/JaKopfNein_f.mp4","Ist der Ball in der grünen Box?","Blue","Green","F","negation","mismatch","gesture","yes","HeadShake","female","gesture-speech","1920","1080","chrome","59.76","Mac OS","26","male","right","Thu Oct 10 2024 13:49:01 GMT+0200 (Central European Summer Time)","1","1","0","1728562894128"
"1176","j","SpeechGestureMatch","../RequiredFiles/videos/NeinKopfNein_m.mp4","Ist der Ball in der grünen Box?","Green","Blue","J","negation","match","gesture","no","HeadShake","male","gesture-speech","1920","1080","chrome","59.76","Mac OS","26","male","right","Thu Oct 10 2024 13:49:08 GMT+0200 (Central European Summer Time)","1","2","0","1728562894128"
"1838","j","SpeechGestureMatch","../RequiredFiles/videos/JaKopfNein_f.mp4","Ist der Ball in der blauen Box?","Green","Blue","F","negation","mismatch","gesture","yes","HeadShake","female","gesture-speech","1920","1080","chrome","59.76","Mac OS","26","male","right","Thu Oct 10 2024 13:49:15 GMT+0200 (Central European Summer Time)","1","3","1","1728562894128"
"1545","f","SpeechGestureMatch","../RequiredFiles/videos/JaKopfJa_m.mp4","Ist der Ball in der grünen Box?","Blue","Green","J","affirmation","match","gesture","yes","HeadNod","male","gesture-speech","1920","1080","chrome","59.76","Mac OS","26","male","right","Thu Oct 10 2024 13:49:22 GMT+0200 (Central European Summer Time)","1","4","1","1728562894128"
"1797","j","SpeechGestureMatch","../RequiredFiles/videos/JaKopfNein_f.mp4","Ist der Ball in der blauen Box?","Green","Blue","F","negation","mismatch","gesture","yes","HeadShake","female","gesture-speech","1920","1080","chrome","59.76","Mac OS","26","male","right","Thu Oct 10 2024 13:49:29 GMT+0200 (Central European Summer Time)","1","5","1","1728562894128"
"1031","j","SpeechGestureMatch","../RequiredFiles/videos/NeinKopfJa_f.mp4","Ist der Ball in der grünen Box?","Blue","Green","J","affirmation","mismatch","gesture","no","HeadNod","female","gesture-speech","1920","1080","chrome","59.76","Mac OS","26","male","right","Thu Oct 10 2024 13:49:36 GMT+0200 (Central European Summer Time)","1","6","0","1728562894128"
"2406","j","SpeechGestureMatch","../RequiredFiles/videos/NeinKopfJa_f.mp4","Ist der Ball in der blauen Box?","Green","Blue","J","affirmation","mismatch","gesture","no","HeadNod","female","gesture-speech","1920","1080","chrome","59.76","Mac OS","26","male","right","Thu Oct 10 2024 13:49:44 GMT+0200 (Central European Summer Time)","1","7","0","1728562894128"
"1562","j","SpeechGestureMatch","../RequiredFiles/videos/JaKopfNein_m.mp4","Ist der Ball in der grünen Box?","Green","Blue","J","negation","mismatch","gesture","yes","HeadShake","male","gesture-speech","1920","1080","chrome","59.76","Mac OS","26","male","right","Thu Oct 10 2024 13:49:51 GMT+0200 (Central European Summer Time)","1","8","0","1728562894128"
"1211","j","SpeechGestureMatch","../RequiredFiles/videos/NeinKopfNein_m.mp4","Ist der Ball in der grünen Box?","Green","Blue","J","negation","match","gesture","no","HeadShake","male","gesture-speech","1920","1080","chrome","59.76","Mac OS","26","male","right","Thu Oct 10 2024 13:49:58 GMT+0200 (Central European Summer Time)","1","9","0","1728562894128"
"805","j","SpeechGestureMatch","../RequiredFiles/videos/JaKopfJa_f.mp4","Ist der Ball in der blauen Box?","Blue","Green","F","affirmation","match","gesture","yes","HeadNod","female","gesture-speech","1920","1080","chrome","59.76","Mac OS","26","male","right","Thu Oct 10 2024 13:50:04 GMT+0200 (Central European Summer Time)","1","10","1","1728562894128"
"1237","j","SpeechGestureMatch","../RequiredFiles/videos/NeinKopfNein_m.mp4","Ist der Ball in der blauen Box?","Green","Blue","F","negation","match","gesture","no","HeadShake","male","gesture-speech","1920","1080","chrome","59.76","Mac OS","26","male","right","Thu Oct 10 2024 13:50:11 GMT+0200 (Central European Summer Time)","1","11","1","1728562894128"
"1261","f","SpeechGestureMatch","../RequiredFiles/videos/NeinKopfJa_f.mp4","Ist der Ball in der grünen Box?","Green","Blue","F","affirmation","mismatch","gesture","no","HeadNod","female","gesture-speech","1920","1080","chrome","59.76","Mac OS","26","male","right","Thu Oct 10 2024 13:50:18 GMT+0200 (Central European Summer Time)","1","12","0","1728562894128"
"1080","f","SpeechGestureMatch","../RequiredFiles/videos/JaKopfNein_m.mp4","Ist der Ball in der blauen Box?","Green","Blue","F","negation","mismatch","gesture","yes","HeadShake","male","gesture-speech","1920","1080","chrome","59.76","Mac OS","26","male","right","Thu Oct 10 2024 13:50:24 GMT+0200 (Central European Summer Time)","1","13","0","1728562894128"
"1119","j","SpeechGestureMatch","../RequiredFiles/videos/JaKopfJa_f.mp4","Ist der Ball in der grünen Box?","Blue","Green","J","affirmation","match","gesture","yes","HeadNod","female","gesture-speech","1920","1080","chrome","59.76","Mac OS","26","male","right","Thu Oct 10 2024 13:50:31 GMT+0200 (Central European Summer Time)","1","14","0","1728562894128"
"1864","j","SpeechGestureMatch","../RequiredFiles/videos/NeinKopfNein_f.mp4","Ist der Ball in der blauen Box?","Blue","Green","J","negation","match","gesture","no","HeadShake","female","gesture-speech","1920","1080","chrome","59.76","Mac OS","26","male","right","Thu Oct 10 2024 13:50:38 GMT+0200 (Central European Summer Time)","1","15","0","1728562894128"
"1138","f","SpeechGestureMatch","../RequiredFiles/videos/NeinKopfNein_m.mp4","Ist der Ball in der blauen Box?","Green","Blue","F","negation","match","gesture","no","HeadShake","male","gesture-speech","1920","1080","chrome","59.76","Mac OS","26","male","right","Thu Oct 10 2024 13:50:45 GMT+0200 (Central European Summer Time)","1","16","0","1728562894128"
"1124","j","SpeechGestureMatch","../RequiredFiles/videos/JaKopfNein_f.mp4","Ist der Ball in der grünen Box?","Green","Blue","J","negation","mismatch","gesture","yes","HeadShake","female","gesture-speech","1920","1080","chrome","59.76","Mac OS","26","male","right","Thu Oct 10 2024 13:50:52 GMT+0200 (Central European Summer Time)","1","17","0","1728562894128"
"1099","f","SpeechGestureMatch","../RequiredFiles/videos/JaKopfJa_m.mp4","Ist der Ball in der blauen Box?","Blue","Green","F","affirmation","match","gesture","yes","HeadNod","male","gesture-speech","1920","1080","chrome","59.76","Mac OS","26","male","right","Thu Oct 10 2024 13:50:58 GMT+0200 (Central European Summer Time)","1","18","0","1728562894128"
"1003","j","SpeechGestureMatch","../RequiredFiles/videos/JaKopfJa_f.mp4","Ist der Ball in der grünen Box?","Green","Blue","F","affirmation","match","gesture","yes","HeadNod","female","gesture-speech","1920","1080","chrome","59.76","Mac OS","26","male","right","Thu Oct 10 2024 13:51:05 GMT+0200 (Central European Summer Time)","1","19","1","1728562894128"
"10107","f","SpeechGestureMatch","../RequiredFiles/videos/NeinKopfNein_m.mp4","Ist der Ball in der grünen Box?","Blue","Green","F","negation","match","gesture","no","HeadShake","male","gesture-speech","1920","1080","chrome","59.76","Mac OS","26","male","right","Thu Oct 10 2024 13:51:20 GMT+0200 (Central European Summer Time)","1","20","0","1728562894128"
"964","j","SpeechGestureMatch","../RequiredFiles/videos/JaKopfJa_f.mp4","Ist der Ball in der blauen Box?","Green","Blue","J","affirmation","match","gesture","yes","HeadNod","female","gesture-speech","1920","1080","chrome","59.76","Mac OS","26","male","right","Thu Oct 10 2024 13:51:27 GMT+0200 (Central European Summer Time)","1","21","0","1728562894128"
"1775","f","SpeechGestureMatch","../RequiredFiles/videos/JaKopfNein_f.mp4","Ist der Ball in der blauen Box?","Blue","Green","J","negation","mismatch","gesture","yes","HeadShake","female","gesture-speech","1920","1080","chrome","59.76","Mac OS","26","male","right","Thu Oct 10 2024 13:51:34 GMT+0200 (Central European Summer Time)","1","22","1","1728562894128"
"769","f","SpeechGestureMatch","../RequiredFiles/videos/NeinKopfJa_m.mp4","Ist der Ball in der blauen Box?","Blue","Green","F","affirmation","mismatch","gesture","no","HeadNod","male","gesture-speech","1920","1080","chrome","59.76","Mac OS","26","male","right","Thu Oct 10 2024 13:51:40 GMT+0200 (Central European Summer Time)","1","23","0","1728562894128"
"1293","f","SpeechGestureMatch","../RequiredFiles/videos/NeinKopfJa_f.mp4","Ist der Ball in der blauen Box?","Blue","Green","F","affirmation","mismatch","gesture","no","HeadNod","female","gesture-speech","1920","1080","chrome","59.76","Mac OS","26","male","right","Thu Oct 10 2024 13:51:47 GMT+0200 (Central European Summer Time)","1","24","0","1728562894128"
"751","f","SpeechGestureMatch","../RequiredFiles/videos/NeinKopfJa_f.mp4","Ist der Ball in der blauen Box?","Blue","Green","F","affirmation","mismatch","gesture","no","HeadNod","female","gesture-speech","1920","1080","chrome","59.76","Mac OS","26","male","right","Thu Oct 10 2024 13:51:54 GMT+0200 (Central European Summer Time)","1","25","0","1728562894128"
"1005","f","SpeechGestureMatch","../RequiredFiles/videos/JaKopfNein_m.mp4","Ist der Ball in der grünen Box?","Blue","Green","F","negation","mismatch","gesture","yes","HeadShake","male","gesture-speech","1920","1080","chrome","59.76","Mac OS","26","male","right","Thu Oct 10 2024 13:52:00 GMT+0200 (Central European Summer Time)","1","26","0","1728562894128"
"1349","f","SpeechGestureMatch","../RequiredFiles/videos/JaKopfJa_f.mp4","Ist der Ball in der grünen Box?","Green","Blue","F","affirmation","match","gesture","yes","HeadNod","female","gesture-speech","1920","1080","chrome","59.76","Mac OS","26","male","right","Thu Oct 10 2024 13:52:07 GMT+0200 (Central European Summer Time)","1","27","0","1728562894128"
"1443","f","SpeechGestureMatch","../RequiredFiles/videos/JaKopfJa_f.mp4","Ist der Ball in der blauen Box?","Green","Blue","J","affirmation","match","gesture","yes","HeadNod","female","gesture-speech","1920","1080","chrome","59.76","Mac OS","26","male","right","Thu Oct 10 2024 13:52:14 GMT+0200 (Central European Summer Time)","1","28","1","1728562894128"
"1150","j","SpeechGestureMatch","../RequiredFiles/videos/NeinKopfJa_m.mp4","Ist der Ball in der grünen Box?","Green","Blue","F","affirmation","mismatch","gesture","no","HeadNod","male","gesture-speech","1920","1080","chrome","59.76","Mac OS","26","male","right","Thu Oct 10 2024 13:52:21 GMT+0200 (Central European Summer Time)","1","29","1","1728562894128"
"869","j","SpeechGestureMatch","../RequiredFiles/videos/JaKopfJa_m.mp4","Ist der Ball in der grünen Box?","Green","Blue","F","affirmation","match","gesture","yes","HeadNod","male","gesture-speech","1920","1080","chrome","59.76","Mac OS","26","male","right","Thu Oct 10 2024 13:52:27 GMT+0200 (Central European Summer Time)","1","30","1","1728562894128"
"1440","j","SpeechGestureMatch","../RequiredFiles/videos/NeinKopfNein_f.mp4","Ist der Ball in der grünen Box?","Blue","Green","F","negation","match","gesture","no","HeadShake","female","gesture-speech","1920","1080","chrome","59.76","Mac OS","26","male","right","Thu Oct 10 2024 13:52:34 GMT+0200 (Central European Summer Time)","1","31","1","1728562894128"
"1312","j","SpeechGestureMatch","../RequiredFiles/videos/NeinKopfNein_f.mp4","Ist der Ball in der grünen Box?","Green","Blue","J","negation","match","gesture","no","HeadShake","female","gesture-speech","1920","1080","chrome","59.76","Mac OS","26","male","right","Thu Oct 10 2024 13:52:41 GMT+0200 (Central European Summer Time)","1","32","0","1728562894128"
"885","j","SpeechGestureMatch","../RequiredFiles/videos/JaKopfNein_f.mp4","Ist der Ball in der grünen Box?","Green","Blue","J","negation","mismatch","gesture","yes","HeadShake","female","gesture-speech","1920","1080","chrome","59.76","Mac OS","26","male","right","Thu Oct 10 2024 13:52:47 GMT+0200 (Central European Summer Time)","1","33","0","1728562894128"
"1605","f","SpeechGestureMatch","../RequiredFiles/videos/JaKopfNein_f.mp4","Ist der Ball in der grünen Box?","Blue","Green","F","negation","mismatch","gesture","yes","HeadShake","female","gesture-speech","1920","1080","chrome","59.76","Mac OS","26","male","right","Thu Oct 10 2024 13:52:54 GMT+0200 (Central European Summer Time)","1","34","0","1728562894128"
"1666","f","SpeechGestureMatch","../RequiredFiles/videos/JaKopfJa_m.mp4","Ist der Ball in der grünen Box?","Green","Blue","F","affirmation","match","gesture","yes","HeadNod","male","gesture-speech","1920","1080","chrome","59.76","Mac OS","26","male","right","Thu Oct 10 2024 13:53:01 GMT+0200 (Central European Summer Time)","1","35","0","1728562894128"
"839","j","SpeechGestureMatch","../RequiredFiles/videos/NeinKopfNein_f.mp4","Ist der Ball in der blauen Box?","Blue","Green","J","negation","match","gesture","no","HeadShake","female","gesture-speech","1920","1080","chrome","59.76","Mac OS","26","male","right","Thu Oct 10 2024 13:53:08 GMT+0200 (Central European Summer Time)","1","36","0","1728562894128"
"838","f","SpeechGestureMatch","../RequiredFiles/videos/NeinKopfNein_m.mp4","Ist der Ball in der blauen Box?","Blue","Green","J","negation","match","gesture","no","HeadShake","male","gesture-speech","1920","1080","chrome","59.76","Mac OS","26","male","right","Thu Oct 10 2024 13:53:14 GMT+0200 (Central European Summer Time)","1","37","1","1728562894128"
"935","j","SpeechGestureMatch","../RequiredFiles/videos/JaKopfJa_m.mp4","Ist der Ball in der blauen Box?","Green","Blue","J","affirmation","match","gesture","yes","HeadNod","male","gesture-speech","1920","1080","chrome","59.76","Mac OS","26","male","right","Thu Oct 10 2024 13:53:21 GMT+0200 (Central European Summer Time)","1","38","0","1728562894128"
"629","f","SpeechGestureMatch","../RequiredFiles/videos/NeinKopfJa_m.mp4","Ist der Ball in der grünen Box?","Blue","Green","J","affirmation","mismatch","gesture","no","HeadNod","male","gesture-speech","1920","1080","chrome","59.76","Mac OS","26","male","right","Thu Oct 10 2024 13:53:27 GMT+0200 (Central European Summer Time)","1","39","1","1728562894128"
"1280","f","SpeechGestureMatch","../RequiredFiles/videos/NeinKopfJa_m.mp4","Ist der Ball in der blauen Box?","Green","Blue","J","affirmation","mismatch","gesture","no","HeadNod","male","gesture-speech","1920","1080","chrome","59.76","Mac OS","26","male","right","Thu Oct 10 2024 13:53:34 GMT+0200 (Central European Summer Time)","1","40","1","1728562894128"
"780","j","SpeechGestureMatch","../RequiredFiles/videos/NeinKopfJa_m.mp4","Ist der Ball in der grünen Box?","Blue","Green","J","affirmation","mismatch","gesture","no","HeadNod","male","gesture-speech","1920","1080","chrome","59.76","Mac OS","26","male","right","Thu Oct 10 2024 13:53:40 GMT+0200 (Central European Summer Time)","1","41","0","1728562894128"
"2157","f","SpeechGestureMatch","../RequiredFiles/videos/JaKopfNein_m.mp4","Ist der Ball in der blauen Box?","Green","Blue","F","negation","mismatch","gesture","yes","HeadShake","male","gesture-speech","1920","1080","chrome","59.76","Mac OS","26","male","right","Thu Oct 10 2024 13:53:48 GMT+0200 (Central European Summer Time)","1","42","0","1728562894128"
"1444","j","SpeechGestureMatch","../RequiredFiles/videos/NeinKopfNein_m.mp4","Ist der Ball in der blauen Box?","Blue","Green","J","negation","match","gesture","no","HeadShake","male","gesture-speech","1920","1080","chrome","59.76","Mac OS","26","male","right","Thu Oct 10 2024 13:53:55 GMT+0200 (Central European Summer Time)","1","43","0","1728562894128"
"1320","j","SpeechGestureMatch","../RequiredFiles/videos/JaKopfJa_m.mp4","Ist der Ball in der blauen Box?","Green","Blue","J","affirmation","match","gesture","yes","HeadNod","male","gesture-speech","1920","1080","chrome","59.76","Mac OS","26","male","right","Thu Oct 10 2024 13:54:01 GMT+0200 (Central European Summer Time)","1","44","0","1728562894128"
"783","j","SpeechGestureMatch","../RequiredFiles/videos/JaKopfJa_f.mp4","Ist der Ball in der grünen Box?","Blue","Green","J","affirmation","match","gesture","yes","HeadNod","female","gesture-speech","1920","1080","chrome","59.76","Mac OS","26","male","right","Thu Oct 10 2024 13:54:08 GMT+0200 (Central European Summer Time)","1","45","0","1728562894128"
"917","j","SpeechGestureMatch","../RequiredFiles/videos/NeinKopfJa_f.mp4","Ist der Ball in der blauen Box?","Green","Blue","J","affirmation","mismatch","gesture","no","HeadNod","female","gesture-speech","1920","1080","chrome","59.76","Mac OS","26","male","right","Thu Oct 10 2024 13:54:14 GMT+0200 (Central European Summer Time)","1","46","0","1728562894128"
"1299","f","SpeechGestureMatch","../RequiredFiles/videos/JaKopfNein_m.mp4","Ist der Ball in der grünen Box?","Green","Blue","J","negation","mismatch","gesture","yes","HeadShake","male","gesture-speech","1920","1080","chrome","59.76","Mac OS","26","male","right","Thu Oct 10 2024 13:54:21 GMT+0200 (Central European Summer Time)","1","47","1","1728562894128"
"2335","j","SpeechGestureMatch","../RequiredFiles/videos/JaKopfNein_m.mp4","Ist der Ball in der blauen Box?","Blue","Green","J","negation","mismatch","gesture","yes","HeadShake","male","gesture-speech","1920","1080","chrome","59.76","Mac OS","26","male","right","Thu Oct 10 2024 13:54:29 GMT+0200 (Central European Summer Time)","1","48","0","1728562894128"
"790","f","SpeechGestureMatch","../RequiredFiles/videos/JaKopfJa_f.mp4","Ist der Ball in der blauen Box?","Blue","Green","F","affirmation","match","gesture","yes","HeadNod","female","gesture-speech","1920","1080","chrome","59.76","Mac OS","26","male","right","Thu Oct 10 2024 13:54:35 GMT+0200 (Central European Summer Time)","1","49","0","1728562894128"
"974","f","SpeechGestureMatch","../RequiredFiles/videos/NeinKopfNein_f.mp4","Ist der Ball in der blauen Box?","Green","Blue","F","negation","match","gesture","no","HeadShake","female","gesture-speech","1920","1080","chrome","59.76","Mac OS","26","male","right","Thu Oct 10 2024 13:54:42 GMT+0200 (Central European Summer Time)","1","50","0","1728562894128"
"928","f","SpeechGestureMatch","../RequiredFiles/videos/JaKopfJa_m.mp4","Ist der Ball in der grünen Box?","Blue","Green","J","affirmation","match","gesture","yes","HeadNod","male","gesture-speech","1920","1080","chrome","59.76","Mac OS","26","male","right","Thu Oct 10 2024 13:54:48 GMT+0200 (Central European Summer Time)","1","51","1","1728562894128"
"1159","f","SpeechGestureMatch","../RequiredFiles/videos/NeinKopfNein_f.mp4","Ist der Ball in der grünen Box?","Blue","Green","F","negation","match","gesture","no","HeadShake","female","gesture-speech","1920","1080","chrome","59.76","Mac OS","26","male","right","Thu Oct 10 2024 13:54:55 GMT+0200 (Central European Summer Time)","1","52","0","1728562894128"
"1341","j","SpeechGestureMatch","../RequiredFiles/videos/NeinKopfJa_m.mp4","Ist der Ball in der blauen Box?","Green","Blue","J","affirmation","mismatch","gesture","no","HeadNod","male","gesture-speech","1920","1080","chrome","59.76","Mac OS","26","male","right","Thu Oct 10 2024 13:55:02 GMT+0200 (Central European Summer Time)","1","53","0","1728562894128"
"811","f","SpeechGestureMatch","../RequiredFiles/videos/JaKopfJa_m.mp4","Ist der Ball in der blauen Box?","Blue","Green","F","affirmation","match","gesture","yes","HeadNod","male","gesture-speech","1920","1080","chrome","59.76","Mac OS","26","male","right","Thu Oct 10 2024 13:55:08 GMT+0200 (Central European Summer Time)","1","54","0","1728562894128"
"1137","j","SpeechGestureMatch","../RequiredFiles/videos/JaKopfNein_m.mp4","Ist der Ball in der blauen Box?","Blue","Green","J","negation","mismatch","gesture","yes","HeadShake","male","gesture-speech","1920","1080","chrome","59.76","Mac OS","26","male","right","Thu Oct 10 2024 13:55:15 GMT+0200 (Central European Summer Time)","1","55","0","1728562894128"
"740","f","SpeechGestureMatch","../RequiredFiles/videos/NeinKopfJa_f.mp4","Ist der Ball in der grünen Box?","Green","Blue","F","affirmation","mismatch","gesture","no","HeadNod","female","gesture-speech","1920","1080","chrome","59.76","Mac OS","26","male","right","Thu Oct 10 2024 13:55:21 GMT+0200 (Central European Summer Time)","1","56","0","1728562894128"
"1673","f","SpeechGestureMatch","../RequiredFiles/videos/NeinKopfNein_m.mp4","Ist der Ball in der grünen Box?","Blue","Green","F","negation","match","gesture","no","HeadShake","male","gesture-speech","1920","1080","chrome","59.76","Mac OS","26","male","right","Thu Oct 10 2024 13:55:28 GMT+0200 (Central European Summer Time)","1","57","0","1728562894128"
"1487","j","SpeechGestureMatch","../RequiredFiles/videos/JaKopfNein_f.mp4","Ist der Ball in der blauen Box?","Blue","Green","J","negation","mismatch","gesture","yes","HeadShake","female","gesture-speech","1920","1080","chrome","59.76","Mac OS","26","male","right","Thu Oct 10 2024 13:55:35 GMT+0200 (Central European Summer Time)","1","58","0","1728562894128"
"1513","j","SpeechGestureMatch","../RequiredFiles/videos/NeinKopfNein_f.mp4","Ist der Ball in der grünen Box?","Green","Blue","J","negation","match","gesture","no","HeadShake","female","gesture-speech","1920","1080","chrome","59.76","Mac OS","26","male","right","Thu Oct 10 2024 13:55:42 GMT+0200 (Central European Summer Time)","1","59","0","1728562894128"
"1441","f","SpeechGestureMatch","../RequiredFiles/videos/NeinKopfJa_m.mp4","Ist der Ball in der grünen Box?","Green","Blue","F","affirmation","mismatch","gesture","no","HeadNod","male","gesture-speech","1920","1080","chrome","59.76","Mac OS","26","male","right","Thu Oct 10 2024 13:55:49 GMT+0200 (Central European Summer Time)","1","60","0","1728562894128"
"867","j","SpeechGestureMatch","../RequiredFiles/videos/NeinKopfJa_m.mp4","Ist der Ball in der blauen Box?","Blue","Green","F","affirmation","mismatch","gesture","no","HeadNod","male","gesture-speech","1920","1080","chrome","59.76","Mac OS","26","male","right","Thu Oct 10 2024 13:55:55 GMT+0200 (Central European Summer Time)","1","61","1","1728562894128"
"1265","j","SpeechGestureMatch","../RequiredFiles/videos/JaKopfNein_m.mp4","Ist der Ball in der grünen Box?","Blue","Green","F","negation","mismatch","gesture","yes","HeadShake","male","gesture-speech","1920","1080","chrome","59.76","Mac OS","26","male","right","Thu Oct 10 2024 13:56:02 GMT+0200 (Central European Summer Time)","1","62","1","1728562894128"
"4943","j","SpeechGestureMatch","../RequiredFiles/videos/NeinKopfJa_f.mp4","Ist der Ball in der grünen Box?","Blue","Green","J","affirmation","mismatch","gesture","no","HeadNod","female","gesture-speech","1920","1080","chrome","59.76","Mac OS","26","male","right","Thu Oct 10 2024 13:56:13 GMT+0200 (Central European Summer Time)","1","63","0","1728562894128"
"983","j","SpeechGestureMatch","../RequiredFiles/videos/NeinKopfNein_f.mp4","Ist der Ball in der blauen Box?","Green","Blue","F","negation","match","gesture","no","HeadShake","female","gesture-speech","1920","1080","chrome","59.76","Mac OS","26","male","right","Thu Oct 10 2024 13:56:19 GMT+0200 (Central European Summer Time)","1","64","1","1728562894128"
"1167","j","SpeechGestureMatch","../RequiredFiles/videos/JaKopfNein_m.mp4","Ist der Ball in der blauen Box?","Green","Blue","F","negation","mismatch","gesture","yes","HeadShake","male","gesture-speech","1920","1080","chrome","59.76","Mac OS","26","male","right","Thu Oct 10 2024 13:56:35 GMT+0200 (Central European Summer Time)","2","1","1","1728562894128"
"854","f","SpeechGestureMatch","../RequiredFiles/videos/NeinKopfNein_f.mp4","Ist der Ball in der blauen Box?","Blue","Green","J","negation","match","gesture","no","HeadShake","female","gesture-speech","1920","1080","chrome","59.76","Mac OS","26","male","right","Thu Oct 10 2024 13:56:42 GMT+0200 (Central European Summer Time)","2","2","1","1728562894128"
"915","j","SpeechGestureMatch","../RequiredFiles/videos/JaKopfJa_m.mp4","Ist der Ball in der blauen Box?","Green","Blue","J","affirmation","match","gesture","yes","HeadNod","male","gesture-speech","1920","1080","chrome","59.76","Mac OS","26","male","right","Thu Oct 10 2024 13:56:48 GMT+0200 (Central European Summer Time)","2","3","0","1728562894128"
"969","f","SpeechGestureMatch","../RequiredFiles/videos/NeinKopfJa_f.mp4","Ist der Ball in der grünen Box?","Blue","Green","J","affirmation","mismatch","gesture","no","HeadNod","female","gesture-speech","1920","1080","chrome","59.76","Mac OS","26","male","right","Thu Oct 10 2024 13:56:55 GMT+0200 (Central European Summer Time)","2","4","1","1728562894128"
"929","f","SpeechGestureMatch","../RequiredFiles/videos/NeinKopfNein_f.mp4","Ist der Ball in der blauen Box?","Green","Blue","F","negation","match","gesture","no","HeadShake","female","gesture-speech","1920","1080","chrome","59.76","Mac OS","26","male","right","Thu Oct 10 2024 13:57:01 GMT+0200 (Central European Summer Time)","2","5","0","1728562894128"
"1287","f","SpeechGestureMatch","../RequiredFiles/videos/JaKopfNein_m.mp4","Ist der Ball in der grünen Box?","Blue","Green","F","negation","mismatch","gesture","yes","HeadShake","male","gesture-speech","1920","1080","chrome","59.76","Mac OS","26","male","right","Thu Oct 10 2024 13:57:08 GMT+0200 (Central European Summer Time)","2","6","0","1728562894128"
"952","f","SpeechGestureMatch","../RequiredFiles/videos/JaKopfJa_f.mp4","Ist der Ball in der grünen Box?","Green","Blue","F","affirmation","match","gesture","yes","HeadNod","female","gesture-speech","1920","1080","chrome","59.76","Mac OS","26","male","right","Thu Oct 10 2024 13:57:15 GMT+0200 (Central European Summer Time)","2","7","0","1728562894128"
"1199","f","SpeechGestureMatch","../RequiredFiles/videos/NeinKopfJa_f.mp4","Ist der Ball in der grünen Box?","Green","Blue","F","affirmation","mismatch","gesture","no","HeadNod","female","gesture-speech","1920","1080","chrome","59.76","Mac OS","26","male","right","Thu Oct 10 2024 13:57:21 GMT+0200 (Central European Summer Time)","2","8","0","1728562894128"
"671","j","SpeechGestureMatch","../RequiredFiles/videos/NeinKopfJa_m.mp4","Ist der Ball in der blauen Box?","Green","Blue","J","affirmation","mismatch","gesture","no","HeadNod","male","gesture-speech","1920","1080","chrome","59.76","Mac OS","26","male","right","Thu Oct 10 2024 13:57:27 GMT+0200 (Central European Summer Time)","2","9","0","1728562894128"
"1133","f","SpeechGestureMatch","../RequiredFiles/videos/JaKopfNein_m.mp4","Ist der Ball in der blauen Box?","Green","Blue","F","negation","mismatch","gesture","yes","HeadShake","male","gesture-speech","1920","1080","chrome","59.76","Mac OS","26","male","right","Thu Oct 10 2024 13:57:34 GMT+0200 (Central European Summer Time)","2","10","0","1728562894128"
"823","j","SpeechGestureMatch","../RequiredFiles/videos/NeinKopfNein_m.mp4","Ist der Ball in der grünen Box?","Blue","Green","F","negation","match","gesture","no","HeadShake","male","gesture-speech","1920","1080","chrome","59.76","Mac OS","26","male","right","Thu Oct 10 2024 13:57:40 GMT+0200 (Central European Summer Time)","2","11","1","1728562894128"
"1734","f","SpeechGestureMatch","../RequiredFiles/videos/JaKopfJa_m.mp4","Ist der Ball in der blauen Box?","Blue","Green","F","affirmation","match","gesture","yes","HeadNod","male","gesture-speech","1920","1080","chrome","59.76","Mac OS","26","male","right","Thu Oct 10 2024 13:57:48 GMT+0200 (Central European Summer Time)","2","12","0","1728562894128"
"1014","j","SpeechGestureMatch","../RequiredFiles/videos/NeinKopfJa_f.mp4","Ist der Ball in der blauen Box?","Blue","Green","F","affirmation","mismatch","gesture","no","HeadNod","female","gesture-speech","1920","1080","chrome","59.76","Mac OS","26","male","right","Thu Oct 10 2024 13:57:54 GMT+0200 (Central European Summer Time)","2","13","1","1728562894128"
"1489","f","SpeechGestureMatch","../RequiredFiles/videos/NeinKopfNein_f.mp4","Ist der Ball in der grünen Box?","Blue","Green","F","negation","match","gesture","no","HeadShake","female","gesture-speech","1920","1080","chrome","59.76","Mac OS","26","male","right","Thu Oct 10 2024 13:58:01 GMT+0200 (Central European Summer Time)","2","14","0","1728562894128"
"1559","j","SpeechGestureMatch","../RequiredFiles/videos/JaKopfJa_f.mp4","Ist der Ball in der grünen Box?","Blue","Green","J","affirmation","match","gesture","yes","HeadNod","female","gesture-speech","1920","1080","chrome","59.76","Mac OS","26","male","right","Thu Oct 10 2024 13:58:08 GMT+0200 (Central European Summer Time)","2","15","0","1728562894128"
"1043","j","SpeechGestureMatch","../RequiredFiles/videos/JaKopfNein_f.mp4","Ist der Ball in der blauen Box?","Green","Blue","F","negation","mismatch","gesture","yes","HeadShake","female","gesture-speech","1920","1080","chrome","59.76","Mac OS","26","male","right","Thu Oct 10 2024 13:58:15 GMT+0200 (Central European Summer Time)","2","16","1","1728562894128"
"901","j","SpeechGestureMatch","../RequiredFiles/videos/JaKopfNein_f.mp4","Ist der Ball in der grünen Box?","Green","Blue","J","negation","mismatch","gesture","yes","HeadShake","female","gesture-speech","1920","1080","chrome","59.76","Mac OS","26","male","right","Thu Oct 10 2024 13:58:21 GMT+0200 (Central European Summer Time)","2","17","0","1728562894128"
"1305","f","SpeechGestureMatch","../RequiredFiles/videos/NeinKopfNein_m.mp4","Ist der Ball in der grünen Box?","Blue","Green","F","negation","match","gesture","no","HeadShake","male","gesture-speech","1920","1080","chrome","59.76","Mac OS","26","male","right","Thu Oct 10 2024 13:58:28 GMT+0200 (Central European Summer Time)","2","18","0","1728562894128"
"991","j","SpeechGestureMatch","../RequiredFiles/videos/JaKopfJa_m.mp4","Ist der Ball in der grünen Box?","Blue","Green","J","affirmation","match","gesture","yes","HeadNod","male","gesture-speech","1920","1080","chrome","59.76","Mac OS","26","male","right","Thu Oct 10 2024 13:58:35 GMT+0200 (Central European Summer Time)","2","19","0","1728562894128"
"1349","f","SpeechGestureMatch","../RequiredFiles/videos/NeinKopfJa_m.mp4","Ist der Ball in der blauen Box?","Blue","Green","F","affirmation","mismatch","gesture","no","HeadNod","male","gesture-speech","1920","1080","chrome","59.76","Mac OS","26","male","right","Thu Oct 10 2024 13:58:42 GMT+0200 (Central European Summer Time)","2","20","0","1728562894128"
"1217","f","SpeechGestureMatch","../RequiredFiles/videos/JaKopfJa_f.mp4","Ist der Ball in der grünen Box?","Green","Blue","F","affirmation","match","gesture","yes","HeadNod","female","gesture-speech","1920","1080","chrome","59.76","Mac OS","26","male","right","Thu Oct 10 2024 13:58:48 GMT+0200 (Central European Summer Time)","2","21","0","1728562894128"
"1092","j","SpeechGestureMatch","../RequiredFiles/videos/NeinKopfJa_f.mp4","Ist der Ball in der grünen Box?","Blue","Green","J","affirmation","mismatch","gesture","no","HeadNod","female","gesture-speech","1920","1080","chrome","59.76","Mac OS","26","male","right","Thu Oct 10 2024 13:58:55 GMT+0200 (Central European Summer Time)","2","22","0","1728562894128"
"1051","f","SpeechGestureMatch","../RequiredFiles/videos/NeinKopfNein_m.mp4","Ist der Ball in der blauen Box?","Green","Blue","F","negation","match","gesture","no","HeadShake","male","gesture-speech","1920","1080","chrome","59.76","Mac OS","26","male","right","Thu Oct 10 2024 13:59:01 GMT+0200 (Central European Summer Time)","2","23","0","1728562894128"
"873","j","SpeechGestureMatch","../RequiredFiles/videos/NeinKopfJa_m.mp4","Ist der Ball in der blauen Box?","Blue","Green","F","affirmation","mismatch","gesture","no","HeadNod","male","gesture-speech","1920","1080","chrome","59.76","Mac OS","26","male","right","Thu Oct 10 2024 13:59:08 GMT+0200 (Central European Summer Time)","2","24","1","1728562894128"
"1036","f","SpeechGestureMatch","../RequiredFiles/videos/JaKopfJa_m.mp4","Ist der Ball in der blauen Box?","Blue","Green","F","affirmation","match","gesture","yes","HeadNod","male","gesture-speech","1920","1080","chrome","59.76","Mac OS","26","male","right","Thu Oct 10 2024 13:59:14 GMT+0200 (Central European Summer Time)","2","25","0","1728562894128"
"1007","f","SpeechGestureMatch","../RequiredFiles/videos/NeinKopfNein_m.mp4","Ist der Ball in der blauen Box?","Green","Blue","F","negation","match","gesture","no","HeadShake","male","gesture-speech","1920","1080","chrome","59.76","Mac OS","26","male","right","Thu Oct 10 2024 13:59:21 GMT+0200 (Central European Summer Time)","2","26","0","1728562894128"
"1075","f","SpeechGestureMatch","../RequiredFiles/videos/JaKopfNein_m.mp4","Ist der Ball in der blauen Box?","Blue","Green","J","negation","mismatch","gesture","yes","HeadShake","male","gesture-speech","1920","1080","chrome","59.76","Mac OS","26","male","right","Thu Oct 10 2024 13:59:28 GMT+0200 (Central European Summer Time)","2","27","1","1728562894128"
"747","j","SpeechGestureMatch","../RequiredFiles/videos/JaKopfJa_m.mp4","Ist der Ball in der blauen Box?","Green","Blue","J","affirmation","match","gesture","yes","HeadNod","male","gesture-speech","1920","1080","chrome","59.76","Mac OS","26","male","right","Thu Oct 10 2024 13:59:34 GMT+0200 (Central European Summer Time)","2","28","0","1728562894128"
"941","j","SpeechGestureMatch","../RequiredFiles/videos/NeinKopfJa_f.mp4","Ist der Ball in der blauen Box?","Green","Blue","J","affirmation","mismatch","gesture","no","HeadNod","female","gesture-speech","1920","1080","chrome","59.76","Mac OS","26","male","right","Thu Oct 10 2024 13:59:40 GMT+0200 (Central European Summer Time)","2","29","0","1728562894128"
"1152","f","SpeechGestureMatch","../RequiredFiles/videos/JaKopfJa_f.mp4","Ist der Ball in der blauen Box?","Blue","Green","F","affirmation","match","gesture","yes","HeadNod","female","gesture-speech","1920","1080","chrome","59.76","Mac OS","26","male","right","Thu Oct 10 2024 13:59:47 GMT+0200 (Central European Summer Time)","2","30","0","1728562894128"
"1450","j","SpeechGestureMatch","../RequiredFiles/videos/NeinKopfJa_m.mp4","Ist der Ball in der grünen Box?","Blue","Green","J","affirmation","mismatch","gesture","no","HeadNod","male","gesture-speech","1920","1080","chrome","59.76","Mac OS","26","male","right","Thu Oct 10 2024 13:59:54 GMT+0200 (Central European Summer Time)","2","31","0","1728562894128"
"812","f","SpeechGestureMatch","../RequiredFiles/videos/JaKopfJa_m.mp4","Ist der Ball in der grünen Box?","Green","Blue","F","affirmation","match","gesture","yes","HeadNod","male","gesture-speech","1920","1080","chrome","59.76","Mac OS","26","male","right","Thu Oct 10 2024 14:00:00 GMT+0200 (Central European Summer Time)","2","32","0","1728562894128"
"1497","f","SpeechGestureMatch","../RequiredFiles/videos/NeinKopfJa_m.mp4","Ist der Ball in der grünen Box?","Green","Blue","F","affirmation","mismatch","gesture","no","HeadNod","male","gesture-speech","1920","1080","chrome","59.76","Mac OS","26","male","right","Thu Oct 10 2024 14:00:07 GMT+0200 (Central European Summer Time)","2","33","0","1728562894128"
"5367","f","SpeechGestureMatch","../RequiredFiles/videos/JaKopfNein_f.mp4","Ist der Ball in der blauen Box?","Blue","Green","J","negation","mismatch","gesture","yes","HeadShake","female","gesture-speech","1920","1080","chrome","59.76","Mac OS","26","male","right","Thu Oct 10 2024 14:00:18 GMT+0200 (Central European Summer Time)","2","34","1","1728562894128"
"1371","f","SpeechGestureMatch","../RequiredFiles/videos/JaKopfNein_m.mp4","Ist der Ball in der grünen Box?","Blue","Green","F","negation","mismatch","gesture","yes","HeadShake","male","gesture-speech","1920","1080","chrome","59.76","Mac OS","26","male","right","Thu Oct 10 2024 14:00:25 GMT+0200 (Central European Summer Time)","2","35","0","1728562894128"
"1293","j","SpeechGestureMatch","../RequiredFiles/videos/NeinKopfNein_f.mp4","Ist der Ball in der grünen Box?","Green","Blue","J","negation","match","gesture","no","HeadShake","female","gesture-speech","1920","1080","chrome","59.76","Mac OS","26","male","right","Thu Oct 10 2024 14:00:32 GMT+0200 (Central European Summer Time)","2","36","0","1728562894128"
"1226","f","SpeechGestureMatch","../RequiredFiles/videos/JaKopfNein_m.mp4","Ist der Ball in der grünen Box?","Green","Blue","J","negation","mismatch","gesture","yes","HeadShake","male","gesture-speech","1920","1080","chrome","59.76","Mac OS","26","male","right","Thu Oct 10 2024 14:00:39 GMT+0200 (Central European Summer Time)","2","37","1","1728562894128"
"1035","j","SpeechGestureMatch","../RequiredFiles/videos/NeinKopfNein_f.mp4","Ist der Ball in der grünen Box?","Green","Blue","J","negation","match","gesture","no","HeadShake","female","gesture-speech","1920","1080","chrome","59.76","Mac OS","26","male","right","Thu Oct 10 2024 14:00:45 GMT+0200 (Central European Summer Time)","2","38","0","1728562894128"
"2101","j","SpeechGestureMatch","../RequiredFiles/videos/NeinKopfNein_m.mp4","Ist der Ball in der blauen Box?","Blue","Green","J","negation","match","gesture","no","HeadShake","male","gesture-speech","1920","1080","chrome","59.76","Mac OS","26","male","right","Thu Oct 10 2024 14:00:53 GMT+0200 (Central European Summer Time)","2","39","0","1728562894128"
"1022","f","SpeechGestureMatch","../RequiredFiles/videos/JaKopfJa_m.mp4","Ist der Ball in der grünen Box?","Green","Blue","F","affirmation","match","gesture","yes","HeadNod","male","gesture-speech","1920","1080","chrome","59.76","Mac OS","26","male","right","Thu Oct 10 2024 14:00:59 GMT+0200 (Central European Summer Time)","2","40","0","1728562894128"
"2798","j","SpeechGestureMatch","../RequiredFiles/videos/NeinKopfJa_m.mp4","Ist der Ball in der grünen Box?","Green","Blue","F","affirmation","mismatch","gesture","no","HeadNod","male","gesture-speech","1920","1080","chrome","59.76","Mac OS","26","male","right","Thu Oct 10 2024 14:01:08 GMT+0200 (Central European Summer Time)","2","41","1","1728562894128"
"747","f","SpeechGestureMatch","../RequiredFiles/videos/JaKopfNein_f.mp4","Ist der Ball in der grünen Box?","Blue","Green","F","negation","mismatch","gesture","yes","HeadShake","female","gesture-speech","1920","1080","chrome","59.76","Mac OS","26","male","right","Thu Oct 10 2024 14:01:14 GMT+0200 (Central European Summer Time)","2","42","0","1728562894128"
"931","f","SpeechGestureMatch","../RequiredFiles/videos/JaKopfNein_f.mp4","Ist der Ball in der blauen Box?","Green","Blue","F","negation","mismatch","gesture","yes","HeadShake","female","gesture-speech","1920","1080","chrome","59.76","Mac OS","26","male","right","Thu Oct 10 2024 14:01:20 GMT+0200 (Central European Summer Time)","2","43","0","1728562894128"
"794","j","SpeechGestureMatch","../RequiredFiles/videos/NeinKopfNein_m.mp4","Ist der Ball in der grünen Box?","Green","Blue","J","negation","match","gesture","no","HeadShake","male","gesture-speech","1920","1080","chrome","59.76","Mac OS","26","male","right","Thu Oct 10 2024 14:01:27 GMT+0200 (Central European Summer Time)","2","44","0","1728562894128"
"1594","j","SpeechGestureMatch","../RequiredFiles/videos/JaKopfJa_f.mp4","Ist der Ball in der blauen Box?","Green","Blue","J","affirmation","match","gesture","yes","HeadNod","female","gesture-speech","1920","1080","chrome","59.76","Mac OS","26","male","right","Thu Oct 10 2024 14:01:34 GMT+0200 (Central European Summer Time)","2","45","0","1728562894128"
"984","j","SpeechGestureMatch","../RequiredFiles/videos/NeinKopfJa_m.mp4","Ist der Ball in der blauen Box?","Green","Blue","J","affirmation","mismatch","gesture","no","HeadNod","male","gesture-speech","1920","1080","chrome","59.76","Mac OS","26","male","right","Thu Oct 10 2024 14:01:40 GMT+0200 (Central European Summer Time)","2","46","0","1728562894128"
"904","j","SpeechGestureMatch","../RequiredFiles/videos/NeinKopfJa_m.mp4","Ist der Ball in der grünen Box?","Blue","Green","J","affirmation","mismatch","gesture","no","HeadNod","male","gesture-speech","1920","1080","chrome","59.76","Mac OS","26","male","right","Thu Oct 10 2024 14:01:47 GMT+0200 (Central European Summer Time)","2","47","0","1728562894128"
"1137","j","SpeechGestureMatch","../RequiredFiles/videos/JaKopfNein_m.mp4","Ist der Ball in der blauen Box?","Blue","Green","J","negation","mismatch","gesture","yes","HeadShake","male","gesture-speech","1920","1080","chrome","59.76","Mac OS","26","male","right","Thu Oct 10 2024 14:01:53 GMT+0200 (Central European Summer Time)","2","48","0","1728562894128"
"1023","j","SpeechGestureMatch","../RequiredFiles/videos/JaKopfJa_m.mp4","Ist der Ball in der grünen Box?","Blue","Green","J","affirmation","match","gesture","yes","HeadNod","male","gesture-speech","1920","1080","chrome","59.76","Mac OS","26","male","right","Thu Oct 10 2024 14:02:00 GMT+0200 (Central European Summer Time)","2","49","0","1728562894128"
"854","f","SpeechGestureMatch","../RequiredFiles/videos/NeinKopfJa_f.mp4","Ist der Ball in der blauen Box?","Blue","Green","F","affirmation","mismatch","gesture","no","HeadNod","female","gesture-speech","1920","1080","chrome","59.76","Mac OS","26","male","right","Thu Oct 10 2024 14:02:06 GMT+0200 (Central European Summer Time)","2","50","0","1728562894128"
"978","f","SpeechGestureMatch","../RequiredFiles/videos/JaKopfNein_f.mp4","Ist der Ball in der grünen Box?","Blue","Green","F","negation","mismatch","gesture","yes","HeadShake","female","gesture-speech","1920","1080","chrome","59.76","Mac OS","26","male","right","Thu Oct 10 2024 14:02:13 GMT+0200 (Central European Summer Time)","2","51","0","1728562894128"
"1650","j","SpeechGestureMatch","../RequiredFiles/videos/NeinKopfNein_m.mp4","Ist der Ball in der blauen Box?","Blue","Green","J","negation","match","gesture","no","HeadShake","male","gesture-speech","1920","1080","chrome","59.76","Mac OS","26","male","right","Thu Oct 10 2024 14:02:20 GMT+0200 (Central European Summer Time)","2","52","0","1728562894128"
"3346","f","SpeechGestureMatch","../RequiredFiles/videos/JaKopfNein_f.mp4","Ist der Ball in der blauen Box?","Blue","Green","J","negation","mismatch","gesture","yes","HeadShake","female","gesture-speech","1920","1080","chrome","59.76","Mac OS","26","male","right","Thu Oct 10 2024 14:02:29 GMT+0200 (Central European Summer Time)","2","53","1","1728562894128"
"747","f","SpeechGestureMatch","../RequiredFiles/videos/NeinKopfNein_f.mp4","Ist der Ball in der blauen Box?","Blue","Green","J","negation","match","gesture","no","HeadShake","female","gesture-speech","1920","1080","chrome","59.76","Mac OS","26","male","right","Thu Oct 10 2024 14:02:35 GMT+0200 (Central European Summer Time)","2","54","1","1728562894128"
"1368","j","SpeechGestureMatch","../RequiredFiles/videos/NeinKopfNein_f.mp4","Ist der Ball in der grünen Box?","Blue","Green","F","negation","match","gesture","no","HeadShake","female","gesture-speech","1920","1080","chrome","59.76","Mac OS","26","male","right","Thu Oct 10 2024 14:02:42 GMT+0200 (Central European Summer Time)","2","55","1","1728562894128"
"7201","j","SpeechGestureMatch","../RequiredFiles/videos/NeinKopfNein_f.mp4","Ist der Ball in der blauen Box?","Green","Blue","F","negation","match","gesture","no","HeadShake","female","gesture-speech","1920","1080","chrome","59.76","Mac OS","26","male","right","Thu Oct 10 2024 14:02:55 GMT+0200 (Central European Summer Time)","2","56","1","1728562894128"
"25247","j","SpeechGestureMatch","../RequiredFiles/videos/JaKopfJa_f.mp4","Ist der Ball in der grünen Box?","Blue","Green","J","affirmation","match","gesture","yes","HeadNod","female","gesture-speech","1920","1080","chrome","59.76","Mac OS","26","male","right","Thu Oct 10 2024 14:03:25 GMT+0200 (Central European Summer Time)","2","57","0","1728562894128"
"695","f","SpeechGestureMatch","../RequiredFiles/videos/JaKopfJa_f.mp4","Ist der Ball in der blauen Box?","Green","Blue","J","affirmation","match","gesture","yes","HeadNod","female","gesture-speech","1920","1080","chrome","59.76","Mac OS","26","male","right","Thu Oct 10 2024 14:03:32 GMT+0200 (Central European Summer Time)","2","58","1","1728562894128"
"1888","f","SpeechGestureMatch","../RequiredFiles/videos/JaKopfNein_f.mp4","Ist der Ball in der grünen Box?","Green","Blue","J","negation","mismatch","gesture","yes","HeadShake","female","gesture-speech","1920","1080","chrome","59.76","Mac OS","26","male","right","Thu Oct 10 2024 14:03:39 GMT+0200 (Central European Summer Time)","2","59","1","1728562894128"
"901","f","SpeechGestureMatch","../RequiredFiles/videos/NeinKopfJa_f.mp4","Ist der Ball in der blauen Box?","Green","Blue","J","affirmation","mismatch","gesture","no","HeadNod","female","gesture-speech","1920","1080","chrome","59.76","Mac OS","26","male","right","Thu Oct 10 2024 14:03:46 GMT+0200 (Central European Summer Time)","2","60","1","1728562894128"
"1699","j","SpeechGestureMatch","../RequiredFiles/videos/JaKopfJa_f.mp4","Ist der Ball in der blauen Box?","Blue","Green","F","affirmation","match","gesture","yes","HeadNod","female","gesture-speech","1920","1080","chrome","59.76","Mac OS","26","male","right","Thu Oct 10 2024 14:03:53 GMT+0200 (Central European Summer Time)","2","61","1","1728562894128"
"948","f","SpeechGestureMatch","../RequiredFiles/videos/NeinKopfJa_f.mp4","Ist der Ball in der grünen Box?","Green","Blue","F","affirmation","mismatch","gesture","no","HeadNod","female","gesture-speech","1920","1080","chrome","59.76","Mac OS","26","male","right","Thu Oct 10 2024 14:03:59 GMT+0200 (Central European Summer Time)","2","62","0","1728562894128"
"1821","j","SpeechGestureMatch","../RequiredFiles/videos/NeinKopfNein_m.mp4","Ist der Ball in der grünen Box?","Green","Blue","J","negation","match","gesture","no","HeadShake","male","gesture-speech","1920","1080","chrome","59.76","Mac OS","26","male","right","Thu Oct 10 2024 14:04:07 GMT+0200 (Central European Summer Time)","2","63","0","1728562894128"
"2746","j","SpeechGestureMatch","../RequiredFiles/videos/JaKopfNein_m.mp4","Ist der Ball in der grünen Box?","Green","Blue","J","negation","mismatch","gesture","yes","HeadShake","male","gesture-speech","1920","1080","chrome","59.76","Mac OS","26","male","right","Thu Oct 10 2024 14:04:15 GMT+0200 (Central European Summer Time)","2","64","0","1728562894128"
"1224","j","SpeechGestureMatch","../RequiredFiles/videos/NeinKopfNein_f.mp4","Ist der Ball in der blauen Box?","Blue","Green","J","negation","match","speech","no","HeadShake","female","gesture-speech","1920","1080","chrome","59.76","Mac OS","26","male","right","Thu Oct 10 2024 14:05:45 GMT+0200 (Central European Summer Time)","3","1","0","1728562894128"
"812","j","SpeechGestureMatch","../RequiredFiles/videos/JaKopfNein_f.mp4","Ist der Ball in der grünen Box?","Blue","Green","J","affirmation","mismatch","speech","yes","HeadShake","female","gesture-speech","1920","1080","chrome","59.76","Mac OS","26","male","right","Thu Oct 10 2024 14:05:52 GMT+0200 (Central European Summer Time)","3","2","0","1728562894128"
"790","f","SpeechGestureMatch","../RequiredFiles/videos/NeinKopfNein_f.mp4","Ist der Ball in der grünen Box?","Blue","Green","F","negation","match","speech","no","HeadShake","female","gesture-speech","1920","1080","chrome","59.76","Mac OS","26","male","right","Thu Oct 10 2024 14:05:58 GMT+0200 (Central European Summer Time)","3","3","0","1728562894128"
"789","f","SpeechGestureMatch","../RequiredFiles/videos/JaKopfJa_f.mp4","Ist der Ball in der grünen Box?","Blue","Green","J","affirmation","match","speech","yes","HeadNod","female","gesture-speech","1920","1080","chrome","59.76","Mac OS","26","male","right","Thu Oct 10 2024 14:06:04 GMT+0200 (Central European Summer Time)","3","4","1","1728562894128"
"2701","j","SpeechGestureMatch","../RequiredFiles/videos/NeinKopfJa_m.mp4","Ist der Ball in der blauen Box?","Blue","Green","J","negation","mismatch","speech","no","HeadNod","male","gesture-speech","1920","1080","chrome","59.76","Mac OS","26","male","right","Thu Oct 10 2024 14:06:13 GMT+0200 (Central European Summer Time)","3","5","0","1728562894128"
"14145","j","SpeechGestureMatch","../RequiredFiles/videos/JaKopfJa_m.mp4","Ist der Ball in der grünen Box?","Blue","Green","J","affirmation","match","speech","yes","HeadNod","male","gesture-speech","1920","1080","chrome","59.76","Mac OS","26","male","right","Thu Oct 10 2024 14:06:32 GMT+0200 (Central European Summer Time)","3","6","0","1728562894128"
"8009","f","SpeechGestureMatch","../RequiredFiles/videos/NeinKopfJa_f.mp4","Ist der Ball in der blauen Box?","Green","Blue","F","negation","mismatch","speech","no","HeadNod","female","gesture-speech","1920","1080","chrome","59.76","Mac OS","26","male","right","Thu Oct 10 2024 14:06:46 GMT+0200 (Central European Summer Time)","3","7","0","1728562894128"
"466","f","SpeechGestureMatch","../RequiredFiles/videos/JaKopfNein_f.mp4","Ist der Ball in der grünen Box?","Green","Blue","F","affirmation","mismatch","speech","yes","HeadShake","female","gesture-speech","1920","1080","chrome","59.76","Mac OS","26","male","right","Thu Oct 10 2024 14:06:52 GMT+0200 (Central European Summer Time)","3","8","0","1728562894128"
"1994","f","SpeechGestureMatch","../RequiredFiles/videos/JaKopfNein_m.mp4","Ist der Ball in der grünen Box?","Blue","Green","J","affirmation","mismatch","speech","yes","HeadShake","male","gesture-speech","1920","1080","chrome","59.76","Mac OS","26","male","right","Thu Oct 10 2024 14:06:59 GMT+0200 (Central European Summer Time)","3","9","1","1728562894128"
"1143","f","SpeechGestureMatch","../RequiredFiles/videos/NeinKopfJa_m.mp4","Ist der Ball in der blauen Box?","Blue","Green","J","negation","mismatch","speech","no","HeadNod","male","gesture-speech","1920","1080","chrome","59.76","Mac OS","26","male","right","Thu Oct 10 2024 14:07:06 GMT+0200 (Central European Summer Time)","3","10","1","1728562894128"
"1548","f","SpeechGestureMatch","../RequiredFiles/videos/NeinKopfJa_f.mp4","Ist der Ball in der grünen Box?","Blue","Green","F","negation","mismatch","speech","no","HeadNod","female","gesture-speech","1920","1080","chrome","59.76","Mac OS","26","male","right","Thu Oct 10 2024 14:07:13 GMT+0200 (Central European Summer Time)","3","11","0","1728562894128"
"1138","j","SpeechGestureMatch","../RequiredFiles/videos/NeinKopfJa_m.mp4","Ist der Ball in der grünen Box?","Green","Blue","J","negation","mismatch","speech","no","HeadNod","male","gesture-speech","1920","1080","chrome","59.76","Mac OS","26","male","right","Thu Oct 10 2024 14:07:20 GMT+0200 (Central European Summer Time)","3","12","0","1728562894128"
"824","f","SpeechGestureMatch","../RequiredFiles/videos/NeinKopfNein_m.mp4","Ist der Ball in der blauen Box?","Green","Blue","F","negation","match","speech","no","HeadShake","male","gesture-speech","1920","1080","chrome","59.76","Mac OS","26","male","right","Thu Oct 10 2024 14:07:26 GMT+0200 (Central European Summer Time)","3","13","0","1728562894128"
"1801","j","SpeechGestureMatch","../RequiredFiles/videos/JaKopfNein_f.mp4","Ist der Ball in der blauen Box?","Green","Blue","J","affirmation","mismatch","speech","yes","HeadShake","female","gesture-speech","1920","1080","chrome","59.76","Mac OS","26","male","right","Thu Oct 10 2024 14:07:33 GMT+0200 (Central European Summer Time)","3","14","0","1728562894128"
"1534","j","SpeechGestureMatch","../RequiredFiles/videos/JaKopfJa_f.mp4","Ist der Ball in der blauen Box?","Green","Blue","J","affirmation","match","speech","yes","HeadNod","female","gesture-speech","1920","1080","chrome","59.76","Mac OS","26","male","right","Thu Oct 10 2024 14:07:40 GMT+0200 (Central European Summer Time)","3","15","0","1728562894128"
"1170","j","SpeechGestureMatch","../RequiredFiles/videos/JaKopfNein_m.mp4","Ist der Ball in der blauen Box?","Green","Blue","J","affirmation","mismatch","speech","yes","HeadShake","male","gesture-speech","1920","1080","chrome","59.76","Mac OS","26","male","right","Thu Oct 10 2024 14:07:47 GMT+0200 (Central European Summer Time)","3","16","0","1728562894128"
"960","f","SpeechGestureMatch","../RequiredFiles/videos/JaKopfJa_m.mp4","Ist der Ball in der blauen Box?","Blue","Green","F","affirmation","match","speech","yes","HeadNod","male","gesture-speech","1920","1080","chrome","59.76","Mac OS","26","male","right","Thu Oct 10 2024 14:07:54 GMT+0200 (Central European Summer Time)","3","17","0","1728562894128"
"663","f","SpeechGestureMatch","../RequiredFiles/videos/NeinKopfNein_m.mp4","Ist der Ball in der blauen Box?","Green","Blue","F","negation","match","speech","no","HeadShake","male","gesture-speech","1920","1080","chrome","59.76","Mac OS","26","male","right","Thu Oct 10 2024 14:08:00 GMT+0200 (Central European Summer Time)","3","18","0","1728562894128"
"2342","f","SpeechGestureMatch","../RequiredFiles/videos/JaKopfJa_m.mp4","Ist der Ball in der blauen Box?","Green","Blue","J","affirmation","match","speech","yes","HeadNod","male","gesture-speech","1920","1080","chrome","59.76","Mac OS","26","male","right","Thu Oct 10 2024 14:08:08 GMT+0200 (Central European Summer Time)","3","19","1","1728562894128"
"2833","j","SpeechGestureMatch","../RequiredFiles/videos/NeinKopfNein_m.mp4","Ist der Ball in der blauen Box?","Blue","Green","J","negation","match","speech","no","HeadShake","male","gesture-speech","1920","1080","chrome","59.76","Mac OS","26","male","right","Thu Oct 10 2024 14:08:16 GMT+0200 (Central European Summer Time)","3","20","0","1728562894128"
"1050","f","SpeechGestureMatch","../RequiredFiles/videos/JaKopfJa_m.mp4","Ist der Ball in der grünen Box?","Green","Blue","F","affirmation","match","speech","yes","HeadNod","male","gesture-speech","1920","1080","chrome","59.76","Mac OS","26","male","right","Thu Oct 10 2024 14:08:22 GMT+0200 (Central European Summer Time)","3","21","0","1728562894128"
"2028","j","SpeechGestureMatch","../RequiredFiles/videos/NeinKopfNein_f.mp4","Ist der Ball in der grünen Box?","Blue","Green","F","negation","match","speech","no","HeadShake","female","gesture-speech","1920","1080","chrome","59.76","Mac OS","26","male","right","Thu Oct 10 2024 14:08:30 GMT+0200 (Central European Summer Time)","3","22","1","1728562894128"
"1106","f","SpeechGestureMatch","../RequiredFiles/videos/NeinKopfNein_f.mp4","Ist der Ball in der blauen Box?","Green","Blue","F","negation","match","speech","no","HeadShake","female","gesture-speech","1920","1080","chrome","59.76","Mac OS","26","male","right","Thu Oct 10 2024 14:08:37 GMT+0200 (Central European Summer Time)","3","23","0","1728562894128"
"1023","j","SpeechGestureMatch","../RequiredFiles/videos/NeinKopfJa_m.mp4","Ist der Ball in der grünen Box?","Blue","Green","F","negation","mismatch","speech","no","HeadNod","male","gesture-speech","1920","1080","chrome","59.76","Mac OS","26","male","right","Thu Oct 10 2024 14:08:43 GMT+0200 (Central European Summer Time)","3","24","1","1728562894128"
"1232","f","SpeechGestureMatch","../RequiredFiles/videos/NeinKopfNein_m.mp4","Ist der Ball in der grünen Box?","Green","Blue","J","negation","match","speech","no","HeadShake","male","gesture-speech","1920","1080","chrome","59.76","Mac OS","26","male","right","Thu Oct 10 2024 14:08:50 GMT+0200 (Central European Summer Time)","3","25","1","1728562894128"
"942","j","SpeechGestureMatch","../RequiredFiles/videos/JaKopfJa_m.mp4","Ist der Ball in der grünen Box?","Blue","Green","J","affirmation","match","speech","yes","HeadNod","male","gesture-speech","1920","1080","chrome","59.76","Mac OS","26","male","right","Thu Oct 10 2024 14:08:56 GMT+0200 (Central European Summer Time)","3","26","0","1728562894128"
"6559","j","SpeechGestureMatch","../RequiredFiles/videos/NeinKopfJa_m.mp4","Ist der Ball in der grünen Box?","Blue","Green","F","negation","mismatch","speech","no","HeadNod","male","gesture-speech","1920","1080","chrome","59.76","Mac OS","26","male","right","Thu Oct 10 2024 14:09:08 GMT+0200 (Central European Summer Time)","3","27","1","1728562894128"
"1054","f","SpeechGestureMatch","../RequiredFiles/videos/JaKopfJa_f.mp4","Ist der Ball in der grünen Box?","Green","Blue","F","affirmation","match","speech","yes","HeadNod","female","gesture-speech","1920","1080","chrome","59.76","Mac OS","26","male","right","Thu Oct 10 2024 14:09:15 GMT+0200 (Central European Summer Time)","3","28","0","1728562894128"
"1004","j","SpeechGestureMatch","../RequiredFiles/videos/NeinKopfJa_f.mp4","Ist der Ball in der grünen Box?","Green","Blue","J","negation","mismatch","speech","no","HeadNod","female","gesture-speech","1920","1080","chrome","59.76","Mac OS","26","male","right","Thu Oct 10 2024 14:09:22 GMT+0200 (Central European Summer Time)","3","29","0","1728562894128"
"901","j","SpeechGestureMatch","../RequiredFiles/videos/NeinKopfNein_f.mp4","Ist der Ball in der blauen Box?","Blue","Green","J","negation","match","speech","no","HeadShake","female","gesture-speech","1920","1080","chrome","59.76","Mac OS","26","male","right","Thu Oct 10 2024 14:09:28 GMT+0200 (Central European Summer Time)","3","30","0","1728562894128"
"1097","f","SpeechGestureMatch","../RequiredFiles/videos/JaKopfJa_m.mp4","Ist der Ball in der grünen Box?","Green","Blue","F","affirmation","match","speech","yes","HeadNod","male","gesture-speech","1920","1080","chrome","59.76","Mac OS","26","male","right","Thu Oct 10 2024 14:09:35 GMT+0200 (Central European Summer Time)","3","31","0","1728562894128"
"2236","f","SpeechGestureMatch","../RequiredFiles/videos/JaKopfNein_m.mp4","Ist der Ball in der blauen Box?","Green","Blue","J","affirmation","mismatch","speech","yes","HeadShake","male","gesture-speech","1920","1080","chrome","59.76","Mac OS","26","male","right","Thu Oct 10 2024 14:09:42 GMT+0200 (Central European Summer Time)","3","32","1","1728562894128"
"1173","f","SpeechGestureMatch","../RequiredFiles/videos/JaKopfJa_m.mp4","Ist der Ball in der blauen Box?","Blue","Green","F","affirmation","match","speech","yes","HeadNod","male","gesture-speech","1920","1080","chrome","59.76","Mac OS","26","male","right","Thu Oct 10 2024 14:09:49 GMT+0200 (Central European Summer Time)","3","33","0","1728562894128"
"1632","f","SpeechGestureMatch","../RequiredFiles/videos/JaKopfNein_m.mp4","Ist der Ball in der blauen Box?","Blue","Green","F","affirmation","mismatch","speech","yes","HeadShake","male","gesture-speech","1920","1080","chrome","59.76","Mac OS","26","male","right","Thu Oct 10 2024 14:09:56 GMT+0200 (Central European Summer Time)","3","34","0","1728562894128"
"1289","f","SpeechGestureMatch","../RequiredFiles/videos/JaKopfNein_m.mp4","Ist der Ball in der blauen Box?","Blue","Green","F","affirmation","mismatch","speech","yes","HeadShake","male","gesture-speech","1920","1080","chrome","59.76","Mac OS","26","male","right","Thu Oct 10 2024 14:10:03 GMT+0200 (Central European Summer Time)","3","35","0","1728562894128"
"860","j","SpeechGestureMatch","../RequiredFiles/videos/NeinKopfJa_m.mp4","Ist der Ball in der blauen Box?","Green","Blue","F","negation","mismatch","speech","no","HeadNod","male","gesture-speech","1920","1080","chrome","59.76","Mac OS","26","male","right","Thu Oct 10 2024 14:10:09 GMT+0200 (Central European Summer Time)","3","36","1","1728562894128"
"1003","j","SpeechGestureMatch","../RequiredFiles/videos/JaKopfJa_m.mp4","Ist der Ball in der blauen Box?","Green","Blue","J","affirmation","match","speech","yes","HeadNod","male","gesture-speech","1920","1080","chrome","59.76","Mac OS","26","male","right","Thu Oct 10 2024 14:10:16 GMT+0200 (Central European Summer Time)","3","37","0","1728562894128"
"993","j","SpeechGestureMatch","../RequiredFiles/videos/JaKopfJa_f.mp4","Ist der Ball in der grünen Box?","Green","Blue","F","affirmation","match","speech","yes","HeadNod","female","gesture-speech","1920","1080","chrome","59.76","Mac OS","26","male","right","Thu Oct 10 2024 14:10:22 GMT+0200 (Central European Summer Time)","3","38","1","1728562894128"
"1291","f","SpeechGestureMatch","../RequiredFiles/videos/NeinKopfNein_m.mp4","Ist der Ball in der grünen Box?","Blue","Green","F","negation","match","speech","no","HeadShake","male","gesture-speech","1920","1080","chrome","59.76","Mac OS","26","male","right","Thu Oct 10 2024 14:10:29 GMT+0200 (Central European Summer Time)","3","39","0","1728562894128"
"757","f","SpeechGestureMatch","../RequiredFiles/videos/NeinKopfJa_m.mp4","Ist der Ball in der blauen Box?","Green","Blue","F","negation","mismatch","speech","no","HeadNod","male","gesture-speech","1920","1080","chrome","59.76","Mac OS","26","male","right","Thu Oct 10 2024 14:10:36 GMT+0200 (Central European Summer Time)","3","40","0","1728562894128"
"933","f","SpeechGestureMatch","../RequiredFiles/videos/JaKopfNein_m.mp4","Ist der Ball in der grünen Box?","Blue","Green","J","affirmation","mismatch","speech","yes","HeadShake","male","gesture-speech","1920","1080","chrome","59.76","Mac OS","26","male","right","Thu Oct 10 2024 14:10:42 GMT+0200 (Central European Summer Time)","3","41","1","1728562894128"
"782","j","SpeechGestureMatch","../RequiredFiles/videos/JaKopfNein_f.mp4","Ist der Ball in der blauen Box?","Green","Blue","J","affirmation","mismatch","speech","yes","HeadShake","female","gesture-speech","1920","1080","chrome","59.76","Mac OS","26","male","right","Thu Oct 10 2024 14:10:48 GMT+0200 (Central European Summer Time)","3","42","0","1728562894128"
"1081","j","SpeechGestureMatch","../RequiredFiles/videos/NeinKopfJa_f.mp4","Ist der Ball in der grünen Box?","Green","Blue","J","negation","mismatch","speech","no","HeadNod","female","gesture-speech","1920","1080","chrome","59.76","Mac OS","26","male","right","Thu Oct 10 2024 14:10:55 GMT+0200 (Central European Summer Time)","3","43","0","1728562894128"
"813","j","SpeechGestureMatch","../RequiredFiles/videos/JaKopfNein_f.mp4","Ist der Ball in der grünen Box?","Green","Blue","F","affirmation","mismatch","speech","yes","HeadShake","female","gesture-speech","1920","1080","chrome","59.76","Mac OS","26","male","right","Thu Oct 10 2024 14:11:01 GMT+0200 (Central European Summer Time)","3","44","1","1728562894128"
"2223","f","SpeechGestureMatch","../RequiredFiles/videos/NeinKopfNein_f.mp4","Ist der Ball in der grünen Box?","Green","Blue","J","negation","match","speech","no","HeadShake","female","gesture-speech","1920","1080","chrome","59.76","Mac OS","26","male","right","Thu Oct 10 2024 14:11:09 GMT+0200 (Central European Summer Time)","3","45","1","1728562894128"
"1092","f","SpeechGestureMatch","../RequiredFiles/videos/NeinKopfJa_f.mp4","Ist der Ball in der grünen Box?","Blue","Green","F","negation","mismatch","speech","no","HeadNod","female","gesture-speech","1920","1080","chrome","59.76","Mac OS","26","male","right","Thu Oct 10 2024 14:11:16 GMT+0200 (Central European Summer Time)","3","46","0","1728562894128"
"769","f","SpeechGestureMatch","../RequiredFiles/videos/JaKopfJa_f.mp4","Ist der Ball in der blauen Box?","Blue","Green","F","affirmation","match","speech","yes","HeadNod","female","gesture-speech","1920","1080","chrome","59.76","Mac OS","26","male","right","Thu Oct 10 2024 14:11:22 GMT+0200 (Central European Summer Time)","3","47","0","1728562894128"
"1137","f","SpeechGestureMatch","../RequiredFiles/videos/JaKopfNein_m.mp4","Ist der Ball in der grünen Box?","Green","Blue","F","affirmation","mismatch","speech","yes","HeadShake","male","gesture-speech","1920","1080","chrome","59.76","Mac OS","26","male","right","Thu Oct 10 2024 14:11:29 GMT+0200 (Central European Summer Time)","3","48","0","1728562894128"
"16923","f","SpeechGestureMatch","../RequiredFiles/videos/JaKopfNein_f.mp4","Ist der Ball in der blauen Box?","Blue","Green","F","affirmation","mismatch","speech","yes","HeadShake","female","gesture-speech","1920","1080","chrome","59.76","Mac OS","26","male","right","Thu Oct 10 2024 14:11:51 GMT+0200 (Central European Summer Time)","3","49","0","1728562894128"
"1038","j","SpeechGestureMatch","../RequiredFiles/videos/JaKopfNein_f.mp4","Ist der Ball in der grünen Box?","Blue","Green","J","affirmation","mismatch","speech","yes","HeadShake","female","gesture-speech","1920","1080","chrome","59.76","Mac OS","26","male","right","Thu Oct 10 2024 14:11:58 GMT+0200 (Central European Summer Time)","3","50","0","1728562894128"
"1621","f","SpeechGestureMatch","../RequiredFiles/videos/NeinKopfJa_f.mp4","Ist der Ball in der blauen Box?","Blue","Green","J","negation","mismatch","speech","no","HeadNod","female","gesture-speech","1920","1080","chrome","59.76","Mac OS","26","male","right","Thu Oct 10 2024 14:12:05 GMT+0200 (Central European Summer Time)","3","51","1","1728562894128"
"1389","j","SpeechGestureMatch","../RequiredFiles/videos/NeinKopfNein_m.mp4","Ist der Ball in der blauen Box?","Blue","Green","J","negation","match","speech","no","HeadShake","male","gesture-speech","1920","1080","chrome","59.76","Mac OS","26","male","right","Thu Oct 10 2024 14:12:12 GMT+0200 (Central European Summer Time)","3","52","0","1728562894128"
"9501","j","SpeechGestureMatch","../RequiredFiles/videos/NeinKopfNein_f.mp4","Ist der Ball in der blauen Box?","Green","Blue","F","negation","match","speech","no","HeadShake","female","gesture-speech","1920","1080","chrome","59.76","Mac OS","26","male","right","Thu Oct 10 2024 14:12:27 GMT+0200 (Central European Summer Time)","3","53","1","1728562894128"
"630","f","SpeechGestureMatch","../RequiredFiles/videos/JaKopfJa_f.mp4","Ist der Ball in der grünen Box?","Blue","Green","J","affirmation","match","speech","yes","HeadNod","female","gesture-speech","1920","1080","chrome","59.76","Mac OS","26","male","right","Thu Oct 10 2024 14:12:33 GMT+0200 (Central European Summer Time)","3","54","1","1728562894128"
"687","j","SpeechGestureMatch","../RequiredFiles/videos/JaKopfJa_f.mp4","Ist der Ball in der blauen Box?","Blue","Green","F","affirmation","match","speech","yes","HeadNod","female","gesture-speech","1920","1080","chrome","59.76","Mac OS","26","male","right","Thu Oct 10 2024 14:12:39 GMT+0200 (Central European Summer Time)","3","55","1","1728562894128"
"1653","j","SpeechGestureMatch","../RequiredFiles/videos/NeinKopfNein_m.mp4","Ist der Ball in der grünen Box?","Green","Blue","J","negation","match","speech","no","HeadShake","male","gesture-speech","1920","1080","chrome","59.76","Mac OS","26","male","right","Thu Oct 10 2024 14:12:46 GMT+0200 (Central European Summer Time)","3","56","0","1728562894128"
"5225","j","SpeechGestureMatch","../RequiredFiles/videos/NeinKopfJa_m.mp4","Ist der Ball in der grünen Box?","Green","Blue","J","negation","mismatch","speech","no","HeadNod","male","gesture-speech","1920","1080","chrome","59.76","Mac OS","26","male","right","Thu Oct 10 2024 14:12:57 GMT+0200 (Central European Summer Time)","3","57","0","1728562894128"
"6162","j","SpeechGestureMatch","../RequiredFiles/videos/JaKopfNein_m.mp4","Ist der Ball in der grünen Box?","Green","Blue","F","affirmation","mismatch","speech","yes","HeadShake","male","gesture-speech","1920","1080","chrome","59.76","Mac OS","26","male","right","Thu Oct 10 2024 14:13:09 GMT+0200 (Central European Summer Time)","3","58","1","1728562894128"
"1002","j","SpeechGestureMatch","../RequiredFiles/videos/JaKopfJa_f.mp4","Ist der Ball in der blauen Box?","Green","Blue","J","affirmation","match","speech","yes","HeadNod","female","gesture-speech","1920","1080","chrome","59.76","Mac OS","26","male","right","Thu Oct 10 2024 14:13:15 GMT+0200 (Central European Summer Time)","3","59","0","1728562894128"
"1549","j","SpeechGestureMatch","../RequiredFiles/videos/NeinKopfNein_f.mp4","Ist der Ball in der grünen Box?","Green","Blue","J","negation","match","speech","no","HeadShake","female","gesture-speech","1920","1080","chrome","59.76","Mac OS","26","male","right","Thu Oct 10 2024 14:13:22 GMT+0200 (Central European Summer Time)","3","60","0","1728562894128"
"840","f","SpeechGestureMatch","../RequiredFiles/videos/NeinKopfJa_f.mp4","Ist der Ball in der blauen Box?","Green","Blue","F","negation","mismatch","speech","no","HeadNod","female","gesture-speech","1920","1080","chrome","59.76","Mac OS","26","male","right","Thu Oct 10 2024 14:13:28 GMT+0200 (Central European Summer Time)","3","61","0","1728562894128"
"1171","f","SpeechGestureMatch","../RequiredFiles/videos/NeinKopfNein_m.mp4","Ist der Ball in der grünen Box?","Blue","Green","F","negation","match","speech","no","HeadShake","male","gesture-speech","1920","1080","chrome","59.76","Mac OS","26","male","right","Thu Oct 10 2024 14:13:35 GMT+0200 (Central European Summer Time)","3","62","0","1728562894128"
"1080","f","SpeechGestureMatch","../RequiredFiles/videos/JaKopfNein_f.mp4","Ist der Ball in der blauen Box?","Blue","Green","F","affirmation","mismatch","speech","yes","HeadShake","female","gesture-speech","1920","1080","chrome","59.76","Mac OS","26","male","right","Thu Oct 10 2024 14:13:42 GMT+0200 (Central European Summer Time)","3","63","0","1728562894128"
"907","j","SpeechGestureMatch","../RequiredFiles/videos/NeinKopfJa_f.mp4","Ist der Ball in der blauen Box?","Blue","Green","J","negation","mismatch","speech","no","HeadNod","female","gesture-speech","1920","1080","chrome","59.76","Mac OS","26","male","right","Thu Oct 10 2024 14:13:48 GMT+0200 (Central European Summer Time)","3","64","0","1728562894128"
"1024","f","SpeechGestureMatch","../RequiredFiles/videos/NeinKopfJa_f.mp4","Ist der Ball in der blauen Box?","Green","Blue","F","negation","mismatch","speech","no","HeadNod","female","gesture-speech","1920","1080","chrome","59.76","Mac OS","26","male","right","Thu Oct 10 2024 14:13:57 GMT+0200 (Central European Summer Time)","4","1","0","1728562894128"
"837","f","SpeechGestureMatch","../RequiredFiles/videos/NeinKopfNein_f.mp4","Ist der Ball in der blauen Box?","Blue","Green","J","negation","match","speech","no","HeadShake","female","gesture-speech","1920","1080","chrome","59.76","Mac OS","26","male","right","Thu Oct 10 2024 14:14:03 GMT+0200 (Central European Summer Time)","4","2","1","1728562894128"
"1112","f","SpeechGestureMatch","../RequiredFiles/videos/NeinKopfJa_m.mp4","Ist der Ball in der grünen Box?","Blue","Green","F","negation","mismatch","speech","no","HeadNod","male","gesture-speech","1920","1080","chrome","59.76","Mac OS","26","male","right","Thu Oct 10 2024 14:14:10 GMT+0200 (Central European Summer Time)","4","3","0","1728562894128"
"1261","j","SpeechGestureMatch","../RequiredFiles/videos/NeinKopfJa_f.mp4","Ist der Ball in der blauen Box?","Blue","Green","J","negation","mismatch","speech","no","HeadNod","female","gesture-speech","1920","1080","chrome","59.76","Mac OS","26","male","right","Thu Oct 10 2024 14:14:16 GMT+0200 (Central European Summer Time)","4","4","0","1728562894128"
"961","f","SpeechGestureMatch","../RequiredFiles/videos/JaKopfJa_m.mp4","Ist der Ball in der grünen Box?","Green","Blue","F","affirmation","match","speech","yes","HeadNod","male","gesture-speech","1920","1080","chrome","59.76","Mac OS","26","male","right","Thu Oct 10 2024 14:14:23 GMT+0200 (Central European Summer Time)","4","5","0","1728562894128"
"1171","j","SpeechGestureMatch","../RequiredFiles/videos/JaKopfJa_f.mp4","Ist der Ball in der grünen Box?","Blue","Green","J","affirmation","match","speech","yes","HeadNod","female","gesture-speech","1920","1080","chrome","59.76","Mac OS","26","male","right","Thu Oct 10 2024 14:14:30 GMT+0200 (Central European Summer Time)","4","6","0","1728562894128"
"1592","f","SpeechGestureMatch","../RequiredFiles/videos/NeinKopfJa_m.mp4","Ist der Ball in der grünen Box?","Green","Blue","J","negation","mismatch","speech","no","HeadNod","male","gesture-speech","1920","1080","chrome","59.76","Mac OS","26","male","right","Thu Oct 10 2024 14:14:37 GMT+0200 (Central European Summer Time)","4","7","1","1728562894128"
"881","j","SpeechGestureMatch","../RequiredFiles/videos/JaKopfJa_f.mp4","Ist der Ball in der blauen Box?","Green","Blue","J","affirmation","match","speech","yes","HeadNod","female","gesture-speech","1920","1080","chrome","59.76","Mac OS","26","male","right","Thu Oct 10 2024 14:14:43 GMT+0200 (Central European Summer Time)","4","8","0","1728562894128"
"1485","f","SpeechGestureMatch","../RequiredFiles/videos/NeinKopfNein_f.mp4","Ist der Ball in der grünen Box?","Blue","Green","F","negation","match","speech","no","HeadShake","female","gesture-speech","1920","1080","chrome","59.76","Mac OS","26","male","right","Thu Oct 10 2024 14:14:50 GMT+0200 (Central European Summer Time)","4","9","0","1728562894128"
"1397","j","SpeechGestureMatch","../RequiredFiles/videos/NeinKopfNein_f.mp4","Ist der Ball in der grünen Box?","Blue","Green","F","negation","match","speech","no","HeadShake","female","gesture-speech","1920","1080","chrome","59.76","Mac OS","26","male","right","Thu Oct 10 2024 14:14:57 GMT+0200 (Central European Summer Time)","4","10","1","1728562894128"
"1012","f","SpeechGestureMatch","../RequiredFiles/videos/NeinKopfJa_m.mp4","Ist der Ball in der blauen Box?","Green","Blue","F","negation","mismatch","speech","no","HeadNod","male","gesture-speech","1920","1080","chrome","59.76","Mac OS","26","male","right","Thu Oct 10 2024 14:15:04 GMT+0200 (Central European Summer Time)","4","11","0","1728562894128"
"798","j","SpeechGestureMatch","../RequiredFiles/videos/JaKopfJa_m.mp4","Ist der Ball in der grünen Box?","Blue","Green","J","affirmation","match","speech","yes","HeadNod","male","gesture-speech","1920","1080","chrome","59.76","Mac OS","26","male","right","Thu Oct 10 2024 14:15:10 GMT+0200 (Central European Summer Time)","4","12","0","1728562894128"
"979","f","SpeechGestureMatch","../RequiredFiles/videos/JaKopfNein_f.mp4","Ist der Ball in der grünen Box?","Blue","Green","J","affirmation","mismatch","speech","yes","HeadShake","female","gesture-speech","1920","1080","chrome","59.76","Mac OS","26","male","right","Thu Oct 10 2024 14:15:16 GMT+0200 (Central European Summer Time)","4","13","1","1728562894128"
"1620","f","SpeechGestureMatch","../RequiredFiles/videos/NeinKopfNein_m.mp4","Ist der Ball in der grünen Box?","Blue","Green","F","negation","match","speech","no","HeadShake","male","gesture-speech","1920","1080","chrome","59.76","Mac OS","26","male","right","Thu Oct 10 2024 14:15:24 GMT+0200 (Central European Summer Time)","4","14","0","1728562894128"
"1260","j","SpeechGestureMatch","../RequiredFiles/videos/NeinKopfNein_m.mp4","Ist der Ball in der blauen Box?","Blue","Green","J","negation","match","speech","no","HeadShake","male","gesture-speech","1920","1080","chrome","59.76","Mac OS","26","male","right","Thu Oct 10 2024 14:15:30 GMT+0200 (Central European Summer Time)","4","15","0","1728562894128"
"1910","f","SpeechGestureMatch","../RequiredFiles/videos/JaKopfNein_m.mp4","Ist der Ball in der blauen Box?","Green","Blue","J","affirmation","mismatch","speech","yes","HeadShake","male","gesture-speech","1920","1080","chrome","59.76","Mac OS","26","male","right","Thu Oct 10 2024 14:15:38 GMT+0200 (Central European Summer Time)","4","16","1","1728562894128"
"2112","j","SpeechGestureMatch","../RequiredFiles/videos/JaKopfNein_f.mp4","Ist der Ball in der blauen Box?","Green","Blue","J","affirmation","mismatch","speech","yes","HeadShake","female","gesture-speech","1920","1080","chrome","59.76","Mac OS","26","male","right","Thu Oct 10 2024 14:15:45 GMT+0200 (Central European Summer Time)","4","17","0","1728562894128"
"950","f","SpeechGestureMatch","../RequiredFiles/videos/JaKopfJa_f.mp4","Ist der Ball in der blauen Box?","Blue","Green","F","affirmation","match","speech","yes","HeadNod","female","gesture-speech","1920","1080","chrome","59.76","Mac OS","26","male","right","Thu Oct 10 2024 14:15:52 GMT+0200 (Central European Summer Time)","4","18","0","1728562894128"
"1532","j","SpeechGestureMatch","../RequiredFiles/videos/NeinKopfNein_m.mp4","Ist der Ball in der grünen Box?","Green","Blue","J","negation","match","speech","no","HeadShake","male","gesture-speech","1920","1080","chrome","59.76","Mac OS","26","male","right","Thu Oct 10 2024 14:15:59 GMT+0200 (Central European Summer Time)","4","19","0","1728562894128"
"1320","f","SpeechGestureMatch","../RequiredFiles/videos/JaKopfNein_m.mp4","Ist der Ball in der grünen Box?","Blue","Green","J","affirmation","mismatch","speech","yes","HeadShake","male","gesture-speech","1920","1080","chrome","59.76","Mac OS","26","male","right","Thu Oct 10 2024 14:16:06 GMT+0200 (Central European Summer Time)","4","20","1","1728562894128"
"3345","f","SpeechGestureMatch","../RequiredFiles/videos/NeinKopfJa_f.mp4","Ist der Ball in der blauen Box?","Green","Blue","F","negation","mismatch","speech","no","HeadNod","female","gesture-speech","1920","1080","chrome","59.76","Mac OS","26","male","right","Thu Oct 10 2024 14:16:15 GMT+0200 (Central European Summer Time)","4","21","0","1728562894128"
"3289","f","SpeechGestureMatch","../RequiredFiles/videos/NeinKopfNein_m.mp4","Ist der Ball in der blauen Box?","Blue","Green","J","negation","match","speech","no","HeadShake","male","gesture-speech","1920","1080","chrome","59.76","Mac OS","26","male","right","Thu Oct 10 2024 14:16:23 GMT+0200 (Central European Summer Time)","4","22","1","1728562894128"
"961","j","SpeechGestureMatch","../RequiredFiles/videos/JaKopfJa_f.mp4","Ist der Ball in der grünen Box?","Blue","Green","J","affirmation","match","speech","yes","HeadNod","female","gesture-speech","1920","1080","chrome","59.76","Mac OS","26","male","right","Thu Oct 10 2024 14:16:30 GMT+0200 (Central European Summer Time)","4","23","0","1728562894128"
"1710","j","SpeechGestureMatch","../RequiredFiles/videos/JaKopfNein_m.mp4","Ist der Ball in der grünen Box?","Green","Blue","F","affirmation","mismatch","speech","yes","HeadShake","male","gesture-speech","1920","1080","chrome","59.76","Mac OS","26","male","right","Thu Oct 10 2024 14:16:37 GMT+0200 (Central European Summer Time)","4","24","1","1728562894128"
"1259","j","SpeechGestureMatch","../RequiredFiles/videos/NeinKopfNein_f.mp4","Ist der Ball in der blauen Box?","Blue","Green","J","negation","match","speech","no","HeadShake","female","gesture-speech","1920","1080","chrome","59.76","Mac OS","26","male","right","Thu Oct 10 2024 14:16:44 GMT+0200 (Central European Summer Time)","4","25","0","1728562894128"
"274","j","SpeechGestureMatch","../RequiredFiles/videos/JaKopfNein_f.mp4","Ist der Ball in der grünen Box?","Green","Blue","F","affirmation","mismatch","speech","yes","HeadShake","female","gesture-speech","1920","1080","chrome","59.76","Mac OS","26","male","right","Thu Oct 10 2024 14:16:50 GMT+0200 (Central European Summer Time)","4","26","1","1728562894128"
"1666","f","SpeechGestureMatch","../RequiredFiles/videos/JaKopfNein_f.mp4","Ist der Ball in der grünen Box?","Green","Blue","F","affirmation","mismatch","speech","yes","HeadShake","female","gesture-speech","1920","1080","chrome","59.76","Mac OS","26","male","right","Thu Oct 10 2024 14:16:57 GMT+0200 (Central European Summer Time)","4","27","0","1728562894128"
"1350","j","SpeechGestureMatch","../RequiredFiles/videos/NeinKopfJa_m.mp4","Ist der Ball in der blauen Box?","Blue","Green","J","negation","mismatch","speech","no","HeadNod","male","gesture-speech","1920","1080","chrome","59.76","Mac OS","26","male","right","Thu Oct 10 2024 14:17:04 GMT+0200 (Central European Summer Time)","4","28","0","1728562894128"
"1775","j","SpeechGestureMatch","../RequiredFiles/videos/NeinKopfJa_m.mp4","Ist der Ball in der blauen Box?","Blue","Green","J","negation","mismatch","speech","no","HeadNod","male","gesture-speech","1920","1080","chrome","59.76","Mac OS","26","male","right","Thu Oct 10 2024 14:17:11 GMT+0200 (Central European Summer Time)","4","29","0","1728562894128"
"1313","f","SpeechGestureMatch","../RequiredFiles/videos/JaKopfJa_f.mp4","Ist der Ball in der grünen Box?","Green","Blue","F","affirmation","match","speech","yes","HeadNod","female","gesture-speech","1920","1080","chrome","59.76","Mac OS","26","male","right","Thu Oct 10 2024 14:17:18 GMT+0200 (Central European Summer Time)","4","30","0","1728562894128"
"1247","f","SpeechGestureMatch","../RequiredFiles/videos/NeinKopfJa_m.mp4","Ist der Ball in der grünen Box?","Blue","Green","F","negation","mismatch","speech","no","HeadNod","male","gesture-speech","1920","1080","chrome","59.76","Mac OS","26","male","right","Thu Oct 10 2024 14:17:25 GMT+0200 (Central European Summer Time)","4","31","0","1728562894128"
"1704","j","SpeechGestureMatch","../RequiredFiles/videos/JaKopfNein_f.mp4","Ist der Ball in der grünen Box?","Blue","Green","J","affirmation","mismatch","speech","yes","HeadShake","female","gesture-speech","1920","1080","chrome","59.76","Mac OS","26","male","right","Thu Oct 10 2024 14:17:32 GMT+0200 (Central European Summer Time)","4","32","0","1728562894128"
"1206","f","SpeechGestureMatch","../RequiredFiles/videos/JaKopfNein_f.mp4","Ist der Ball in der blauen Box?","Blue","Green","F","affirmation","mismatch","speech","yes","HeadShake","female","gesture-speech","1920","1080","chrome","59.76","Mac OS","26","male","right","Thu Oct 10 2024 14:17:39 GMT+0200 (Central European Summer Time)","4","33","0","1728562894128"
"1771","j","SpeechGestureMatch","../RequiredFiles/videos/NeinKopfJa_f.mp4","Ist der Ball in der blauen Box?","Blue","Green","J","negation","mismatch","speech","no","HeadNod","female","gesture-speech","1920","1080","chrome","59.76","Mac OS","26","male","right","Thu Oct 10 2024 14:17:46 GMT+0200 (Central European Summer Time)","4","34","0","1728562894128"
"3253","j","SpeechGestureMatch","../RequiredFiles/videos/NeinKopfNein_f.mp4","Ist der Ball in der blauen Box?","Green","Blue","F","negation","match","speech","no","HeadShake","female","gesture-speech","1920","1080","chrome","59.76","Mac OS","26","male","right","Thu Oct 10 2024 14:17:55 GMT+0200 (Central European Summer Time)","4","35","1","1728562894128"
"1242","f","SpeechGestureMatch","../RequiredFiles/videos/NeinKopfNein_m.mp4","Ist der Ball in der blauen Box?","Green","Blue","F","negation","match","speech","no","HeadShake","male","gesture-speech","1920","1080","chrome","59.76","Mac OS","26","male","right","Thu Oct 10 2024 14:18:01 GMT+0200 (Central European Summer Time)","4","36","0","1728562894128"
"922","f","SpeechGestureMatch","../RequiredFiles/videos/JaKopfJa_m.mp4","Ist der Ball in der blauen Box?","Blue","Green","F","affirmation","match","speech","yes","HeadNod","male","gesture-speech","1920","1080","chrome","59.76","Mac OS","26","male","right","Thu Oct 10 2024 14:18:08 GMT+0200 (Central European Summer Time)","4","37","0","1728562894128"
"1525","j","SpeechGestureMatch","../RequiredFiles/videos/JaKopfJa_m.mp4","Ist der Ball in der blauen Box?","Green","Blue","J","affirmation","match","speech","yes","HeadNod","male","gesture-speech","1920","1080","chrome","59.76","Mac OS","26","male","right","Thu Oct 10 2024 14:18:15 GMT+0200 (Central European Summer Time)","4","38","0","1728562894128"
"1222","f","SpeechGestureMatch","../RequiredFiles/videos/NeinKopfNein_f.mp4","Ist der Ball in der grünen Box?","Green","Blue","J","negation","match","speech","no","HeadShake","female","gesture-speech","1920","1080","chrome","59.76","Mac OS","26","male","right","Thu Oct 10 2024 14:18:22 GMT+0200 (Central European Summer Time)","4","39","1","1728562894128"
"914","j","SpeechGestureMatch","../RequiredFiles/videos/JaKopfJa_m.mp4","Ist der Ball in der blauen Box?","Green","Blue","J","affirmation","match","speech","yes","HeadNod","male","gesture-speech","1920","1080","chrome","59.76","Mac OS","26","male","right","Thu Oct 10 2024 14:18:28 GMT+0200 (Central European Summer Time)","4","40","0","1728562894128"
"1182","f","SpeechGestureMatch","../RequiredFiles/videos/JaKopfJa_f.mp4","Ist der Ball in der blauen Box?","Green","Blue","J","affirmation","match","speech","yes","HeadNod","female","gesture-speech","1920","1080","chrome","59.76","Mac OS","26","male","right","Thu Oct 10 2024 14:18:35 GMT+0200 (Central European Summer Time)","4","41","1","1728562894128"
"1005","f","SpeechGestureMatch","../RequiredFiles/videos/JaKopfJa_m.mp4","Ist der Ball in der grünen Box?","Green","Blue","F","affirmation","match","speech","yes","HeadNod","male","gesture-speech","1920","1080","chrome","59.76","Mac OS","26","male","right","Thu Oct 10 2024 14:18:41 GMT+0200 (Central European Summer Time)","4","42","0","1728562894128"
"2271","j","SpeechGestureMatch","../RequiredFiles/videos/NeinKopfNein_m.mp4","Ist der Ball in der grünen Box?","Green","Blue","J","negation","match","speech","no","HeadShake","male","gesture-speech","1920","1080","chrome","59.76","Mac OS","26","male","right","Thu Oct 10 2024 14:18:49 GMT+0200 (Central European Summer Time)","4","43","0","1728562894128"
"1378","j","SpeechGestureMatch","../RequiredFiles/videos/JaKopfJa_m.mp4","Ist der Ball in der blauen Box?","Blue","Green","F","affirmation","match","speech","yes","HeadNod","male","gesture-speech","1920","1080","chrome","59.76","Mac OS","26","male","right","Thu Oct 10 2024 14:18:56 GMT+0200 (Central European Summer Time)","4","44","1","1728562894128"
"5596","j","SpeechGestureMatch","../RequiredFiles/videos/NeinKopfJa_f.mp4","Ist der Ball in der grünen Box?","Green","Blue","J","negation","mismatch","speech","no","HeadNod","female","gesture-speech","1920","1080","chrome","59.76","Mac OS","26","male","right","Thu Oct 10 2024 14:19:07 GMT+0200 (Central European Summer Time)","4","45","0","1728562894128"
"1191","j","SpeechGestureMatch","../RequiredFiles/videos/NeinKopfJa_f.mp4","Ist der Ball in der grünen Box?","Green","Blue","J","negation","mismatch","speech","no","HeadNod","female","gesture-speech","1920","1080","chrome","59.76","Mac OS","26","male","right","Thu Oct 10 2024 14:19:14 GMT+0200 (Central European Summer Time)","4","46","0","1728562894128"
"484","j","SpeechGestureMatch","../RequiredFiles/videos/NeinKopfNein_m.mp4","Ist der Ball in der blauen Box?","Green","Blue","F","negation","match","speech","no","HeadShake","male","gesture-speech","1920","1080","chrome","59.76","Mac OS","26","male","right","Thu Oct 10 2024 14:19:20 GMT+0200 (Central European Summer Time)","4","47","1","1728562894128"
"1216","f","SpeechGestureMatch","../RequiredFiles/videos/JaKopfJa_f.mp4","Ist der Ball in der blauen Box?","Blue","Green","F","affirmation","match","speech","yes","HeadNod","female","gesture-speech","1920","1080","chrome","59.76","Mac OS","26","male","right","Thu Oct 10 2024 14:19:27 GMT+0200 (Central European Summer Time)","4","48","0","1728562894128"
"4519","j","SpeechGestureMatch","../RequiredFiles/videos/NeinKopfJa_f.mp4","Ist der Ball in der grünen Box?","Blue","Green","F","negation","mismatch","speech","no","HeadNod","female","gesture-speech","1920","1080","chrome","59.76","Mac OS","26","male","right","Thu Oct 10 2024 14:19:37 GMT+0200 (Central European Summer Time)","4","49","1","1728562894128"
"2356","f","SpeechGestureMatch","../RequiredFiles/videos/NeinKopfJa_m.mp4","Ist der Ball in der grünen Box?","Green","Blue","J","negation","mismatch","speech","no","HeadNod","male","gesture-speech","1920","1080","chrome","59.76","Mac OS","26","male","right","Thu Oct 10 2024 14:19:44 GMT+0200 (Central European Summer Time)","4","50","1","1728562894128"
"1216","j","SpeechGestureMatch","../RequiredFiles/videos/NeinKopfJa_m.mp4","Ist der Ball in der blauen Box?","Green","Blue","F","negation","mismatch","speech","no","HeadNod","male","gesture-speech","1920","1080","chrome","59.76","Mac OS","26","male","right","Thu Oct 10 2024 14:19:51 GMT+0200 (Central European Summer Time)","4","51","1","1728562894128"
"867","f","SpeechGestureMatch","../RequiredFiles/videos/JaKopfNein_m.mp4","Ist der Ball in der blauen Box?","Blue","Green","F","affirmation","mismatch","speech","yes","HeadShake","male","gesture-speech","1920","1080","chrome","59.76","Mac OS","26","male","right","Thu Oct 10 2024 14:19:58 GMT+0200 (Central European Summer Time)","4","52","0","1728562894128"
"1186","j","SpeechGestureMatch","../RequiredFiles/videos/JaKopfNein_m.mp4","Ist der Ball in der blauen Box?","Blue","Green","F","affirmation","mismatch","speech","yes","HeadShake","male","gesture-speech","1920","1080","chrome","59.76","Mac OS","26","male","right","Thu Oct 10 2024 14:20:04 GMT+0200 (Central European Summer Time)","4","53","1","1728562894128"
"869","f","SpeechGestureMatch","../RequiredFiles/videos/JaKopfJa_m.mp4","Ist der Ball in der grünen Box?","Blue","Green","J","affirmation","match","speech","yes","HeadNod","male","gesture-speech","1920","1080","chrome","59.76","Mac OS","26","male","right","Thu Oct 10 2024 14:20:11 GMT+0200 (Central European Summer Time)","4","54","1","1728562894128"
"901","f","SpeechGestureMatch","../RequiredFiles/videos/JaKopfJa_f.mp4","Ist der Ball in der grünen Box?","Green","Blue","F","affirmation","match","speech","yes","HeadNod","female","gesture-speech","1920","1080","chrome","59.76","Mac OS","26","male","right","Thu Oct 10 2024 14:20:17 GMT+0200 (Central European Summer Time)","4","55","0","1728562894128"
"1920","j","SpeechGestureMatch","../RequiredFiles/videos/NeinKopfNein_m.mp4","Ist der Ball in der grünen Box?","Blue","Green","F","negation","match","speech","no","HeadShake","male","gesture-speech","1920","1080","chrome","59.76","Mac OS","26","male","right","Thu Oct 10 2024 14:20:25 GMT+0200 (Central European Summer Time)","4","56","1","1728562894128"
"9904","j","SpeechGestureMatch","../RequiredFiles/videos/JaKopfNein_m.mp4","Ist der Ball in der grünen Box?","Green","Blue","F","affirmation","mismatch","speech","yes","HeadShake","male","gesture-speech","1920","1080","chrome","59.76","Mac OS","26","male","right","Thu Oct 10 2024 14:20:40 GMT+0200 (Central European Summer Time)","4","57","1","1728562894128"
"598","j","SpeechGestureMatch","../RequiredFiles/videos/JaKopfNein_m.mp4","Ist der Ball in der blauen Box?","Green","Blue","J","affirmation","mismatch","speech","yes","HeadShake","male","gesture-speech","1920","1080","chrome","59.76","Mac OS","26","male","right","Thu Oct 10 2024 14:20:46 GMT+0200 (Central European Summer Time)","4","58","0","1728562894128"
"1081","f","SpeechGestureMatch","../RequiredFiles/videos/NeinKopfNein_f.mp4","Ist der Ball in der grünen Box?","Green","Blue","J","negation","match","speech","no","HeadShake","female","gesture-speech","1920","1080","chrome","59.76","Mac OS","26","male","right","Thu Oct 10 2024 14:20:53 GMT+0200 (Central European Summer Time)","4","59","1","1728562894128"
"665","j","SpeechGestureMatch","../RequiredFiles/videos/NeinKopfNein_f.mp4","Ist der Ball in der blauen Box?","Green","Blue","F","negation","match","speech","no","HeadShake","female","gesture-speech","1920","1080","chrome","59.76","Mac OS","26","male","right","Thu Oct 10 2024 14:20:59 GMT+0200 (Central European Summer Time)","4","60","1","1728562894128"
"3482","j","SpeechGestureMatch","../RequiredFiles/videos/JaKopfNein_m.mp4","Ist der Ball in der grünen Box?","Blue","Green","J","affirmation","mismatch","speech","yes","HeadShake","male","gesture-speech","1920","1080","chrome","59.76","Mac OS","26","male","right","Thu Oct 10 2024 14:21:08 GMT+0200 (Central European Summer Time)","4","61","0","1728562894128"
"3088","f","SpeechGestureMatch","../RequiredFiles/videos/JaKopfNein_f.mp4","Ist der Ball in der blauen Box?","Green","Blue","J","affirmation","mismatch","speech","yes","HeadShake","female","gesture-speech","1920","1080","chrome","59.76","Mac OS","26","male","right","Thu Oct 10 2024 14:21:16 GMT+0200 (Central European Summer Time)","4","62","1","1728562894128"
"643","j","SpeechGestureMatch","../RequiredFiles/videos/NeinKopfJa_f.mp4","Ist der Ball in der grünen Box?","Blue","Green","F","negation","mismatch","speech","no","HeadNod","female","gesture-speech","1920","1080","chrome","59.76","Mac OS","26","male","right","Thu Oct 10 2024 14:21:23 GMT+0200 (Central European Summer Time)","4","63","1","1728562894128"
"1634","f","SpeechGestureMatch","../RequiredFiles/videos/JaKopfNein_f.mp4","Ist der Ball in der blauen Box?","Blue","Green","F","affirmation","mismatch","speech","yes","HeadShake","female","gesture-speech","1920","1080","chrome","59.76","Mac OS","26","male","right","Thu Oct 10 2024 14:21:30 GMT+0200 (Central European Summer Time)","4","64","0","1728562894128"
