"rt","response","stim","video","question","box_colour_left","box_colour_right","correct_key","polarity","matching","modality","verbal","gesture","speaker","order","width","height","browser","vsync_rate","os","age","gender","handedness","date","blockNum","trialNum","error","vpNum"
"1354","j","SpeechGestureMatch","../RequiredFiles/videos/JaDaumenhoch_m.mp4","Ist der Ball in der blauen Box?","Blue","Green","F","affirmation","match","speech","yes","ThumbUp","male","speech-gesture","2752","1720","firefox","61.04","Linux","26","male","right","Fri Oct 11 2024 14:02:32 GMT+0200 (Central European Summer Time)","1","1","1","1728652568888"
"1148","f","SpeechGestureMatch","../RequiredFiles/videos/JaDaumenrunter_f_no_gesture.mp4","Ist der Ball in der blauen Box?","Green","Blue","J","affirmation","na","speech","yes","na","female","speech-gesture","2752","1720","firefox","61.04","Linux","26","male","right","Fri Oct 11 2024 14:02:39 GMT+0200 (Central European Summer Time)","1","2","1","1728652568888"
"1594","f","SpeechGestureMatch","../RequiredFiles/videos/JaDaumenhoch_f_no_gesture.mp4","Ist der Ball in der grünen Box?","Green","Blue","F","affirmation","na","speech","yes","na","female","speech-gesture","2752","1720","firefox","61.04","Linux","26","male","right","Fri Oct 11 2024 14:02:46 GMT+0200 (Central European Summer Time)","1","3","0","1728652568888"
"1068","f","SpeechGestureMatch","../RequiredFiles/videos/NeinDaumenrunter_m.mp4","Ist der Ball in der blauen Box?","Green","Blue","F","negation","match","speech","no","ThumbDown","male","speech-gesture","2752","1720","firefox","61.04","Linux","26","male","right","Fri Oct 11 2024 14:02:53 GMT+0200 (Central European Summer Time)","1","4","0","1728652568888"
"1359","j","SpeechGestureMatch","../RequiredFiles/videos/NeinDaumenhoch_m.mp4","Ist der Ball in der grünen Box?","Blue","Green","F","negation","mismatch","speech","no","ThumbUp","male","speech-gesture","2752","1720","firefox","61.04","Linux","26","male","right","Fri Oct 11 2024 14:03:00 GMT+0200 (Central European Summer Time)","1","5","1","1728652568888"
"1378","f","SpeechGestureMatch","../RequiredFiles/videos/JaDaumenhoch_f.mp4","Ist der Ball in der grünen Box?","Green","Blue","F","affirmation","match","speech","yes","ThumbUp","female","speech-gesture","2752","1720","firefox","61.04","Linux","26","male","right","Fri Oct 11 2024 14:03:07 GMT+0200 (Central European Summer Time)","1","6","0","1728652568888"
"741","j","SpeechGestureMatch","../RequiredFiles/videos/JaDaumenhoch_f.mp4","Ist der Ball in der blauen Box?","Green","Blue","J","affirmation","match","speech","yes","ThumbUp","female","speech-gesture","2752","1720","firefox","61.04","Linux","26","male","right","Fri Oct 11 2024 14:03:13 GMT+0200 (Central European Summer Time)","1","7","0","1728652568888"
"984","j","SpeechGestureMatch","../RequiredFiles/videos/NeinDaumenhoch_m.mp4","Ist der Ball in der grünen Box?","Green","Blue","J","negation","mismatch","speech","no","ThumbUp","male","speech-gesture","2752","1720","firefox","61.04","Linux","26","male","right","Fri Oct 11 2024 14:03:19 GMT+0200 (Central European Summer Time)","1","8","0","1728652568888"
"1412","f","SpeechGestureMatch","../RequiredFiles/videos/NeinDaumenhoch_f.mp4","Ist der Ball in der blauen Box?","Blue","Green","J","negation","mismatch","speech","no","ThumbUp","female","speech-gesture","2752","1720","firefox","61.04","Linux","26","male","right","Fri Oct 11 2024 14:03:26 GMT+0200 (Central European Summer Time)","1","9","1","1728652568888"
"1457","f","SpeechGestureMatch","../RequiredFiles/videos/NeinDaumenhoch_m.mp4","Ist der Ball in der blauen Box?","Blue","Green","J","negation","mismatch","speech","no","ThumbUp","male","speech-gesture","2752","1720","firefox","61.04","Linux","26","male","right","Fri Oct 11 2024 14:03:33 GMT+0200 (Central European Summer Time)","1","10","1","1728652568888"
"1191","j","SpeechGestureMatch","../RequiredFiles/videos/JaDaumenrunter_m.mp4","Ist der Ball in der grünen Box?","Blue","Green","J","affirmation","mismatch","speech","yes","ThumbDown","male","speech-gesture","2752","1720","firefox","61.04","Linux","26","male","right","Fri Oct 11 2024 14:03:40 GMT+0200 (Central European Summer Time)","1","11","0","1728652568888"
"1050","f","SpeechGestureMatch","../RequiredFiles/videos/JaDaumenhoch_f_no_gesture.mp4","Ist der Ball in der blauen Box?","Green","Blue","J","affirmation","na","speech","yes","na","female","speech-gesture","2752","1720","firefox","61.04","Linux","26","male","right","Fri Oct 11 2024 14:03:47 GMT+0200 (Central European Summer Time)","1","12","1","1728652568888"
"1156","f","SpeechGestureMatch","../RequiredFiles/videos/JaDaumenrunter_m_no_gesture.mp4","Ist der Ball in der blauen Box?","Blue","Green","F","affirmation","na","speech","yes","na","male","speech-gesture","2752","1720","firefox","61.04","Linux","26","male","right","Fri Oct 11 2024 14:03:54 GMT+0200 (Central European Summer Time)","1","13","0","1728652568888"
"958","f","SpeechGestureMatch","../RequiredFiles/videos/NeinDaumenhoch_m.mp4","Ist der Ball in der blauen Box?","Blue","Green","J","negation","mismatch","speech","no","ThumbUp","male","speech-gesture","2752","1720","firefox","61.04","Linux","26","male","right","Fri Oct 11 2024 14:04:01 GMT+0200 (Central European Summer Time)","1","14","1","1728652568888"
"1021","j","SpeechGestureMatch","../RequiredFiles/videos/JaDaumenrunter_f_no_gesture.mp4","Ist der Ball in der grünen Box?","Green","Blue","F","affirmation","na","speech","yes","na","female","speech-gesture","2752","1720","firefox","61.04","Linux","26","male","right","Fri Oct 11 2024 14:04:08 GMT+0200 (Central European Summer Time)","1","15","1","1728652568888"
"1432","j","SpeechGestureMatch","../RequiredFiles/videos/JaDaumenrunter_m_no_gesture.mp4","Ist der Ball in der grünen Box?","Blue","Green","J","affirmation","na","speech","yes","na","male","speech-gesture","2752","1720","firefox","61.04","Linux","26","male","right","Fri Oct 11 2024 14:04:15 GMT+0200 (Central European Summer Time)","1","16","0","1728652568888"
"1348","j","SpeechGestureMatch","../RequiredFiles/videos/NeinDaumenrunter_m_no_gesture.mp4","Ist der Ball in der blauen Box?","Blue","Green","J","negation","na","speech","no","na","male","speech-gesture","2752","1720","firefox","61.04","Linux","26","male","right","Fri Oct 11 2024 14:04:22 GMT+0200 (Central European Summer Time)","1","17","0","1728652568888"
"1563","f","SpeechGestureMatch","../RequiredFiles/videos/NeinDaumenhoch_f_no_gesture.mp4","Ist der Ball in der blauen Box?","Green","Blue","F","negation","na","speech","no","na","female","speech-gesture","2752","1720","firefox","61.04","Linux","26","male","right","Fri Oct 11 2024 14:04:29 GMT+0200 (Central European Summer Time)","1","18","0","1728652568888"
"1138","f","SpeechGestureMatch","../RequiredFiles/videos/NeinDaumenrunter_m.mp4","Ist der Ball in der grünen Box?","Blue","Green","F","negation","match","speech","no","ThumbDown","male","speech-gesture","2752","1720","firefox","61.04","Linux","26","male","right","Fri Oct 11 2024 14:04:35 GMT+0200 (Central European Summer Time)","1","19","0","1728652568888"
"1169","j","SpeechGestureMatch","../RequiredFiles/videos/NeinDaumenrunter_f.mp4","Ist der Ball in der blauen Box?","Green","Blue","F","negation","match","speech","no","ThumbDown","female","speech-gesture","2752","1720","firefox","61.04","Linux","26","male","right","Fri Oct 11 2024 14:04:42 GMT+0200 (Central European Summer Time)","1","20","1","1728652568888"
"1145","j","SpeechGestureMatch","../RequiredFiles/videos/JaDaumenrunter_m.mp4","Ist der Ball in der grünen Box?","Blue","Green","J","affirmation","mismatch","speech","yes","ThumbDown","male","speech-gesture","2752","1720","firefox","61.04","Linux","26","male","right","Fri Oct 11 2024 14:04:49 GMT+0200 (Central European Summer Time)","1","21","0","1728652568888"
"914","j","SpeechGestureMatch","../RequiredFiles/videos/JaDaumenhoch_m.mp4","Ist der Ball in der grünen Box?","Green","Blue","F","affirmation","match","speech","yes","ThumbUp","male","speech-gesture","2752","1720","firefox","61.04","Linux","26","male","right","Fri Oct 11 2024 14:04:55 GMT+0200 (Central European Summer Time)","1","22","1","1728652568888"
"1608","f","SpeechGestureMatch","../RequiredFiles/videos/JaDaumenhoch_f.mp4","Ist der Ball in der grünen Box?","Blue","Green","J","affirmation","match","speech","yes","ThumbUp","female","speech-gesture","2752","1720","firefox","61.04","Linux","26","male","right","Fri Oct 11 2024 14:05:02 GMT+0200 (Central European Summer Time)","1","23","1","1728652568888"
"967","j","SpeechGestureMatch","../RequiredFiles/videos/JaDaumenhoch_m.mp4","Ist der Ball in der blauen Box?","Green","Blue","J","affirmation","match","speech","yes","ThumbUp","male","speech-gesture","2752","1720","firefox","61.04","Linux","26","male","right","Fri Oct 11 2024 14:05:09 GMT+0200 (Central European Summer Time)","1","24","0","1728652568888"
"1445","f","SpeechGestureMatch","../RequiredFiles/videos/NeinDaumenhoch_f.mp4","Ist der Ball in der blauen Box?","Green","Blue","F","negation","mismatch","speech","no","ThumbUp","female","speech-gesture","2752","1720","firefox","61.04","Linux","26","male","right","Fri Oct 11 2024 14:05:16 GMT+0200 (Central European Summer Time)","1","25","0","1728652568888"
"995","f","SpeechGestureMatch","../RequiredFiles/videos/JaDaumenhoch_m.mp4","Ist der Ball in der grünen Box?","Green","Blue","F","affirmation","match","speech","yes","ThumbUp","male","speech-gesture","2752","1720","firefox","61.04","Linux","26","male","right","Fri Oct 11 2024 14:05:22 GMT+0200 (Central European Summer Time)","1","26","0","1728652568888"
"1421","f","SpeechGestureMatch","../RequiredFiles/videos/JaDaumenrunter_m.mp4","Ist der Ball in der grünen Box?","Green","Blue","F","affirmation","mismatch","speech","yes","ThumbDown","male","speech-gesture","2752","1720","firefox","61.04","Linux","26","male","right","Fri Oct 11 2024 14:05:29 GMT+0200 (Central European Summer Time)","1","27","0","1728652568888"
"1457","j","SpeechGestureMatch","../RequiredFiles/videos/NeinDaumenhoch_m_no_gesture.mp4","Ist der Ball in der grünen Box?","Green","Blue","J","negation","na","speech","no","na","male","speech-gesture","2752","1720","firefox","61.04","Linux","26","male","right","Fri Oct 11 2024 14:05:36 GMT+0200 (Central European Summer Time)","1","28","0","1728652568888"
"1311","f","SpeechGestureMatch","../RequiredFiles/videos/JaDaumenhoch_f_no_gesture.mp4","Ist der Ball in der blauen Box?","Blue","Green","F","affirmation","na","speech","yes","na","female","speech-gesture","2752","1720","firefox","61.04","Linux","26","male","right","Fri Oct 11 2024 14:05:43 GMT+0200 (Central European Summer Time)","1","29","0","1728652568888"
"1071","f","SpeechGestureMatch","../RequiredFiles/videos/JaDaumenhoch_f.mp4","Ist der Ball in der blauen Box?","Blue","Green","F","affirmation","match","speech","yes","ThumbUp","female","speech-gesture","2752","1720","firefox","61.04","Linux","26","male","right","Fri Oct 11 2024 14:05:50 GMT+0200 (Central European Summer Time)","1","30","0","1728652568888"
"1357","j","SpeechGestureMatch","../RequiredFiles/videos/JaDaumenrunter_f.mp4","Ist der Ball in der blauen Box?","Green","Blue","J","affirmation","mismatch","speech","yes","ThumbDown","female","speech-gesture","2752","1720","firefox","61.04","Linux","26","male","right","Fri Oct 11 2024 14:05:57 GMT+0200 (Central European Summer Time)","1","31","0","1728652568888"
"1316","j","SpeechGestureMatch","../RequiredFiles/videos/JaDaumenrunter_f.mp4","Ist der Ball in der grünen Box?","Green","Blue","F","affirmation","mismatch","speech","yes","ThumbDown","female","speech-gesture","2752","1720","firefox","61.04","Linux","26","male","right","Fri Oct 11 2024 14:06:04 GMT+0200 (Central European Summer Time)","1","32","1","1728652568888"
"921","f","SpeechGestureMatch","../RequiredFiles/videos/JaDaumenhoch_m_no_gesture.mp4","Ist der Ball in der grünen Box?","Green","Blue","F","affirmation","na","speech","yes","na","male","speech-gesture","2752","1720","firefox","61.04","Linux","26","male","right","Fri Oct 11 2024 14:06:10 GMT+0200 (Central European Summer Time)","1","33","0","1728652568888"
"1040","j","SpeechGestureMatch","../RequiredFiles/videos/JaDaumenrunter_m.mp4","Ist der Ball in der blauen Box?","Blue","Green","F","affirmation","mismatch","speech","yes","ThumbDown","male","speech-gesture","2752","1720","firefox","61.04","Linux","26","male","right","Fri Oct 11 2024 14:06:17 GMT+0200 (Central European Summer Time)","1","34","1","1728652568888"
"1010","f","SpeechGestureMatch","../RequiredFiles/videos/NeinDaumenrunter_m_no_gesture.mp4","Ist der Ball in der grünen Box?","Green","Blue","J","negation","na","speech","no","na","male","speech-gesture","2752","1720","firefox","61.04","Linux","26","male","right","Fri Oct 11 2024 14:06:23 GMT+0200 (Central European Summer Time)","1","35","1","1728652568888"
"1551","j","SpeechGestureMatch","../RequiredFiles/videos/NeinDaumenhoch_f_no_gesture.mp4","Ist der Ball in der grünen Box?","Green","Blue","J","negation","na","speech","no","na","female","speech-gesture","2752","1720","firefox","61.04","Linux","26","male","right","Fri Oct 11 2024 14:06:30 GMT+0200 (Central European Summer Time)","1","36","0","1728652568888"
"1294","j","SpeechGestureMatch","../RequiredFiles/videos/NeinDaumenrunter_f_no_gesture.mp4","Ist der Ball in der blauen Box?","Blue","Green","J","negation","na","speech","no","na","female","speech-gesture","2752","1720","firefox","61.04","Linux","26","male","right","Fri Oct 11 2024 14:06:37 GMT+0200 (Central European Summer Time)","1","37","0","1728652568888"
"1278","j","SpeechGestureMatch","../RequiredFiles/videos/NeinDaumenrunter_m.mp4","Ist der Ball in der grünen Box?","Green","Blue","J","negation","match","speech","no","ThumbDown","male","speech-gesture","2752","1720","firefox","61.04","Linux","26","male","right","Fri Oct 11 2024 14:06:44 GMT+0200 (Central European Summer Time)","1","38","0","1728652568888"
"1505","f","SpeechGestureMatch","../RequiredFiles/videos/JaDaumenhoch_m_no_gesture.mp4","Ist der Ball in der grünen Box?","Blue","Green","J","affirmation","na","speech","yes","na","male","speech-gesture","2752","1720","firefox","61.04","Linux","26","male","right","Fri Oct 11 2024 14:06:51 GMT+0200 (Central European Summer Time)","1","39","1","1728652568888"
"1455","f","SpeechGestureMatch","../RequiredFiles/videos/JaDaumenrunter_m_no_gesture.mp4","Ist der Ball in der grünen Box?","Green","Blue","F","affirmation","na","speech","yes","na","male","speech-gesture","2752","1720","firefox","61.04","Linux","26","male","right","Fri Oct 11 2024 14:06:58 GMT+0200 (Central European Summer Time)","1","40","0","1728652568888"
"1276","f","SpeechGestureMatch","../RequiredFiles/videos/JaDaumenhoch_m.mp4","Ist der Ball in der blauen Box?","Blue","Green","F","affirmation","match","speech","yes","ThumbUp","male","speech-gesture","2752","1720","firefox","61.04","Linux","26","male","right","Fri Oct 11 2024 14:07:05 GMT+0200 (Central European Summer Time)","1","41","0","1728652568888"
"2327","j","SpeechGestureMatch","../RequiredFiles/videos/JaDaumenhoch_m_no_gesture.mp4","Ist der Ball in der blauen Box?","Green","Blue","J","affirmation","na","speech","yes","na","male","speech-gesture","2752","1720","firefox","61.04","Linux","26","male","right","Fri Oct 11 2024 14:07:13 GMT+0200 (Central European Summer Time)","1","42","0","1728652568888"
"1097","j","SpeechGestureMatch","../RequiredFiles/videos/JaDaumenrunter_m.mp4","Ist der Ball in der blauen Box?","Green","Blue","J","affirmation","mismatch","speech","yes","ThumbDown","male","speech-gesture","2752","1720","firefox","61.04","Linux","26","male","right","Fri Oct 11 2024 14:07:19 GMT+0200 (Central European Summer Time)","1","43","0","1728652568888"
"1200","j","SpeechGestureMatch","../RequiredFiles/videos/JaDaumenrunter_f.mp4","Ist der Ball in der grünen Box?","Blue","Green","J","affirmation","mismatch","speech","yes","ThumbDown","female","speech-gesture","2752","1720","firefox","61.04","Linux","26","male","right","Fri Oct 11 2024 14:07:26 GMT+0200 (Central European Summer Time)","1","44","0","1728652568888"
"929","j","SpeechGestureMatch","../RequiredFiles/videos/JaDaumenrunter_f.mp4","Ist der Ball in der blauen Box?","Green","Blue","J","affirmation","mismatch","speech","yes","ThumbDown","female","speech-gesture","2752","1720","firefox","61.04","Linux","26","male","right","Fri Oct 11 2024 14:07:32 GMT+0200 (Central European Summer Time)","1","45","0","1728652568888"
"984","f","SpeechGestureMatch","../RequiredFiles/videos/NeinDaumenhoch_f.mp4","Ist der Ball in der grünen Box?","Green","Blue","J","negation","mismatch","speech","no","ThumbUp","female","speech-gesture","2752","1720","firefox","61.04","Linux","26","male","right","Fri Oct 11 2024 14:07:39 GMT+0200 (Central European Summer Time)","1","46","1","1728652568888"
"1466","f","SpeechGestureMatch","../RequiredFiles/videos/NeinDaumenrunter_m.mp4","Ist der Ball in der grünen Box?","Blue","Green","F","negation","match","speech","no","ThumbDown","male","speech-gesture","2752","1720","firefox","61.04","Linux","26","male","right","Fri Oct 11 2024 14:07:46 GMT+0200 (Central European Summer Time)","1","47","0","1728652568888"
"1346","j","SpeechGestureMatch","../RequiredFiles/videos/NeinDaumenrunter_f.mp4","Ist der Ball in der blauen Box?","Blue","Green","J","negation","match","speech","no","ThumbDown","female","speech-gesture","2752","1720","firefox","61.04","Linux","26","male","right","Fri Oct 11 2024 14:07:53 GMT+0200 (Central European Summer Time)","1","48","0","1728652568888"
"2048","f","SpeechGestureMatch","../RequiredFiles/videos/NeinDaumenrunter_f.mp4","Ist der Ball in der grünen Box?","Green","Blue","J","negation","match","speech","no","ThumbDown","female","speech-gesture","2752","1720","firefox","61.04","Linux","26","male","right","Fri Oct 11 2024 14:08:01 GMT+0200 (Central European Summer Time)","1","49","1","1728652568888"
"2598","j","SpeechGestureMatch","../RequiredFiles/videos/JaDaumenhoch_f.mp4","Ist der Ball in der grünen Box?","Green","Blue","F","affirmation","match","speech","yes","ThumbUp","female","speech-gesture","2752","1720","firefox","61.04","Linux","26","male","right","Fri Oct 11 2024 14:08:09 GMT+0200 (Central European Summer Time)","1","50","1","1728652568888"
"1928","f","SpeechGestureMatch","../RequiredFiles/videos/NeinDaumenrunter_m.mp4","Ist der Ball in der blauen Box?","Blue","Green","J","negation","match","speech","no","ThumbDown","male","speech-gesture","2752","1720","firefox","61.04","Linux","26","male","right","Fri Oct 11 2024 14:08:16 GMT+0200 (Central European Summer Time)","1","51","1","1728652568888"
"914","j","SpeechGestureMatch","../RequiredFiles/videos/NeinDaumenhoch_f_no_gesture.mp4","Ist der Ball in der grünen Box?","Blue","Green","F","negation","na","speech","no","na","female","speech-gesture","2752","1720","firefox","61.04","Linux","26","male","right","Fri Oct 11 2024 14:08:23 GMT+0200 (Central European Summer Time)","1","52","1","1728652568888"
"1208","j","SpeechGestureMatch","../RequiredFiles/videos/JaDaumenhoch_f.mp4","Ist der Ball in der blauen Box?","Green","Blue","J","affirmation","match","speech","yes","ThumbUp","female","speech-gesture","2752","1720","firefox","61.04","Linux","26","male","right","Fri Oct 11 2024 14:08:30 GMT+0200 (Central European Summer Time)","1","53","0","1728652568888"
"1287","f","SpeechGestureMatch","../RequiredFiles/videos/JaDaumenhoch_f.mp4","Ist der Ball in der blauen Box?","Blue","Green","F","affirmation","match","speech","yes","ThumbUp","female","speech-gesture","2752","1720","firefox","61.04","Linux","26","male","right","Fri Oct 11 2024 14:08:36 GMT+0200 (Central European Summer Time)","1","54","0","1728652568888"
"1014","j","SpeechGestureMatch","../RequiredFiles/videos/NeinDaumenhoch_f.mp4","Ist der Ball in der blauen Box?","Green","Blue","F","negation","mismatch","speech","no","ThumbUp","female","speech-gesture","2752","1720","firefox","61.04","Linux","26","male","right","Fri Oct 11 2024 14:08:43 GMT+0200 (Central European Summer Time)","1","55","1","1728652568888"
"985","j","SpeechGestureMatch","../RequiredFiles/videos/JaDaumenhoch_m.mp4","Ist der Ball in der grünen Box?","Blue","Green","J","affirmation","match","speech","yes","ThumbUp","male","speech-gesture","2752","1720","firefox","61.04","Linux","26","male","right","Fri Oct 11 2024 14:08:49 GMT+0200 (Central European Summer Time)","1","56","0","1728652568888"
"1707","f","SpeechGestureMatch","../RequiredFiles/videos/NeinDaumenrunter_f.mp4","Ist der Ball in der blauen Box?","Green","Blue","F","negation","match","speech","no","ThumbDown","female","speech-gesture","2752","1720","firefox","61.04","Linux","26","male","right","Fri Oct 11 2024 14:08:57 GMT+0200 (Central European Summer Time)","1","57","0","1728652568888"
"1463","f","SpeechGestureMatch","../RequiredFiles/videos/JaDaumenrunter_f.mp4","Ist der Ball in der blauen Box?","Blue","Green","F","affirmation","mismatch","speech","yes","ThumbDown","female","speech-gesture","2752","1720","firefox","61.04","Linux","26","male","right","Fri Oct 11 2024 14:09:04 GMT+0200 (Central European Summer Time)","1","58","0","1728652568888"
"1553","f","SpeechGestureMatch","../RequiredFiles/videos/NeinDaumenrunter_m.mp4","Ist der Ball in der blauen Box?","Blue","Green","J","negation","match","speech","no","ThumbDown","male","speech-gesture","2752","1720","firefox","61.04","Linux","26","male","right","Fri Oct 11 2024 14:09:11 GMT+0200 (Central European Summer Time)","1","59","1","1728652568888"
"1279","j","SpeechGestureMatch","../RequiredFiles/videos/NeinDaumenhoch_f.mp4","Ist der Ball in der grünen Box?","Green","Blue","J","negation","mismatch","speech","no","ThumbUp","female","speech-gesture","2752","1720","firefox","61.04","Linux","26","male","right","Fri Oct 11 2024 14:09:17 GMT+0200 (Central European Summer Time)","1","60","0","1728652568888"
"959","f","SpeechGestureMatch","../RequiredFiles/videos/NeinDaumenhoch_m_no_gesture.mp4","Ist der Ball in der blauen Box?","Blue","Green","J","negation","na","speech","no","na","male","speech-gesture","2752","1720","firefox","61.04","Linux","26","male","right","Fri Oct 11 2024 14:09:24 GMT+0200 (Central European Summer Time)","1","61","1","1728652568888"
"1029","j","SpeechGestureMatch","../RequiredFiles/videos/NeinDaumenhoch_f.mp4","Ist der Ball in der grünen Box?","Blue","Green","F","negation","mismatch","speech","no","ThumbUp","female","speech-gesture","2752","1720","firefox","61.04","Linux","26","male","right","Fri Oct 11 2024 14:09:31 GMT+0200 (Central European Summer Time)","1","62","1","1728652568888"
"937","j","SpeechGestureMatch","../RequiredFiles/videos/NeinDaumenhoch_f.mp4","Ist der Ball in der grünen Box?","Blue","Green","F","negation","mismatch","speech","no","ThumbUp","female","speech-gesture","2752","1720","firefox","61.04","Linux","26","male","right","Fri Oct 11 2024 14:09:37 GMT+0200 (Central European Summer Time)","1","63","1","1728652568888"
"1405","j","SpeechGestureMatch","../RequiredFiles/videos/NeinDaumenhoch_m_no_gesture.mp4","Ist der Ball in der blauen Box?","Green","Blue","F","negation","na","speech","no","na","male","speech-gesture","2752","1720","firefox","61.04","Linux","26","male","right","Fri Oct 11 2024 14:09:44 GMT+0200 (Central European Summer Time)","1","64","1","1728652568888"
"1287","f","SpeechGestureMatch","../RequiredFiles/videos/NeinDaumenrunter_f.mp4","Ist der Ball in der grünen Box?","Blue","Green","F","negation","match","speech","no","ThumbDown","female","speech-gesture","2752","1720","firefox","61.04","Linux","26","male","right","Fri Oct 11 2024 14:09:51 GMT+0200 (Central European Summer Time)","1","65","0","1728652568888"
"894","j","SpeechGestureMatch","../RequiredFiles/videos/NeinDaumenhoch_f_no_gesture.mp4","Ist der Ball in der blauen Box?","Blue","Green","J","negation","na","speech","no","na","female","speech-gesture","2752","1720","firefox","61.04","Linux","26","male","right","Fri Oct 11 2024 14:09:57 GMT+0200 (Central European Summer Time)","1","66","0","1728652568888"
"2445","j","SpeechGestureMatch","../RequiredFiles/videos/NeinDaumenrunter_f_no_gesture.mp4","Ist der Ball in der grünen Box?","Blue","Green","F","negation","na","speech","no","na","female","speech-gesture","2752","1720","firefox","61.04","Linux","26","male","right","Fri Oct 11 2024 14:10:06 GMT+0200 (Central European Summer Time)","1","67","1","1728652568888"
"851","f","SpeechGestureMatch","../RequiredFiles/videos/NeinDaumenrunter_f.mp4","Ist der Ball in der blauen Box?","Blue","Green","J","negation","match","speech","no","ThumbDown","female","speech-gesture","2752","1720","firefox","61.04","Linux","26","male","right","Fri Oct 11 2024 14:10:12 GMT+0200 (Central European Summer Time)","1","68","1","1728652568888"
"1319","f","SpeechGestureMatch","../RequiredFiles/videos/JaDaumenrunter_m.mp4","Ist der Ball in der grünen Box?","Green","Blue","F","affirmation","mismatch","speech","yes","ThumbDown","male","speech-gesture","2752","1720","firefox","61.04","Linux","26","male","right","Fri Oct 11 2024 14:10:19 GMT+0200 (Central European Summer Time)","1","69","0","1728652568888"
"977","f","SpeechGestureMatch","../RequiredFiles/videos/NeinDaumenrunter_m.mp4","Ist der Ball in der grünen Box?","Green","Blue","J","negation","match","speech","no","ThumbDown","male","speech-gesture","2752","1720","firefox","61.04","Linux","26","male","right","Fri Oct 11 2024 14:10:25 GMT+0200 (Central European Summer Time)","1","70","1","1728652568888"
"1526","f","SpeechGestureMatch","../RequiredFiles/videos/JaDaumenrunter_m.mp4","Ist der Ball in der blauen Box?","Blue","Green","F","affirmation","mismatch","speech","yes","ThumbDown","male","speech-gesture","2752","1720","firefox","61.04","Linux","26","male","right","Fri Oct 11 2024 14:10:32 GMT+0200 (Central European Summer Time)","1","71","0","1728652568888"
"806","j","SpeechGestureMatch","../RequiredFiles/videos/NeinDaumenhoch_m_no_gesture.mp4","Ist der Ball in der grünen Box?","Blue","Green","F","negation","na","speech","no","na","male","speech-gesture","2752","1720","firefox","61.04","Linux","26","male","right","Fri Oct 11 2024 14:10:39 GMT+0200 (Central European Summer Time)","1","72","1","1728652568888"
"941","f","SpeechGestureMatch","../RequiredFiles/videos/NeinDaumenhoch_m.mp4","Ist der Ball in der blauen Box?","Green","Blue","F","negation","mismatch","speech","no","ThumbUp","male","speech-gesture","2752","1720","firefox","61.04","Linux","26","male","right","Fri Oct 11 2024 14:10:45 GMT+0200 (Central European Summer Time)","1","73","0","1728652568888"
"876","f","SpeechGestureMatch","../RequiredFiles/videos/JaDaumenrunter_m.mp4","Ist der Ball in der blauen Box?","Green","Blue","J","affirmation","mismatch","speech","yes","ThumbDown","male","speech-gesture","2752","1720","firefox","61.04","Linux","26","male","right","Fri Oct 11 2024 14:10:52 GMT+0200 (Central European Summer Time)","1","74","1","1728652568888"
"1536","j","SpeechGestureMatch","../RequiredFiles/videos/NeinDaumenrunter_f.mp4","Ist der Ball in der grünen Box?","Blue","Green","F","negation","match","speech","no","ThumbDown","female","speech-gesture","2752","1720","firefox","61.04","Linux","26","male","right","Fri Oct 11 2024 14:10:59 GMT+0200 (Central European Summer Time)","1","75","1","1728652568888"
"984","f","SpeechGestureMatch","../RequiredFiles/videos/NeinDaumenrunter_f.mp4","Ist der Ball in der grünen Box?","Green","Blue","J","negation","match","speech","no","ThumbDown","female","speech-gesture","2752","1720","firefox","61.04","Linux","26","male","right","Fri Oct 11 2024 14:11:05 GMT+0200 (Central European Summer Time)","1","76","1","1728652568888"
"2205","f","SpeechGestureMatch","../RequiredFiles/videos/JaDaumenhoch_f.mp4","Ist der Ball in der grünen Box?","Blue","Green","J","affirmation","match","speech","yes","ThumbUp","female","speech-gesture","2752","1720","firefox","61.04","Linux","26","male","right","Fri Oct 11 2024 14:11:13 GMT+0200 (Central European Summer Time)","1","77","1","1728652568888"
"712","j","SpeechGestureMatch","../RequiredFiles/videos/JaDaumenhoch_f_no_gesture.mp4","Ist der Ball in der grünen Box?","Blue","Green","J","affirmation","na","speech","yes","na","female","speech-gesture","2752","1720","firefox","61.04","Linux","26","male","right","Fri Oct 11 2024 14:11:19 GMT+0200 (Central European Summer Time)","1","78","0","1728652568888"
"1500","j","SpeechGestureMatch","../RequiredFiles/videos/JaDaumenrunter_f.mp4","Ist der Ball in der grünen Box?","Blue","Green","J","affirmation","mismatch","speech","yes","ThumbDown","female","speech-gesture","2752","1720","firefox","61.04","Linux","26","male","right","Fri Oct 11 2024 14:11:26 GMT+0200 (Central European Summer Time)","1","79","0","1728652568888"
"1033","f","SpeechGestureMatch","../RequiredFiles/videos/JaDaumenhoch_m_no_gesture.mp4","Ist der Ball in der blauen Box?","Blue","Green","F","affirmation","na","speech","yes","na","male","speech-gesture","2752","1720","firefox","61.04","Linux","26","male","right","Fri Oct 11 2024 14:11:33 GMT+0200 (Central European Summer Time)","1","80","0","1728652568888"
"809","f","SpeechGestureMatch","../RequiredFiles/videos/NeinDaumenhoch_m.mp4","Ist der Ball in der blauen Box?","Green","Blue","F","negation","mismatch","speech","no","ThumbUp","male","speech-gesture","2752","1720","firefox","61.04","Linux","26","male","right","Fri Oct 11 2024 14:11:39 GMT+0200 (Central European Summer Time)","1","81","0","1728652568888"
"1080","f","SpeechGestureMatch","../RequiredFiles/videos/NeinDaumenrunter_f_no_gesture.mp4","Ist der Ball in der blauen Box?","Green","Blue","F","negation","na","speech","no","na","female","speech-gesture","2752","1720","firefox","61.04","Linux","26","male","right","Fri Oct 11 2024 14:11:46 GMT+0200 (Central European Summer Time)","1","82","0","1728652568888"
"947","f","SpeechGestureMatch","../RequiredFiles/videos/JaDaumenhoch_m.mp4","Ist der Ball in der blauen Box?","Green","Blue","J","affirmation","match","speech","yes","ThumbUp","male","speech-gesture","2752","1720","firefox","61.04","Linux","26","male","right","Fri Oct 11 2024 14:11:52 GMT+0200 (Central European Summer Time)","1","83","1","1728652568888"
"1003","j","SpeechGestureMatch","../RequiredFiles/videos/NeinDaumenrunter_m_no_gesture.mp4","Ist der Ball in der blauen Box?","Green","Blue","F","negation","na","speech","no","na","male","speech-gesture","2752","1720","firefox","61.04","Linux","26","male","right","Fri Oct 11 2024 14:11:59 GMT+0200 (Central European Summer Time)","1","84","1","1728652568888"
"1108","f","SpeechGestureMatch","../RequiredFiles/videos/JaDaumenrunter_f.mp4","Ist der Ball in der grünen Box?","Green","Blue","F","affirmation","mismatch","speech","yes","ThumbDown","female","speech-gesture","2752","1720","firefox","61.04","Linux","26","male","right","Fri Oct 11 2024 14:12:05 GMT+0200 (Central European Summer Time)","1","85","0","1728652568888"
"1221","j","SpeechGestureMatch","../RequiredFiles/videos/JaDaumenrunter_f_no_gesture.mp4","Ist der Ball in der grünen Box?","Blue","Green","J","affirmation","na","speech","yes","na","female","speech-gesture","2752","1720","firefox","61.04","Linux","26","male","right","Fri Oct 11 2024 14:12:12 GMT+0200 (Central European Summer Time)","1","86","0","1728652568888"
"1135","j","SpeechGestureMatch","../RequiredFiles/videos/JaDaumenhoch_m.mp4","Ist der Ball in der grünen Box?","Blue","Green","J","affirmation","match","speech","yes","ThumbUp","male","speech-gesture","2752","1720","firefox","61.04","Linux","26","male","right","Fri Oct 11 2024 14:12:19 GMT+0200 (Central European Summer Time)","1","87","0","1728652568888"
"1656","j","SpeechGestureMatch","../RequiredFiles/videos/NeinDaumenhoch_m.mp4","Ist der Ball in der grünen Box?","Blue","Green","F","negation","mismatch","speech","no","ThumbUp","male","speech-gesture","2752","1720","firefox","61.04","Linux","26","male","right","Fri Oct 11 2024 14:12:26 GMT+0200 (Central European Summer Time)","1","88","1","1728652568888"
"1558","f","SpeechGestureMatch","../RequiredFiles/videos/NeinDaumenrunter_m_no_gesture.mp4","Ist der Ball in der grünen Box?","Blue","Green","F","negation","na","speech","no","na","male","speech-gesture","2752","1720","firefox","61.04","Linux","26","male","right","Fri Oct 11 2024 14:12:33 GMT+0200 (Central European Summer Time)","1","89","0","1728652568888"
"926","j","SpeechGestureMatch","../RequiredFiles/videos/JaDaumenrunter_f_no_gesture.mp4","Ist der Ball in der blauen Box?","Blue","Green","F","affirmation","na","speech","yes","na","female","speech-gesture","2752","1720","firefox","61.04","Linux","26","male","right","Fri Oct 11 2024 14:12:40 GMT+0200 (Central European Summer Time)","1","90","1","1728652568888"
"1734","f","SpeechGestureMatch","../RequiredFiles/videos/NeinDaumenhoch_m.mp4","Ist der Ball in der grünen Box?","Green","Blue","J","negation","mismatch","speech","no","ThumbUp","male","speech-gesture","2752","1720","firefox","61.04","Linux","26","male","right","Fri Oct 11 2024 14:12:47 GMT+0200 (Central European Summer Time)","1","91","1","1728652568888"
"87","j","SpeechGestureMatch","../RequiredFiles/videos/NeinDaumenrunter_m.mp4","Ist der Ball in der blauen Box?","Green","Blue","F","negation","match","speech","no","ThumbDown","male","speech-gesture","2752","1720","firefox","61.04","Linux","26","male","right","Fri Oct 11 2024 14:12:53 GMT+0200 (Central European Summer Time)","1","92","1","1728652568888"
"1268","f","SpeechGestureMatch","../RequiredFiles/videos/NeinDaumenhoch_f.mp4","Ist der Ball in der blauen Box?","Blue","Green","J","negation","mismatch","speech","no","ThumbUp","female","speech-gesture","2752","1720","firefox","61.04","Linux","26","male","right","Fri Oct 11 2024 14:13:00 GMT+0200 (Central European Summer Time)","1","93","1","1728652568888"
"1223","j","SpeechGestureMatch","../RequiredFiles/videos/JaDaumenrunter_m_no_gesture.mp4","Ist der Ball in der blauen Box?","Green","Blue","J","affirmation","na","speech","yes","na","male","speech-gesture","2752","1720","firefox","61.04","Linux","26","male","right","Fri Oct 11 2024 14:13:06 GMT+0200 (Central European Summer Time)","1","94","0","1728652568888"
"1185","j","SpeechGestureMatch","../RequiredFiles/videos/JaDaumenrunter_f.mp4","Ist der Ball in der blauen Box?","Blue","Green","F","affirmation","mismatch","speech","yes","ThumbDown","female","speech-gesture","2752","1720","firefox","61.04","Linux","26","male","right","Fri Oct 11 2024 14:13:13 GMT+0200 (Central European Summer Time)","1","95","1","1728652568888"
"1136","f","SpeechGestureMatch","../RequiredFiles/videos/NeinDaumenrunter_f_no_gesture.mp4","Ist der Ball in der grünen Box?","Green","Blue","J","negation","na","speech","no","na","female","speech-gesture","2752","1720","firefox","61.04","Linux","26","male","right","Fri Oct 11 2024 14:13:20 GMT+0200 (Central European Summer Time)","1","96","1","1728652568888"
"1277","f","SpeechGestureMatch","../RequiredFiles/videos/NeinDaumenrunter_f.mp4","Ist der Ball in der grünen Box?","Green","Blue","J","negation","match","speech","no","ThumbDown","female","speech-gesture","2752","1720","firefox","61.04","Linux","26","male","right","Fri Oct 11 2024 14:42:22 GMT+0200 (Central European Summer Time)","2","1","1","1728652568888"
"1364","j","SpeechGestureMatch","../RequiredFiles/videos/JaDaumenhoch_f.mp4","Ist der Ball in der blauen Box?","Blue","Green","F","affirmation","match","speech","yes","ThumbUp","female","speech-gesture","2752","1720","firefox","61.04","Linux","26","male","right","Fri Oct 11 2024 14:42:29 GMT+0200 (Central European Summer Time)","2","2","1","1728652568888"
"2238","f","SpeechGestureMatch","../RequiredFiles/videos/JaDaumenrunter_m.mp4","Ist der Ball in der grünen Box?","Blue","Green","J","affirmation","mismatch","speech","yes","ThumbDown","male","speech-gesture","2752","1720","firefox","61.04","Linux","26","male","right","Fri Oct 11 2024 14:42:37 GMT+0200 (Central European Summer Time)","2","3","1","1728652568888"
"1588","j","SpeechGestureMatch","../RequiredFiles/videos/JaDaumenhoch_m.mp4","Ist der Ball in der blauen Box?","Green","Blue","J","affirmation","match","speech","yes","ThumbUp","male","speech-gesture","2752","1720","firefox","61.04","Linux","26","male","right","Fri Oct 11 2024 14:42:44 GMT+0200 (Central European Summer Time)","2","4","0","1728652568888"
"1904","f","SpeechGestureMatch","../RequiredFiles/videos/NeinDaumenrunter_f_no_gesture.mp4","Ist der Ball in der grünen Box?","Green","Blue","J","negation","na","speech","no","na","female","speech-gesture","2752","1720","firefox","61.04","Linux","26","male","right","Fri Oct 11 2024 14:42:51 GMT+0200 (Central European Summer Time)","2","5","1","1728652568888"
"2001","f","SpeechGestureMatch","../RequiredFiles/videos/JaDaumenhoch_m_no_gesture.mp4","Ist der Ball in der grünen Box?","Green","Blue","F","affirmation","na","speech","yes","na","male","speech-gesture","2752","1720","firefox","61.04","Linux","26","male","right","Fri Oct 11 2024 14:42:59 GMT+0200 (Central European Summer Time)","2","6","0","1728652568888"
"1190","j","SpeechGestureMatch","../RequiredFiles/videos/NeinDaumenrunter_m.mp4","Ist der Ball in der grünen Box?","Green","Blue","J","negation","match","speech","no","ThumbDown","male","speech-gesture","2752","1720","firefox","61.04","Linux","26","male","right","Fri Oct 11 2024 14:43:05 GMT+0200 (Central European Summer Time)","2","7","0","1728652568888"
"1553","f","SpeechGestureMatch","../RequiredFiles/videos/NeinDaumenrunter_f.mp4","Ist der Ball in der grünen Box?","Blue","Green","F","negation","match","speech","no","ThumbDown","female","speech-gesture","2752","1720","firefox","61.04","Linux","26","male","right","Fri Oct 11 2024 14:43:13 GMT+0200 (Central European Summer Time)","2","8","0","1728652568888"
"1188","f","SpeechGestureMatch","../RequiredFiles/videos/JaDaumenhoch_m_no_gesture.mp4","Ist der Ball in der grünen Box?","Blue","Green","J","affirmation","na","speech","yes","na","male","speech-gesture","2752","1720","firefox","61.04","Linux","26","male","right","Fri Oct 11 2024 14:43:19 GMT+0200 (Central European Summer Time)","2","9","1","1728652568888"
"1200","j","SpeechGestureMatch","../RequiredFiles/videos/JaDaumenhoch_f.mp4","Ist der Ball in der blauen Box?","Blue","Green","F","affirmation","match","speech","yes","ThumbUp","female","speech-gesture","2752","1720","firefox","61.04","Linux","26","male","right","Fri Oct 11 2024 14:43:26 GMT+0200 (Central European Summer Time)","2","10","1","1728652568888"
"1208","f","SpeechGestureMatch","../RequiredFiles/videos/NeinDaumenrunter_m_no_gesture.mp4","Ist der Ball in der blauen Box?","Green","Blue","F","negation","na","speech","no","na","male","speech-gesture","2752","1720","firefox","61.04","Linux","26","male","right","Fri Oct 11 2024 14:43:33 GMT+0200 (Central European Summer Time)","2","11","0","1728652568888"
"1808","j","SpeechGestureMatch","../RequiredFiles/videos/JaDaumenhoch_m_no_gesture.mp4","Ist der Ball in der blauen Box?","Green","Blue","J","affirmation","na","speech","yes","na","male","speech-gesture","2752","1720","firefox","61.04","Linux","26","male","right","Fri Oct 11 2024 14:43:40 GMT+0200 (Central European Summer Time)","2","12","0","1728652568888"
"1477","f","SpeechGestureMatch","../RequiredFiles/videos/JaDaumenhoch_m.mp4","Ist der Ball in der grünen Box?","Green","Blue","F","affirmation","match","speech","yes","ThumbUp","male","speech-gesture","2752","1720","firefox","61.04","Linux","26","male","right","Fri Oct 11 2024 14:43:47 GMT+0200 (Central European Summer Time)","2","13","0","1728652568888"
"1150","j","SpeechGestureMatch","../RequiredFiles/videos/JaDaumenrunter_f.mp4","Ist der Ball in der blauen Box?","Blue","Green","F","affirmation","mismatch","speech","yes","ThumbDown","female","speech-gesture","2752","1720","firefox","61.04","Linux","26","male","right","Fri Oct 11 2024 14:43:54 GMT+0200 (Central European Summer Time)","2","14","1","1728652568888"
"1255","f","SpeechGestureMatch","../RequiredFiles/videos/JaDaumenhoch_f.mp4","Ist der Ball in der grünen Box?","Blue","Green","J","affirmation","match","speech","yes","ThumbUp","female","speech-gesture","2752","1720","firefox","61.04","Linux","26","male","right","Fri Oct 11 2024 14:44:01 GMT+0200 (Central European Summer Time)","2","15","1","1728652568888"
"904","f","SpeechGestureMatch","../RequiredFiles/videos/NeinDaumenrunter_m_no_gesture.mp4","Ist der Ball in der grünen Box?","Blue","Green","F","negation","na","speech","no","na","male","speech-gesture","2752","1720","firefox","61.04","Linux","26","male","right","Fri Oct 11 2024 14:44:07 GMT+0200 (Central European Summer Time)","2","16","0","1728652568888"
"1022","f","SpeechGestureMatch","../RequiredFiles/videos/JaDaumenrunter_m_no_gesture.mp4","Ist der Ball in der blauen Box?","Blue","Green","F","affirmation","na","speech","yes","na","male","speech-gesture","2752","1720","firefox","61.04","Linux","26","male","right","Fri Oct 11 2024 14:44:14 GMT+0200 (Central European Summer Time)","2","17","0","1728652568888"
"1056","f","SpeechGestureMatch","../RequiredFiles/videos/JaDaumenrunter_m_no_gesture.mp4","Ist der Ball in der grünen Box?","Blue","Green","J","affirmation","na","speech","yes","na","male","speech-gesture","2752","1720","firefox","61.04","Linux","26","male","right","Fri Oct 11 2024 14:44:20 GMT+0200 (Central European Summer Time)","2","18","1","1728652568888"
"1201","f","SpeechGestureMatch","../RequiredFiles/videos/JaDaumenhoch_m.mp4","Ist der Ball in der blauen Box?","Blue","Green","F","affirmation","match","speech","yes","ThumbUp","male","speech-gesture","2752","1720","firefox","61.04","Linux","26","male","right","Fri Oct 11 2024 14:44:27 GMT+0200 (Central European Summer Time)","2","19","0","1728652568888"
"1017","j","SpeechGestureMatch","../RequiredFiles/videos/JaDaumenrunter_f.mp4","Ist der Ball in der grünen Box?","Blue","Green","J","affirmation","mismatch","speech","yes","ThumbDown","female","speech-gesture","2752","1720","firefox","61.04","Linux","26","male","right","Fri Oct 11 2024 14:44:34 GMT+0200 (Central European Summer Time)","2","20","0","1728652568888"
"1423","j","SpeechGestureMatch","../RequiredFiles/videos/NeinDaumenhoch_f.mp4","Ist der Ball in der blauen Box?","Green","Blue","F","negation","mismatch","speech","no","ThumbUp","female","speech-gesture","2752","1720","firefox","61.04","Linux","26","male","right","Fri Oct 11 2024 14:44:41 GMT+0200 (Central European Summer Time)","2","21","1","1728652568888"
"1212","j","SpeechGestureMatch","../RequiredFiles/videos/NeinDaumenrunter_f.mp4","Ist der Ball in der blauen Box?","Blue","Green","J","negation","match","speech","no","ThumbDown","female","speech-gesture","2752","1720","firefox","61.04","Linux","26","male","right","Fri Oct 11 2024 14:44:47 GMT+0200 (Central European Summer Time)","2","22","0","1728652568888"
"1037","j","SpeechGestureMatch","../RequiredFiles/videos/NeinDaumenhoch_f.mp4","Ist der Ball in der blauen Box?","Blue","Green","J","negation","mismatch","speech","no","ThumbUp","female","speech-gesture","2752","1720","firefox","61.04","Linux","26","male","right","Fri Oct 11 2024 14:44:54 GMT+0200 (Central European Summer Time)","2","23","0","1728652568888"
"1114","f","SpeechGestureMatch","../RequiredFiles/videos/NeinDaumenhoch_f.mp4","Ist der Ball in der grünen Box?","Green","Blue","J","negation","mismatch","speech","no","ThumbUp","female","speech-gesture","2752","1720","firefox","61.04","Linux","26","male","right","Fri Oct 11 2024 14:45:01 GMT+0200 (Central European Summer Time)","2","24","1","1728652568888"
"1077","f","SpeechGestureMatch","../RequiredFiles/videos/NeinDaumenhoch_f_no_gesture.mp4","Ist der Ball in der grünen Box?","Green","Blue","J","negation","na","speech","no","na","female","speech-gesture","2752","1720","firefox","61.04","Linux","26","male","right","Fri Oct 11 2024 14:45:07 GMT+0200 (Central European Summer Time)","2","25","1","1728652568888"
"1344","f","SpeechGestureMatch","../RequiredFiles/videos/NeinDaumenrunter_f.mp4","Ist der Ball in der blauen Box?","Green","Blue","F","negation","match","speech","no","ThumbDown","female","speech-gesture","2752","1720","firefox","61.04","Linux","26","male","right","Fri Oct 11 2024 14:45:14 GMT+0200 (Central European Summer Time)","2","26","0","1728652568888"
"1539","j","SpeechGestureMatch","../RequiredFiles/videos/JaDaumenhoch_f_no_gesture.mp4","Ist der Ball in der grünen Box?","Blue","Green","J","affirmation","na","speech","yes","na","female","speech-gesture","2752","1720","firefox","61.04","Linux","26","male","right","Fri Oct 11 2024 14:45:21 GMT+0200 (Central European Summer Time)","2","27","0","1728652568888"
"1241","j","SpeechGestureMatch","../RequiredFiles/videos/NeinDaumenrunter_m.mp4","Ist der Ball in der blauen Box?","Green","Blue","F","negation","match","speech","no","ThumbDown","male","speech-gesture","2752","1720","firefox","61.04","Linux","26","male","right","Fri Oct 11 2024 14:45:28 GMT+0200 (Central European Summer Time)","2","28","1","1728652568888"
"864","j","SpeechGestureMatch","../RequiredFiles/videos/JaDaumenrunter_m.mp4","Ist der Ball in der blauen Box?","Green","Blue","J","affirmation","mismatch","speech","yes","ThumbDown","male","speech-gesture","2752","1720","firefox","61.04","Linux","26","male","right","Fri Oct 11 2024 14:45:34 GMT+0200 (Central European Summer Time)","2","29","0","1728652568888"
"810","j","SpeechGestureMatch","../RequiredFiles/videos/JaDaumenhoch_m.mp4","Ist der Ball in der grünen Box?","Blue","Green","J","affirmation","match","speech","yes","ThumbUp","male","speech-gesture","2752","1720","firefox","61.04","Linux","26","male","right","Fri Oct 11 2024 14:45:41 GMT+0200 (Central European Summer Time)","2","30","0","1728652568888"
"906","f","SpeechGestureMatch","../RequiredFiles/videos/NeinDaumenrunter_m.mp4","Ist der Ball in der blauen Box?","Blue","Green","J","negation","match","speech","no","ThumbDown","male","speech-gesture","2752","1720","firefox","61.04","Linux","26","male","right","Fri Oct 11 2024 14:45:47 GMT+0200 (Central European Summer Time)","2","31","1","1728652568888"
"1471","f","SpeechGestureMatch","../RequiredFiles/videos/JaDaumenhoch_f.mp4","Ist der Ball in der blauen Box?","Green","Blue","J","affirmation","match","speech","yes","ThumbUp","female","speech-gesture","2752","1720","firefox","61.04","Linux","26","male","right","Fri Oct 11 2024 14:45:54 GMT+0200 (Central European Summer Time)","2","32","1","1728652568888"
"1227","f","SpeechGestureMatch","../RequiredFiles/videos/NeinDaumenrunter_m.mp4","Ist der Ball in der grünen Box?","Blue","Green","F","negation","match","speech","no","ThumbDown","male","speech-gesture","2752","1720","firefox","61.04","Linux","26","male","right","Fri Oct 11 2024 14:46:01 GMT+0200 (Central European Summer Time)","2","33","0","1728652568888"
"1093","f","SpeechGestureMatch","../RequiredFiles/videos/JaDaumenrunter_m.mp4","Ist der Ball in der blauen Box?","Blue","Green","F","affirmation","mismatch","speech","yes","ThumbDown","male","speech-gesture","2752","1720","firefox","61.04","Linux","26","male","right","Fri Oct 11 2024 14:46:08 GMT+0200 (Central European Summer Time)","2","34","0","1728652568888"
"1142","j","SpeechGestureMatch","../RequiredFiles/videos/NeinDaumenrunter_m.mp4","Ist der Ball in der grünen Box?","Green","Blue","J","negation","match","speech","no","ThumbDown","male","speech-gesture","2752","1720","firefox","61.04","Linux","26","male","right","Fri Oct 11 2024 14:46:14 GMT+0200 (Central European Summer Time)","2","35","0","1728652568888"
"1352","j","SpeechGestureMatch","../RequiredFiles/videos/NeinDaumenrunter_f_no_gesture.mp4","Ist der Ball in der blauen Box?","Blue","Green","J","negation","na","speech","no","na","female","speech-gesture","2752","1720","firefox","61.04","Linux","26","male","right","Fri Oct 11 2024 14:46:21 GMT+0200 (Central European Summer Time)","2","36","0","1728652568888"
"1250","f","SpeechGestureMatch","../RequiredFiles/videos/NeinDaumenhoch_m_no_gesture.mp4","Ist der Ball in der grünen Box?","Green","Blue","J","negation","na","speech","no","na","male","speech-gesture","2752","1720","firefox","61.04","Linux","26","male","right","Fri Oct 11 2024 14:46:28 GMT+0200 (Central European Summer Time)","2","37","1","1728652568888"
"1118","j","SpeechGestureMatch","../RequiredFiles/videos/NeinDaumenhoch_m.mp4","Ist der Ball in der grünen Box?","Green","Blue","J","negation","mismatch","speech","no","ThumbUp","male","speech-gesture","2752","1720","firefox","61.04","Linux","26","male","right","Fri Oct 11 2024 14:46:34 GMT+0200 (Central European Summer Time)","2","38","0","1728652568888"
"1148","f","SpeechGestureMatch","../RequiredFiles/videos/NeinDaumenhoch_m.mp4","Ist der Ball in der grünen Box?","Green","Blue","J","negation","mismatch","speech","no","ThumbUp","male","speech-gesture","2752","1720","firefox","61.04","Linux","26","male","right","Fri Oct 11 2024 14:46:41 GMT+0200 (Central European Summer Time)","2","39","1","1728652568888"
"1696","f","SpeechGestureMatch","../RequiredFiles/videos/NeinDaumenrunter_f_no_gesture.mp4","Ist der Ball in der grünen Box?","Blue","Green","F","negation","na","speech","no","na","female","speech-gesture","2752","1720","firefox","61.04","Linux","26","male","right","Fri Oct 11 2024 14:46:48 GMT+0200 (Central European Summer Time)","2","40","0","1728652568888"
"977","f","SpeechGestureMatch","../RequiredFiles/videos/NeinDaumenhoch_f.mp4","Ist der Ball in der blauen Box?","Green","Blue","F","negation","mismatch","speech","no","ThumbUp","female","speech-gesture","2752","1720","firefox","61.04","Linux","26","male","right","Fri Oct 11 2024 14:46:55 GMT+0200 (Central European Summer Time)","2","41","0","1728652568888"
"1127","j","SpeechGestureMatch","../RequiredFiles/videos/NeinDaumenhoch_f_no_gesture.mp4","Ist der Ball in der blauen Box?","Blue","Green","J","negation","na","speech","no","na","female","speech-gesture","2752","1720","firefox","61.04","Linux","26","male","right","Fri Oct 11 2024 14:47:02 GMT+0200 (Central European Summer Time)","2","42","0","1728652568888"
"1074","j","SpeechGestureMatch","../RequiredFiles/videos/JaDaumenhoch_m.mp4","Ist der Ball in der grünen Box?","Blue","Green","J","affirmation","match","speech","yes","ThumbUp","male","speech-gesture","2752","1720","firefox","61.04","Linux","26","male","right","Fri Oct 11 2024 14:47:08 GMT+0200 (Central European Summer Time)","2","43","0","1728652568888"
"1306","f","SpeechGestureMatch","../RequiredFiles/videos/NeinDaumenrunter_m_no_gesture.mp4","Ist der Ball in der blauen Box?","Blue","Green","J","negation","na","speech","no","na","male","speech-gesture","2752","1720","firefox","61.04","Linux","26","male","right","Fri Oct 11 2024 14:47:15 GMT+0200 (Central European Summer Time)","2","44","1","1728652568888"
"1147","j","SpeechGestureMatch","../RequiredFiles/videos/JaDaumenrunter_f_no_gesture.mp4","Ist der Ball in der grünen Box?","Blue","Green","J","affirmation","na","speech","yes","na","female","speech-gesture","2752","1720","firefox","61.04","Linux","26","male","right","Fri Oct 11 2024 14:47:22 GMT+0200 (Central European Summer Time)","2","45","0","1728652568888"
"1166","f","SpeechGestureMatch","../RequiredFiles/videos/NeinDaumenhoch_f.mp4","Ist der Ball in der grünen Box?","Blue","Green","F","negation","mismatch","speech","no","ThumbUp","female","speech-gesture","2752","1720","firefox","61.04","Linux","26","male","right","Fri Oct 11 2024 14:47:29 GMT+0200 (Central European Summer Time)","2","46","0","1728652568888"
"1399","j","SpeechGestureMatch","../RequiredFiles/videos/JaDaumenrunter_m_no_gesture.mp4","Ist der Ball in der blauen Box?","Green","Blue","J","affirmation","na","speech","yes","na","male","speech-gesture","2752","1720","firefox","61.04","Linux","26","male","right","Fri Oct 11 2024 14:47:35 GMT+0200 (Central European Summer Time)","2","47","0","1728652568888"
"1410","j","SpeechGestureMatch","../RequiredFiles/videos/NeinDaumenhoch_m.mp4","Ist der Ball in der blauen Box?","Blue","Green","J","negation","mismatch","speech","no","ThumbUp","male","speech-gesture","2752","1720","firefox","61.04","Linux","26","male","right","Fri Oct 11 2024 14:47:42 GMT+0200 (Central European Summer Time)","2","48","0","1728652568888"
"1702","f","SpeechGestureMatch","../RequiredFiles/videos/JaDaumenhoch_f_no_gesture.mp4","Ist der Ball in der grünen Box?","Green","Blue","F","affirmation","na","speech","yes","na","female","speech-gesture","2752","1720","firefox","61.04","Linux","26","male","right","Fri Oct 11 2024 14:47:50 GMT+0200 (Central European Summer Time)","2","49","0","1728652568888"
"1502","j","SpeechGestureMatch","../RequiredFiles/videos/NeinDaumenhoch_m_no_gesture.mp4","Ist der Ball in der blauen Box?","Green","Blue","F","negation","na","speech","no","na","male","speech-gesture","2752","1720","firefox","61.04","Linux","26","male","right","Fri Oct 11 2024 14:47:57 GMT+0200 (Central European Summer Time)","2","50","1","1728652568888"
"1648","j","SpeechGestureMatch","../RequiredFiles/videos/JaDaumenrunter_m.mp4","Ist der Ball in der grünen Box?","Green","Blue","F","affirmation","mismatch","speech","yes","ThumbDown","male","speech-gesture","2752","1720","firefox","61.04","Linux","26","male","right","Fri Oct 11 2024 14:48:04 GMT+0200 (Central European Summer Time)","2","51","1","1728652568888"
"1445","j","SpeechGestureMatch","../RequiredFiles/videos/JaDaumenrunter_f.mp4","Ist der Ball in der grünen Box?","Blue","Green","J","affirmation","mismatch","speech","yes","ThumbDown","female","speech-gesture","2752","1720","firefox","61.04","Linux","26","male","right","Fri Oct 11 2024 14:48:11 GMT+0200 (Central European Summer Time)","2","52","0","1728652568888"
"1992","j","SpeechGestureMatch","../RequiredFiles/videos/JaDaumenhoch_f.mp4","Ist der Ball in der blauen Box?","Green","Blue","J","affirmation","match","speech","yes","ThumbUp","female","speech-gesture","2752","1720","firefox","61.04","Linux","26","male","right","Fri Oct 11 2024 14:48:18 GMT+0200 (Central European Summer Time)","2","53","0","1728652568888"
"1314","j","SpeechGestureMatch","../RequiredFiles/videos/NeinDaumenrunter_f.mp4","Ist der Ball in der blauen Box?","Blue","Green","J","negation","match","speech","no","ThumbDown","female","speech-gesture","2752","1720","firefox","61.04","Linux","26","male","right","Fri Oct 11 2024 14:48:25 GMT+0200 (Central European Summer Time)","2","54","0","1728652568888"
"1580","f","SpeechGestureMatch","../RequiredFiles/videos/NeinDaumenhoch_f.mp4","Ist der Ball in der grünen Box?","Green","Blue","J","negation","mismatch","speech","no","ThumbUp","female","speech-gesture","2752","1720","firefox","61.04","Linux","26","male","right","Fri Oct 11 2024 14:48:33 GMT+0200 (Central European Summer Time)","2","55","1","1728652568888"
"1448","f","SpeechGestureMatch","../RequiredFiles/videos/JaDaumenrunter_f_no_gesture.mp4","Ist der Ball in der blauen Box?","Blue","Green","F","affirmation","na","speech","yes","na","female","speech-gesture","2752","1720","firefox","61.04","Linux","26","male","right","Fri Oct 11 2024 14:48:40 GMT+0200 (Central European Summer Time)","2","56","0","1728652568888"
"1351","f","SpeechGestureMatch","../RequiredFiles/videos/NeinDaumenhoch_f_no_gesture.mp4","Ist der Ball in der grünen Box?","Blue","Green","F","negation","na","speech","no","na","female","speech-gesture","2752","1720","firefox","61.04","Linux","26","male","right","Fri Oct 11 2024 14:48:46 GMT+0200 (Central European Summer Time)","2","57","0","1728652568888"
"927","j","SpeechGestureMatch","../RequiredFiles/videos/JaDaumenrunter_m.mp4","Ist der Ball in der grünen Box?","Blue","Green","J","affirmation","mismatch","speech","yes","ThumbDown","male","speech-gesture","2752","1720","firefox","61.04","Linux","26","male","right","Fri Oct 11 2024 14:48:53 GMT+0200 (Central European Summer Time)","2","58","0","1728652568888"
"1155","j","SpeechGestureMatch","../RequiredFiles/videos/NeinDaumenhoch_m_no_gesture.mp4","Ist der Ball in der blauen Box?","Blue","Green","J","negation","na","speech","no","na","male","speech-gesture","2752","1720","firefox","61.04","Linux","26","male","right","Fri Oct 11 2024 14:49:00 GMT+0200 (Central European Summer Time)","2","59","0","1728652568888"
"1480","f","SpeechGestureMatch","../RequiredFiles/videos/NeinDaumenrunter_f.mp4","Ist der Ball in der grünen Box?","Blue","Green","F","negation","match","speech","no","ThumbDown","female","speech-gesture","2752","1720","firefox","61.04","Linux","26","male","right","Fri Oct 11 2024 14:49:07 GMT+0200 (Central European Summer Time)","2","60","0","1728652568888"
"1254","f","SpeechGestureMatch","../RequiredFiles/videos/JaDaumenhoch_m.mp4","Ist der Ball in der grünen Box?","Green","Blue","F","affirmation","match","speech","yes","ThumbUp","male","speech-gesture","2752","1720","firefox","61.04","Linux","26","male","right","Fri Oct 11 2024 14:49:13 GMT+0200 (Central European Summer Time)","2","61","0","1728652568888"
"847","f","SpeechGestureMatch","../RequiredFiles/videos/JaDaumenrunter_m_no_gesture.mp4","Ist der Ball in der grünen Box?","Green","Blue","F","affirmation","na","speech","yes","na","male","speech-gesture","2752","1720","firefox","61.04","Linux","26","male","right","Fri Oct 11 2024 14:49:20 GMT+0200 (Central European Summer Time)","2","62","0","1728652568888"
"1097","f","SpeechGestureMatch","../RequiredFiles/videos/NeinDaumenrunter_m.mp4","Ist der Ball in der blauen Box?","Blue","Green","J","negation","match","speech","no","ThumbDown","male","speech-gesture","2752","1720","firefox","61.04","Linux","26","male","right","Fri Oct 11 2024 14:49:26 GMT+0200 (Central European Summer Time)","2","63","1","1728652568888"
"1553","f","SpeechGestureMatch","../RequiredFiles/videos/NeinDaumenrunter_f_no_gesture.mp4","Ist der Ball in der blauen Box?","Green","Blue","F","negation","na","speech","no","na","female","speech-gesture","2752","1720","firefox","61.04","Linux","26","male","right","Fri Oct 11 2024 14:49:33 GMT+0200 (Central European Summer Time)","2","64","0","1728652568888"
"1456","j","SpeechGestureMatch","../RequiredFiles/videos/JaDaumenhoch_f.mp4","Ist der Ball in der grünen Box?","Green","Blue","F","affirmation","match","speech","yes","ThumbUp","female","speech-gesture","2752","1720","firefox","61.04","Linux","26","male","right","Fri Oct 11 2024 14:49:40 GMT+0200 (Central European Summer Time)","2","65","1","1728652568888"
"1524","f","SpeechGestureMatch","../RequiredFiles/videos/NeinDaumenrunter_f.mp4","Ist der Ball in der grünen Box?","Green","Blue","J","negation","match","speech","no","ThumbDown","female","speech-gesture","2752","1720","firefox","61.04","Linux","26","male","right","Fri Oct 11 2024 14:49:48 GMT+0200 (Central European Summer Time)","2","66","1","1728652568888"
"974","j","SpeechGestureMatch","../RequiredFiles/videos/NeinDaumenrunter_m_no_gesture.mp4","Ist der Ball in der grünen Box?","Green","Blue","J","negation","na","speech","no","na","male","speech-gesture","2752","1720","firefox","61.04","Linux","26","male","right","Fri Oct 11 2024 14:49:54 GMT+0200 (Central European Summer Time)","2","67","0","1728652568888"
"1337","j","SpeechGestureMatch","../RequiredFiles/videos/JaDaumenhoch_f.mp4","Ist der Ball in der grünen Box?","Green","Blue","F","affirmation","match","speech","yes","ThumbUp","female","speech-gesture","2752","1720","firefox","61.04","Linux","26","male","right","Fri Oct 11 2024 14:50:01 GMT+0200 (Central European Summer Time)","2","68","1","1728652568888"
"898","f","SpeechGestureMatch","../RequiredFiles/videos/NeinDaumenhoch_m_no_gesture.mp4","Ist der Ball in der grünen Box?","Blue","Green","F","negation","na","speech","no","na","male","speech-gesture","2752","1720","firefox","61.04","Linux","26","male","right","Fri Oct 11 2024 14:50:08 GMT+0200 (Central European Summer Time)","2","69","0","1728652568888"
"1287","j","SpeechGestureMatch","../RequiredFiles/videos/JaDaumenrunter_f_no_gesture.mp4","Ist der Ball in der grünen Box?","Green","Blue","F","affirmation","na","speech","yes","na","female","speech-gesture","2752","1720","firefox","61.04","Linux","26","male","right","Fri Oct 11 2024 14:50:14 GMT+0200 (Central European Summer Time)","2","70","1","1728652568888"
"1313","j","SpeechGestureMatch","../RequiredFiles/videos/NeinDaumenhoch_f.mp4","Ist der Ball in der blauen Box?","Blue","Green","J","negation","mismatch","speech","no","ThumbUp","female","speech-gesture","2752","1720","firefox","61.04","Linux","26","male","right","Fri Oct 11 2024 14:50:21 GMT+0200 (Central European Summer Time)","2","71","0","1728652568888"
"1491","f","SpeechGestureMatch","../RequiredFiles/videos/JaDaumenrunter_m.mp4","Ist der Ball in der grünen Box?","Green","Blue","F","affirmation","mismatch","speech","yes","ThumbDown","male","speech-gesture","2752","1720","firefox","61.04","Linux","26","male","right","Fri Oct 11 2024 14:50:28 GMT+0200 (Central European Summer Time)","2","72","0","1728652568888"
"1265","j","SpeechGestureMatch","../RequiredFiles/videos/JaDaumenhoch_f.mp4","Ist der Ball in der grünen Box?","Blue","Green","J","affirmation","match","speech","yes","ThumbUp","female","speech-gesture","2752","1720","firefox","61.04","Linux","26","male","right","Fri Oct 11 2024 14:50:35 GMT+0200 (Central European Summer Time)","2","73","0","1728652568888"
"1451","f","SpeechGestureMatch","../RequiredFiles/videos/NeinDaumenrunter_f.mp4","Ist der Ball in der blauen Box?","Green","Blue","F","negation","match","speech","no","ThumbDown","female","speech-gesture","2752","1720","firefox","61.04","Linux","26","male","right","Fri Oct 11 2024 14:50:42 GMT+0200 (Central European Summer Time)","2","74","0","1728652568888"
"1198","j","SpeechGestureMatch","../RequiredFiles/videos/JaDaumenrunter_f.mp4","Ist der Ball in der grünen Box?","Green","Blue","F","affirmation","mismatch","speech","yes","ThumbDown","female","speech-gesture","2752","1720","firefox","61.04","Linux","26","male","right","Fri Oct 11 2024 14:50:49 GMT+0200 (Central European Summer Time)","2","75","1","1728652568888"
"1511","f","SpeechGestureMatch","../RequiredFiles/videos/JaDaumenhoch_m_no_gesture.mp4","Ist der Ball in der blauen Box?","Blue","Green","F","affirmation","na","speech","yes","na","male","speech-gesture","2752","1720","firefox","61.04","Linux","26","male","right","Fri Oct 11 2024 14:50:56 GMT+0200 (Central European Summer Time)","2","76","0","1728652568888"
"1272","j","SpeechGestureMatch","../RequiredFiles/videos/JaDaumenrunter_f.mp4","Ist der Ball in der blauen Box?","Green","Blue","J","affirmation","mismatch","speech","yes","ThumbDown","female","speech-gesture","2752","1720","firefox","61.04","Linux","26","male","right","Fri Oct 11 2024 14:51:03 GMT+0200 (Central European Summer Time)","2","77","0","1728652568888"
"1073","j","SpeechGestureMatch","../RequiredFiles/videos/JaDaumenrunter_f.mp4","Ist der Ball in der blauen Box?","Blue","Green","F","affirmation","mismatch","speech","yes","ThumbDown","female","speech-gesture","2752","1720","firefox","61.04","Linux","26","male","right","Fri Oct 11 2024 14:51:10 GMT+0200 (Central European Summer Time)","2","78","1","1728652568888"
"1590","j","SpeechGestureMatch","../RequiredFiles/videos/NeinDaumenrunter_m.mp4","Ist der Ball in der blauen Box?","Green","Blue","F","negation","match","speech","no","ThumbDown","male","speech-gesture","2752","1720","firefox","61.04","Linux","26","male","right","Fri Oct 11 2024 14:51:17 GMT+0200 (Central European Summer Time)","2","79","1","1728652568888"
"1092","f","SpeechGestureMatch","../RequiredFiles/videos/JaDaumenhoch_f_no_gesture.mp4","Ist der Ball in der blauen Box?","Blue","Green","F","affirmation","na","speech","yes","na","female","speech-gesture","2752","1720","firefox","61.04","Linux","26","male","right","Fri Oct 11 2024 14:51:23 GMT+0200 (Central European Summer Time)","2","80","0","1728652568888"
"1181","f","SpeechGestureMatch","../RequiredFiles/videos/NeinDaumenhoch_m.mp4","Ist der Ball in der blauen Box?","Green","Blue","F","negation","mismatch","speech","no","ThumbUp","male","speech-gesture","2752","1720","firefox","61.04","Linux","26","male","right","Fri Oct 11 2024 14:51:30 GMT+0200 (Central European Summer Time)","2","81","0","1728652568888"
"1000","j","SpeechGestureMatch","../RequiredFiles/videos/NeinDaumenhoch_m.mp4","Ist der Ball in der grünen Box?","Blue","Green","F","negation","mismatch","speech","no","ThumbUp","male","speech-gesture","2752","1720","firefox","61.04","Linux","26","male","right","Fri Oct 11 2024 14:51:37 GMT+0200 (Central European Summer Time)","2","82","1","1728652568888"
"1316","f","SpeechGestureMatch","../RequiredFiles/videos/NeinDaumenrunter_m.mp4","Ist der Ball in der grünen Box?","Blue","Green","F","negation","match","speech","no","ThumbDown","male","speech-gesture","2752","1720","firefox","61.04","Linux","26","male","right","Fri Oct 11 2024 14:51:43 GMT+0200 (Central European Summer Time)","2","83","0","1728652568888"
"1303","j","SpeechGestureMatch","../RequiredFiles/videos/JaDaumenhoch_m.mp4","Ist der Ball in der blauen Box?","Blue","Green","F","affirmation","match","speech","yes","ThumbUp","male","speech-gesture","2752","1720","firefox","61.04","Linux","26","male","right","Fri Oct 11 2024 14:51:50 GMT+0200 (Central European Summer Time)","2","84","1","1728652568888"
"1224","f","SpeechGestureMatch","../RequiredFiles/videos/JaDaumenhoch_m.mp4","Ist der Ball in der blauen Box?","Green","Blue","J","affirmation","match","speech","yes","ThumbUp","male","speech-gesture","2752","1720","firefox","61.04","Linux","26","male","right","Fri Oct 11 2024 14:51:57 GMT+0200 (Central European Summer Time)","2","85","1","1728652568888"
"1667","f","SpeechGestureMatch","../RequiredFiles/videos/JaDaumenrunter_m.mp4","Ist der Ball in der blauen Box?","Blue","Green","F","affirmation","mismatch","speech","yes","ThumbDown","male","speech-gesture","2752","1720","firefox","61.04","Linux","26","male","right","Fri Oct 11 2024 14:52:04 GMT+0200 (Central European Summer Time)","2","86","0","1728652568888"
"883","f","SpeechGestureMatch","../RequiredFiles/videos/JaDaumenrunter_m.mp4","Ist der Ball in der blauen Box?","Green","Blue","J","affirmation","mismatch","speech","yes","ThumbDown","male","speech-gesture","2752","1720","firefox","61.04","Linux","26","male","right","Fri Oct 11 2024 14:52:11 GMT+0200 (Central European Summer Time)","2","87","1","1728652568888"
"905","f","SpeechGestureMatch","../RequiredFiles/videos/NeinDaumenhoch_f_no_gesture.mp4","Ist der Ball in der blauen Box?","Green","Blue","F","negation","na","speech","no","na","female","speech-gesture","2752","1720","firefox","61.04","Linux","26","male","right","Fri Oct 11 2024 14:52:17 GMT+0200 (Central European Summer Time)","2","88","0","1728652568888"
"1663","j","SpeechGestureMatch","../RequiredFiles/videos/JaDaumenhoch_f_no_gesture.mp4","Ist der Ball in der blauen Box?","Green","Blue","J","affirmation","na","speech","yes","na","female","speech-gesture","2752","1720","firefox","61.04","Linux","26","male","right","Fri Oct 11 2024 14:52:24 GMT+0200 (Central European Summer Time)","2","89","0","1728652568888"
"1226","f","SpeechGestureMatch","../RequiredFiles/videos/NeinDaumenhoch_m.mp4","Ist der Ball in der blauen Box?","Green","Blue","F","negation","mismatch","speech","no","ThumbUp","male","speech-gesture","2752","1720","firefox","61.04","Linux","26","male","right","Fri Oct 11 2024 14:52:31 GMT+0200 (Central European Summer Time)","2","90","0","1728652568888"
"1450","j","SpeechGestureMatch","../RequiredFiles/videos/JaDaumenrunter_f_no_gesture.mp4","Ist der Ball in der blauen Box?","Green","Blue","J","affirmation","na","speech","yes","na","female","speech-gesture","2752","1720","firefox","61.04","Linux","26","male","right","Fri Oct 11 2024 14:52:38 GMT+0200 (Central European Summer Time)","2","91","0","1728652568888"
"1282","f","SpeechGestureMatch","../RequiredFiles/videos/NeinDaumenhoch_f.mp4","Ist der Ball in der grünen Box?","Blue","Green","F","negation","mismatch","speech","no","ThumbUp","female","speech-gesture","2752","1720","firefox","61.04","Linux","26","male","right","Fri Oct 11 2024 14:52:45 GMT+0200 (Central European Summer Time)","2","92","0","1728652568888"
"1204","j","SpeechGestureMatch","../RequiredFiles/videos/NeinDaumenhoch_m.mp4","Ist der Ball in der blauen Box?","Blue","Green","J","negation","mismatch","speech","no","ThumbUp","male","speech-gesture","2752","1720","firefox","61.04","Linux","26","male","right","Fri Oct 11 2024 14:52:52 GMT+0200 (Central European Summer Time)","2","93","0","1728652568888"
"1439","j","SpeechGestureMatch","../RequiredFiles/videos/JaDaumenrunter_f.mp4","Ist der Ball in der blauen Box?","Green","Blue","J","affirmation","mismatch","speech","yes","ThumbDown","female","speech-gesture","2752","1720","firefox","61.04","Linux","26","male","right","Fri Oct 11 2024 14:52:58 GMT+0200 (Central European Summer Time)","2","94","0","1728652568888"
"1108","f","SpeechGestureMatch","../RequiredFiles/videos/NeinDaumenhoch_m.mp4","Ist der Ball in der grünen Box?","Blue","Green","F","negation","mismatch","speech","no","ThumbUp","male","speech-gesture","2752","1720","firefox","61.04","Linux","26","male","right","Fri Oct 11 2024 14:53:05 GMT+0200 (Central European Summer Time)","2","95","0","1728652568888"
"1099","f","SpeechGestureMatch","../RequiredFiles/videos/JaDaumenrunter_f.mp4","Ist der Ball in der grünen Box?","Green","Blue","F","affirmation","mismatch","speech","yes","ThumbDown","female","speech-gesture","2752","1720","firefox","61.04","Linux","26","male","right","Fri Oct 11 2024 14:53:12 GMT+0200 (Central European Summer Time)","2","96","0","1728652568888"
"898","f","SpeechGestureMatch","../RequiredFiles/videos/NeinDaumenhoch_f.mp4","Ist der Ball in der grünen Box?","Blue","Green","J","affirmation","mismatch","gesture","no","ThumbUp","female","speech-gesture","2752","1720","firefox","61.04","Linux","26","male","right","Fri Oct 11 2024 14:54:37 GMT+0200 (Central European Summer Time)","3","1","1","1728652568888"
"937","j","SpeechGestureMatch","../RequiredFiles/videos/JaDaumenrunter_m_no_sound.mp4","Ist der Ball in der blauen Box?","Blue","Green","J","negation","na","gesture","na","ThumbDown","male","speech-gesture","2752","1720","firefox","61.04","Linux","26","male","right","Fri Oct 11 2024 14:54:43 GMT+0200 (Central European Summer Time)","3","2","0","1728652568888"
"1110","f","SpeechGestureMatch","../RequiredFiles/videos/JaDaumenhoch_m.mp4","Ist der Ball in der blauen Box?","Blue","Green","F","affirmation","match","gesture","yes","ThumbUp","male","speech-gesture","2752","1720","firefox","61.04","Linux","26","male","right","Fri Oct 11 2024 14:54:50 GMT+0200 (Central European Summer Time)","3","3","0","1728652568888"
"1369","f","SpeechGestureMatch","../RequiredFiles/videos/NeinDaumenhoch_m.mp4","Ist der Ball in der blauen Box?","Blue","Green","F","affirmation","mismatch","gesture","no","ThumbUp","male","speech-gesture","2752","1720","firefox","61.04","Linux","26","male","right","Fri Oct 11 2024 14:54:57 GMT+0200 (Central European Summer Time)","3","4","0","1728652568888"
"1668","j","SpeechGestureMatch","../RequiredFiles/videos/JaDaumenrunter_f_no_sound.mp4","Ist der Ball in der grünen Box?","Blue","Green","F","negation","na","gesture","na","ThumbDown","female","speech-gesture","2752","1720","firefox","61.04","Linux","26","male","right","Fri Oct 11 2024 14:55:04 GMT+0200 (Central European Summer Time)","3","5","1","1728652568888"
"1695","j","SpeechGestureMatch","../RequiredFiles/videos/JaDaumenrunter_m.mp4","Ist der Ball in der grünen Box?","Blue","Green","F","negation","mismatch","gesture","yes","ThumbDown","male","speech-gesture","2752","1720","firefox","61.04","Linux","26","male","right","Fri Oct 11 2024 14:55:11 GMT+0200 (Central European Summer Time)","3","6","1","1728652568888"
"1147","j","SpeechGestureMatch","../RequiredFiles/videos/NeinDaumenhoch_f.mp4","Ist der Ball in der blauen Box?","Green","Blue","J","affirmation","mismatch","gesture","no","ThumbUp","female","speech-gesture","2752","1720","firefox","61.04","Linux","26","male","right","Fri Oct 11 2024 14:55:18 GMT+0200 (Central European Summer Time)","3","7","0","1728652568888"
"1288","j","SpeechGestureMatch","../RequiredFiles/videos/JaDaumenhoch_f.mp4","Ist der Ball in der grünen Box?","Green","Blue","F","affirmation","match","gesture","yes","ThumbUp","female","speech-gesture","2752","1720","firefox","61.04","Linux","26","male","right","Fri Oct 11 2024 14:55:25 GMT+0200 (Central European Summer Time)","3","8","1","1728652568888"
"887","f","SpeechGestureMatch","../RequiredFiles/videos/NeinDaumenhoch_f.mp4","Ist der Ball in der blauen Box?","Blue","Green","F","affirmation","mismatch","gesture","no","ThumbUp","female","speech-gesture","2752","1720","firefox","61.04","Linux","26","male","right","Fri Oct 11 2024 14:55:31 GMT+0200 (Central European Summer Time)","3","9","0","1728652568888"
"1269","j","SpeechGestureMatch","../RequiredFiles/videos/JaDaumenrunter_m.mp4","Ist der Ball in der grünen Box?","Green","Blue","J","negation","mismatch","gesture","yes","ThumbDown","male","speech-gesture","2752","1720","firefox","61.04","Linux","26","male","right","Fri Oct 11 2024 14:55:38 GMT+0200 (Central European Summer Time)","3","10","0","1728652568888"
"1316","j","SpeechGestureMatch","../RequiredFiles/videos/JaDaumenrunter_f.mp4","Ist der Ball in der grünen Box?","Green","Blue","J","negation","mismatch","gesture","yes","ThumbDown","female","speech-gesture","2752","1720","firefox","61.04","Linux","26","male","right","Fri Oct 11 2024 14:55:45 GMT+0200 (Central European Summer Time)","3","11","0","1728652568888"
"1528","j","SpeechGestureMatch","../RequiredFiles/videos/NeinDaumenrunter_m.mp4","Ist der Ball in der grünen Box?","Green","Blue","J","negation","match","gesture","no","ThumbDown","male","speech-gesture","2752","1720","firefox","61.04","Linux","26","male","right","Fri Oct 11 2024 14:55:52 GMT+0200 (Central European Summer Time)","3","12","0","1728652568888"
"1639","j","SpeechGestureMatch","../RequiredFiles/videos/NeinDaumenrunter_m_no_sound.mp4","Ist der Ball in der blauen Box?","Blue","Green","J","negation","na","gesture","na","ThumbDown","male","speech-gesture","2752","1720","firefox","61.04","Linux","26","male","right","Fri Oct 11 2024 14:55:59 GMT+0200 (Central European Summer Time)","3","13","0","1728652568888"
"1068","f","SpeechGestureMatch","../RequiredFiles/videos/JaDaumenrunter_f.mp4","Ist der Ball in der blauen Box?","Green","Blue","F","negation","mismatch","gesture","yes","ThumbDown","female","speech-gesture","2752","1720","firefox","61.04","Linux","26","male","right","Fri Oct 11 2024 14:56:06 GMT+0200 (Central European Summer Time)","3","14","0","1728652568888"
"1121","f","SpeechGestureMatch","../RequiredFiles/videos/JaDaumenhoch_m.mp4","Ist der Ball in der grünen Box?","Blue","Green","J","affirmation","match","gesture","yes","ThumbUp","male","speech-gesture","2752","1720","firefox","61.04","Linux","26","male","right","Fri Oct 11 2024 14:56:12 GMT+0200 (Central European Summer Time)","3","15","1","1728652568888"
"1218","j","SpeechGestureMatch","../RequiredFiles/videos/NeinDaumenhoch_f_no_sound.mp4","Ist der Ball in der blauen Box?","Green","Blue","J","affirmation","na","gesture","na","ThumbUp","female","speech-gesture","2752","1720","firefox","61.04","Linux","26","male","right","Fri Oct 11 2024 14:56:19 GMT+0200 (Central European Summer Time)","3","16","0","1728652568888"
"2122","f","SpeechGestureMatch","../RequiredFiles/videos/NeinDaumenhoch_m.mp4","Ist der Ball in der blauen Box?","Blue","Green","F","affirmation","mismatch","gesture","no","ThumbUp","male","speech-gesture","2752","1720","firefox","61.04","Linux","26","male","right","Fri Oct 11 2024 14:56:27 GMT+0200 (Central European Summer Time)","3","17","0","1728652568888"
"1201","f","SpeechGestureMatch","../RequiredFiles/videos/JaDaumenrunter_m.mp4","Ist der Ball in der blauen Box?","Green","Blue","F","negation","mismatch","gesture","yes","ThumbDown","male","speech-gesture","2752","1720","firefox","61.04","Linux","26","male","right","Fri Oct 11 2024 14:56:34 GMT+0200 (Central European Summer Time)","3","18","0","1728652568888"
"1315","j","SpeechGestureMatch","../RequiredFiles/videos/NeinDaumenhoch_m_no_sound.mp4","Ist der Ball in der grünen Box?","Blue","Green","J","affirmation","na","gesture","na","ThumbUp","male","speech-gesture","2752","1720","firefox","61.04","Linux","26","male","right","Fri Oct 11 2024 14:56:40 GMT+0200 (Central European Summer Time)","3","19","0","1728652568888"
"1527","f","SpeechGestureMatch","../RequiredFiles/videos/JaDaumenrunter_m_no_sound.mp4","Ist der Ball in der grünen Box?","Blue","Green","F","negation","na","gesture","na","ThumbDown","male","speech-gesture","2752","1720","firefox","61.04","Linux","26","male","right","Fri Oct 11 2024 14:56:47 GMT+0200 (Central European Summer Time)","3","20","0","1728652568888"
"2492","j","SpeechGestureMatch","../RequiredFiles/videos/JaDaumenhoch_m_no_sound.mp4","Ist der Ball in der grünen Box?","Blue","Green","J","affirmation","na","gesture","na","ThumbUp","male","speech-gesture","2752","1720","firefox","61.04","Linux","26","male","right","Fri Oct 11 2024 14:56:56 GMT+0200 (Central European Summer Time)","3","21","0","1728652568888"
"991","j","SpeechGestureMatch","../RequiredFiles/videos/JaDaumenrunter_m.mp4","Ist der Ball in der blauen Box?","Blue","Green","J","negation","mismatch","gesture","yes","ThumbDown","male","speech-gesture","2752","1720","firefox","61.04","Linux","26","male","right","Fri Oct 11 2024 14:57:02 GMT+0200 (Central European Summer Time)","3","22","0","1728652568888"
"1169","j","SpeechGestureMatch","../RequiredFiles/videos/JaDaumenhoch_f.mp4","Ist der Ball in der blauen Box?","Green","Blue","J","affirmation","match","gesture","yes","ThumbUp","female","speech-gesture","2752","1720","firefox","61.04","Linux","26","male","right","Fri Oct 11 2024 14:57:09 GMT+0200 (Central European Summer Time)","3","23","0","1728652568888"
"1195","j","SpeechGestureMatch","../RequiredFiles/videos/JaDaumenrunter_f_no_sound.mp4","Ist der Ball in der blauen Box?","Blue","Green","J","negation","na","gesture","na","ThumbDown","female","speech-gesture","2752","1720","firefox","61.04","Linux","26","male","right","Fri Oct 11 2024 14:57:15 GMT+0200 (Central European Summer Time)","3","24","0","1728652568888"
"1077","j","SpeechGestureMatch","../RequiredFiles/videos/NeinDaumenrunter_f.mp4","Ist der Ball in der blauen Box?","Blue","Green","J","negation","match","gesture","no","ThumbDown","female","speech-gesture","2752","1720","firefox","61.04","Linux","26","male","right","Fri Oct 11 2024 14:57:22 GMT+0200 (Central European Summer Time)","3","25","0","1728652568888"
"1063","f","SpeechGestureMatch","../RequiredFiles/videos/NeinDaumenrunter_f.mp4","Ist der Ball in der blauen Box?","Green","Blue","F","negation","match","gesture","no","ThumbDown","female","speech-gesture","2752","1720","firefox","61.04","Linux","26","male","right","Fri Oct 11 2024 14:57:29 GMT+0200 (Central European Summer Time)","3","26","0","1728652568888"
"1352","f","SpeechGestureMatch","../RequiredFiles/videos/NeinDaumenhoch_f.mp4","Ist der Ball in der blauen Box?","Blue","Green","F","affirmation","mismatch","gesture","no","ThumbUp","female","speech-gesture","2752","1720","firefox","61.04","Linux","26","male","right","Fri Oct 11 2024 14:57:36 GMT+0200 (Central European Summer Time)","3","27","0","1728652568888"
"786","f","SpeechGestureMatch","../RequiredFiles/videos/JaDaumenhoch_f_no_sound.mp4","Ist der Ball in der blauen Box?","Blue","Green","F","affirmation","na","gesture","na","ThumbUp","female","speech-gesture","2752","1720","firefox","61.04","Linux","26","male","right","Fri Oct 11 2024 14:57:42 GMT+0200 (Central European Summer Time)","3","28","0","1728652568888"
"1336","j","SpeechGestureMatch","../RequiredFiles/videos/NeinDaumenhoch_f.mp4","Ist der Ball in der grünen Box?","Green","Blue","F","affirmation","mismatch","gesture","no","ThumbUp","female","speech-gesture","2752","1720","firefox","61.04","Linux","26","male","right","Fri Oct 11 2024 14:57:49 GMT+0200 (Central European Summer Time)","3","29","1","1728652568888"
"1388","f","SpeechGestureMatch","../RequiredFiles/videos/JaDaumenrunter_f.mp4","Ist der Ball in der blauen Box?","Green","Blue","F","negation","mismatch","gesture","yes","ThumbDown","female","speech-gesture","2752","1720","firefox","61.04","Linux","26","male","right","Fri Oct 11 2024 14:57:56 GMT+0200 (Central European Summer Time)","3","30","0","1728652568888"
"1426","j","SpeechGestureMatch","../RequiredFiles/videos/JaDaumenhoch_m.mp4","Ist der Ball in der grünen Box?","Green","Blue","F","affirmation","match","gesture","yes","ThumbUp","male","speech-gesture","2752","1720","firefox","61.04","Linux","26","male","right","Fri Oct 11 2024 14:58:03 GMT+0200 (Central European Summer Time)","3","31","1","1728652568888"
"1387","j","SpeechGestureMatch","../RequiredFiles/videos/NeinDaumenrunter_m_no_sound.mp4","Ist der Ball in der grünen Box?","Green","Blue","J","negation","na","gesture","na","ThumbDown","male","speech-gesture","2752","1720","firefox","61.04","Linux","26","male","right","Fri Oct 11 2024 14:58:10 GMT+0200 (Central European Summer Time)","3","32","0","1728652568888"
"1029","j","SpeechGestureMatch","../RequiredFiles/videos/NeinDaumenrunter_m.mp4","Ist der Ball in der grünen Box?","Green","Blue","J","negation","match","gesture","no","ThumbDown","male","speech-gesture","2752","1720","firefox","61.04","Linux","26","male","right","Fri Oct 11 2024 14:58:16 GMT+0200 (Central European Summer Time)","3","33","0","1728652568888"
"895","f","SpeechGestureMatch","../RequiredFiles/videos/NeinDaumenhoch_m_no_sound.mp4","Ist der Ball in der blauen Box?","Blue","Green","F","affirmation","na","gesture","na","ThumbUp","male","speech-gesture","2752","1720","firefox","61.04","Linux","26","male","right","Fri Oct 11 2024 14:58:23 GMT+0200 (Central European Summer Time)","3","34","0","1728652568888"
"822","f","SpeechGestureMatch","../RequiredFiles/videos/NeinDaumenrunter_f.mp4","Ist der Ball in der blauen Box?","Green","Blue","F","negation","match","gesture","no","ThumbDown","female","speech-gesture","2752","1720","firefox","61.04","Linux","26","male","right","Fri Oct 11 2024 14:58:29 GMT+0200 (Central European Summer Time)","3","35","0","1728652568888"
"1027","j","SpeechGestureMatch","../RequiredFiles/videos/NeinDaumenhoch_f_no_sound.mp4","Ist der Ball in der grünen Box?","Green","Blue","F","affirmation","na","gesture","na","ThumbUp","female","speech-gesture","2752","1720","firefox","61.04","Linux","26","male","right","Fri Oct 11 2024 14:58:36 GMT+0200 (Central European Summer Time)","3","36","1","1728652568888"
"1024","f","SpeechGestureMatch","../RequiredFiles/videos/NeinDaumenhoch_m.mp4","Ist der Ball in der grünen Box?","Green","Blue","F","affirmation","mismatch","gesture","no","ThumbUp","male","speech-gesture","2752","1720","firefox","61.04","Linux","26","male","right","Fri Oct 11 2024 14:58:43 GMT+0200 (Central European Summer Time)","3","37","0","1728652568888"
"1400","j","SpeechGestureMatch","../RequiredFiles/videos/NeinDaumenrunter_f_no_sound.mp4","Ist der Ball in der blauen Box?","Green","Blue","F","negation","na","gesture","na","ThumbDown","female","speech-gesture","2752","1720","firefox","61.04","Linux","26","male","right","Fri Oct 11 2024 14:58:49 GMT+0200 (Central European Summer Time)","3","38","1","1728652568888"
"2478","f","SpeechGestureMatch","../RequiredFiles/videos/JaDaumenrunter_m.mp4","Ist der Ball in der grünen Box?","Green","Blue","J","negation","mismatch","gesture","yes","ThumbDown","male","speech-gesture","2752","1720","firefox","61.04","Linux","26","male","right","Fri Oct 11 2024 14:58:58 GMT+0200 (Central European Summer Time)","3","39","1","1728652568888"
"1528","f","SpeechGestureMatch","../RequiredFiles/videos/JaDaumenhoch_f_no_sound.mp4","Ist der Ball in der grünen Box?","Green","Blue","F","affirmation","na","gesture","na","ThumbUp","female","speech-gesture","2752","1720","firefox","61.04","Linux","26","male","right","Fri Oct 11 2024 14:59:05 GMT+0200 (Central European Summer Time)","3","40","0","1728652568888"
"1520","f","SpeechGestureMatch","../RequiredFiles/videos/NeinDaumenhoch_m_no_sound.mp4","Ist der Ball in der blauen Box?","Green","Blue","J","affirmation","na","gesture","na","ThumbUp","male","speech-gesture","2752","1720","firefox","61.04","Linux","26","male","right","Fri Oct 11 2024 14:59:12 GMT+0200 (Central European Summer Time)","3","41","1","1728652568888"
"1089","j","SpeechGestureMatch","../RequiredFiles/videos/JaDaumenhoch_f.mp4","Ist der Ball in der blauen Box?","Green","Blue","J","affirmation","match","gesture","yes","ThumbUp","female","speech-gesture","2752","1720","firefox","61.04","Linux","26","male","right","Fri Oct 11 2024 14:59:18 GMT+0200 (Central European Summer Time)","3","42","0","1728652568888"
"1002","f","SpeechGestureMatch","../RequiredFiles/videos/NeinDaumenrunter_m.mp4","Ist der Ball in der blauen Box?","Green","Blue","F","negation","match","gesture","no","ThumbDown","male","speech-gesture","2752","1720","firefox","61.04","Linux","26","male","right","Fri Oct 11 2024 14:59:25 GMT+0200 (Central European Summer Time)","3","43","0","1728652568888"
"1317","j","SpeechGestureMatch","../RequiredFiles/videos/NeinDaumenrunter_f.mp4","Ist der Ball in der grünen Box?","Blue","Green","F","negation","match","gesture","no","ThumbDown","female","speech-gesture","2752","1720","firefox","61.04","Linux","26","male","right","Fri Oct 11 2024 14:59:32 GMT+0200 (Central European Summer Time)","3","44","1","1728652568888"
"1873","f","SpeechGestureMatch","../RequiredFiles/videos/JaDaumenhoch_m.mp4","Ist der Ball in der blauen Box?","Green","Blue","J","affirmation","match","gesture","yes","ThumbUp","male","speech-gesture","2752","1720","firefox","61.04","Linux","26","male","right","Fri Oct 11 2024 14:59:39 GMT+0200 (Central European Summer Time)","3","45","1","1728652568888"
"1122","f","SpeechGestureMatch","../RequiredFiles/videos/JaDaumenrunter_f_no_sound.mp4","Ist der Ball in der blauen Box?","Green","Blue","F","negation","na","gesture","na","ThumbDown","female","speech-gesture","2752","1720","firefox","61.04","Linux","26","male","right","Fri Oct 11 2024 14:59:46 GMT+0200 (Central European Summer Time)","3","46","0","1728652568888"
"1303","j","SpeechGestureMatch","../RequiredFiles/videos/JaDaumenrunter_m.mp4","Ist der Ball in der blauen Box?","Blue","Green","J","negation","mismatch","gesture","yes","ThumbDown","male","speech-gesture","2752","1720","firefox","61.04","Linux","26","male","right","Fri Oct 11 2024 14:59:52 GMT+0200 (Central European Summer Time)","3","47","0","1728652568888"
"1307","f","SpeechGestureMatch","../RequiredFiles/videos/NeinDaumenrunter_m.mp4","Ist der Ball in der grünen Box?","Blue","Green","F","negation","match","gesture","no","ThumbDown","male","speech-gesture","2752","1720","firefox","61.04","Linux","26","male","right","Fri Oct 11 2024 14:59:59 GMT+0200 (Central European Summer Time)","3","48","0","1728652568888"
"2181","f","SpeechGestureMatch","../RequiredFiles/videos/JaDaumenrunter_f.mp4","Ist der Ball in der grünen Box?","Blue","Green","F","negation","mismatch","gesture","yes","ThumbDown","female","speech-gesture","2752","1720","firefox","61.04","Linux","26","male","right","Fri Oct 11 2024 15:00:07 GMT+0200 (Central European Summer Time)","3","49","0","1728652568888"
"1082","f","SpeechGestureMatch","../RequiredFiles/videos/NeinDaumenrunter_m.mp4","Ist der Ball in der blauen Box?","Blue","Green","J","negation","match","gesture","no","ThumbDown","male","speech-gesture","2752","1720","firefox","61.04","Linux","26","male","right","Fri Oct 11 2024 15:00:14 GMT+0200 (Central European Summer Time)","3","50","1","1728652568888"
"1207","f","SpeechGestureMatch","../RequiredFiles/videos/JaDaumenrunter_m_no_sound.mp4","Ist der Ball in der blauen Box?","Green","Blue","F","negation","na","gesture","na","ThumbDown","male","speech-gesture","2752","1720","firefox","61.04","Linux","26","male","right","Fri Oct 11 2024 15:00:21 GMT+0200 (Central European Summer Time)","3","51","0","1728652568888"
"1178","j","SpeechGestureMatch","../RequiredFiles/videos/NeinDaumenrunter_f_no_sound.mp4","Ist der Ball in der grünen Box?","Blue","Green","F","negation","na","gesture","na","ThumbDown","female","speech-gesture","2752","1720","firefox","61.04","Linux","26","male","right","Fri Oct 11 2024 15:00:27 GMT+0200 (Central European Summer Time)","3","52","1","1728652568888"
"838","j","SpeechGestureMatch","../RequiredFiles/videos/NeinDaumenhoch_f_no_sound.mp4","Ist der Ball in der grünen Box?","Blue","Green","J","affirmation","na","gesture","na","ThumbUp","female","speech-gesture","2752","1720","firefox","61.04","Linux","26","male","right","Fri Oct 11 2024 15:00:34 GMT+0200 (Central European Summer Time)","3","53","0","1728652568888"
"1197","f","SpeechGestureMatch","../RequiredFiles/videos/JaDaumenhoch_m_no_sound.mp4","Ist der Ball in der grünen Box?","Green","Blue","F","affirmation","na","gesture","na","ThumbUp","male","speech-gesture","2752","1720","firefox","61.04","Linux","26","male","right","Fri Oct 11 2024 15:00:41 GMT+0200 (Central European Summer Time)","3","54","0","1728652568888"
"1319","j","SpeechGestureMatch","../RequiredFiles/videos/JaDaumenhoch_m.mp4","Ist der Ball in der blauen Box?","Green","Blue","J","affirmation","match","gesture","yes","ThumbUp","male","speech-gesture","2752","1720","firefox","61.04","Linux","26","male","right","Fri Oct 11 2024 15:00:47 GMT+0200 (Central European Summer Time)","3","55","0","1728652568888"
"1302","j","SpeechGestureMatch","../RequiredFiles/videos/NeinDaumenhoch_m.mp4","Ist der Ball in der blauen Box?","Green","Blue","J","affirmation","mismatch","gesture","no","ThumbUp","male","speech-gesture","2752","1720","firefox","61.04","Linux","26","male","right","Fri Oct 11 2024 15:00:54 GMT+0200 (Central European Summer Time)","3","56","0","1728652568888"
"511","f","SpeechGestureMatch","../RequiredFiles/videos/NeinDaumenrunter_m_no_sound.mp4","Ist der Ball in der grünen Box?","Blue","Green","F","negation","na","gesture","na","ThumbDown","male","speech-gesture","2752","1720","firefox","61.04","Linux","26","male","right","Fri Oct 11 2024 15:01:00 GMT+0200 (Central European Summer Time)","3","57","0","1728652568888"
"856","f","SpeechGestureMatch","../RequiredFiles/videos/NeinDaumenrunter_m_no_sound.mp4","Ist der Ball in der blauen Box?","Green","Blue","F","negation","na","gesture","na","ThumbDown","male","speech-gesture","2752","1720","firefox","61.04","Linux","26","male","right","Fri Oct 11 2024 15:01:07 GMT+0200 (Central European Summer Time)","3","58","0","1728652568888"
"1326","f","SpeechGestureMatch","../RequiredFiles/videos/NeinDaumenhoch_m.mp4","Ist der Ball in der grünen Box?","Blue","Green","J","affirmation","mismatch","gesture","no","ThumbUp","male","speech-gesture","2752","1720","firefox","61.04","Linux","26","male","right","Fri Oct 11 2024 15:01:13 GMT+0200 (Central European Summer Time)","3","59","1","1728652568888"
"1168","j","SpeechGestureMatch","../RequiredFiles/videos/NeinDaumenhoch_f.mp4","Ist der Ball in der blauen Box?","Green","Blue","J","affirmation","mismatch","gesture","no","ThumbUp","female","speech-gesture","2752","1720","firefox","61.04","Linux","26","male","right","Fri Oct 11 2024 15:01:20 GMT+0200 (Central European Summer Time)","3","60","0","1728652568888"
"1022","j","SpeechGestureMatch","../RequiredFiles/videos/NeinDaumenrunter_f.mp4","Ist der Ball in der grünen Box?","Green","Blue","J","negation","match","gesture","no","ThumbDown","female","speech-gesture","2752","1720","firefox","61.04","Linux","26","male","right","Fri Oct 11 2024 15:01:27 GMT+0200 (Central European Summer Time)","3","61","0","1728652568888"
"1177","f","SpeechGestureMatch","../RequiredFiles/videos/NeinDaumenhoch_m.mp4","Ist der Ball in der blauen Box?","Green","Blue","J","affirmation","mismatch","gesture","no","ThumbUp","male","speech-gesture","2752","1720","firefox","61.04","Linux","26","male","right","Fri Oct 11 2024 15:01:33 GMT+0200 (Central European Summer Time)","3","62","1","1728652568888"
"1129","j","SpeechGestureMatch","../RequiredFiles/videos/JaDaumenhoch_f.mp4","Ist der Ball in der grünen Box?","Blue","Green","J","affirmation","match","gesture","yes","ThumbUp","female","speech-gesture","2752","1720","firefox","61.04","Linux","26","male","right","Fri Oct 11 2024 15:01:40 GMT+0200 (Central European Summer Time)","3","63","0","1728652568888"
"1039","f","SpeechGestureMatch","../RequiredFiles/videos/JaDaumenrunter_m.mp4","Ist der Ball in der blauen Box?","Green","Blue","F","negation","mismatch","gesture","yes","ThumbDown","male","speech-gesture","2752","1720","firefox","61.04","Linux","26","male","right","Fri Oct 11 2024 15:01:47 GMT+0200 (Central European Summer Time)","3","64","0","1728652568888"
"929","f","SpeechGestureMatch","../RequiredFiles/videos/JaDaumenhoch_f.mp4","Ist der Ball in der grünen Box?","Green","Blue","F","affirmation","match","gesture","yes","ThumbUp","female","speech-gesture","2752","1720","firefox","61.04","Linux","26","male","right","Fri Oct 11 2024 15:01:53 GMT+0200 (Central European Summer Time)","3","65","0","1728652568888"
"1302","f","SpeechGestureMatch","../RequiredFiles/videos/NeinDaumenhoch_m.mp4","Ist der Ball in der grünen Box?","Green","Blue","F","affirmation","mismatch","gesture","no","ThumbUp","male","speech-gesture","2752","1720","firefox","61.04","Linux","26","male","right","Fri Oct 11 2024 15:02:00 GMT+0200 (Central European Summer Time)","3","66","0","1728652568888"
"1147","j","SpeechGestureMatch","../RequiredFiles/videos/NeinDaumenhoch_f_no_sound.mp4","Ist der Ball in der blauen Box?","Blue","Green","F","affirmation","na","gesture","na","ThumbUp","female","speech-gesture","2752","1720","firefox","61.04","Linux","26","male","right","Fri Oct 11 2024 15:02:07 GMT+0200 (Central European Summer Time)","3","67","1","1728652568888"
"1535","f","SpeechGestureMatch","../RequiredFiles/videos/JaDaumenrunter_m.mp4","Ist der Ball in der grünen Box?","Blue","Green","F","negation","mismatch","gesture","yes","ThumbDown","male","speech-gesture","2752","1720","firefox","61.04","Linux","26","male","right","Fri Oct 11 2024 15:02:14 GMT+0200 (Central European Summer Time)","3","68","0","1728652568888"
"814","f","SpeechGestureMatch","../RequiredFiles/videos/NeinDaumenrunter_m.mp4","Ist der Ball in der blauen Box?","Green","Blue","F","negation","match","gesture","no","ThumbDown","male","speech-gesture","2752","1720","firefox","61.04","Linux","26","male","right","Fri Oct 11 2024 15:02:20 GMT+0200 (Central European Summer Time)","3","69","0","1728652568888"
"1007","j","SpeechGestureMatch","../RequiredFiles/videos/JaDaumenrunter_f.mp4","Ist der Ball in der grünen Box?","Green","Blue","J","negation","mismatch","gesture","yes","ThumbDown","female","speech-gesture","2752","1720","firefox","61.04","Linux","26","male","right","Fri Oct 11 2024 15:02:27 GMT+0200 (Central European Summer Time)","3","70","0","1728652568888"
"1343","j","SpeechGestureMatch","../RequiredFiles/videos/JaDaumenhoch_m.mp4","Ist der Ball in der grünen Box?","Blue","Green","J","affirmation","match","gesture","yes","ThumbUp","male","speech-gesture","2752","1720","firefox","61.04","Linux","26","male","right","Fri Oct 11 2024 15:02:34 GMT+0200 (Central European Summer Time)","3","71","0","1728652568888"
"1015","j","SpeechGestureMatch","../RequiredFiles/videos/JaDaumenrunter_f_no_sound.mp4","Ist der Ball in der grünen Box?","Green","Blue","J","negation","na","gesture","na","ThumbDown","female","speech-gesture","2752","1720","firefox","61.04","Linux","26","male","right","Fri Oct 11 2024 15:02:40 GMT+0200 (Central European Summer Time)","3","72","0","1728652568888"
"1055","f","SpeechGestureMatch","../RequiredFiles/videos/JaDaumenhoch_m.mp4","Ist der Ball in der grünen Box?","Green","Blue","F","affirmation","match","gesture","yes","ThumbUp","male","speech-gesture","2752","1720","firefox","61.04","Linux","26","male","right","Fri Oct 11 2024 15:02:47 GMT+0200 (Central European Summer Time)","3","73","0","1728652568888"
"1584","f","SpeechGestureMatch","../RequiredFiles/videos/NeinDaumenrunter_f.mp4","Ist der Ball in der blauen Box?","Blue","Green","J","negation","match","gesture","no","ThumbDown","female","speech-gesture","2752","1720","firefox","61.04","Linux","26","male","right","Fri Oct 11 2024 15:02:54 GMT+0200 (Central European Summer Time)","3","74","1","1728652568888"
"1041","j","SpeechGestureMatch","../RequiredFiles/videos/JaDaumenhoch_f_no_sound.mp4","Ist der Ball in der grünen Box?","Blue","Green","J","affirmation","na","gesture","na","ThumbUp","female","speech-gesture","2752","1720","firefox","61.04","Linux","26","male","right","Fri Oct 11 2024 15:03:00 GMT+0200 (Central European Summer Time)","3","75","0","1728652568888"
"943","f","SpeechGestureMatch","../RequiredFiles/videos/JaDaumenhoch_m_no_sound.mp4","Ist der Ball in der blauen Box?","Blue","Green","F","affirmation","na","gesture","na","ThumbUp","male","speech-gesture","2752","1720","firefox","61.04","Linux","26","male","right","Fri Oct 11 2024 15:03:07 GMT+0200 (Central European Summer Time)","3","76","0","1728652568888"
"1294","f","SpeechGestureMatch","../RequiredFiles/videos/JaDaumenhoch_f.mp4","Ist der Ball in der blauen Box?","Blue","Green","F","affirmation","match","gesture","yes","ThumbUp","female","speech-gesture","2752","1720","firefox","61.04","Linux","26","male","right","Fri Oct 11 2024 15:03:14 GMT+0200 (Central European Summer Time)","3","77","0","1728652568888"
"1716","f","SpeechGestureMatch","../RequiredFiles/videos/NeinDaumenhoch_f.mp4","Ist der Ball in der grünen Box?","Blue","Green","J","affirmation","mismatch","gesture","no","ThumbUp","female","speech-gesture","2752","1720","firefox","61.04","Linux","26","male","right","Fri Oct 11 2024 15:03:21 GMT+0200 (Central European Summer Time)","3","78","1","1728652568888"
"878","j","SpeechGestureMatch","../RequiredFiles/videos/JaDaumenhoch_f.mp4","Ist der Ball in der grünen Box?","Blue","Green","J","affirmation","match","gesture","yes","ThumbUp","female","speech-gesture","2752","1720","firefox","61.04","Linux","26","male","right","Fri Oct 11 2024 15:03:27 GMT+0200 (Central European Summer Time)","3","79","0","1728652568888"
"1161","j","SpeechGestureMatch","../RequiredFiles/videos/JaDaumenhoch_m_no_sound.mp4","Ist der Ball in der blauen Box?","Green","Blue","J","affirmation","na","gesture","na","ThumbUp","male","speech-gesture","2752","1720","firefox","61.04","Linux","26","male","right","Fri Oct 11 2024 15:03:34 GMT+0200 (Central European Summer Time)","3","80","0","1728652568888"
"1158","f","SpeechGestureMatch","../RequiredFiles/videos/JaDaumenrunter_f.mp4","Ist der Ball in der grünen Box?","Blue","Green","F","negation","mismatch","gesture","yes","ThumbDown","female","speech-gesture","2752","1720","firefox","61.04","Linux","26","male","right","Fri Oct 11 2024 15:03:41 GMT+0200 (Central European Summer Time)","3","81","0","1728652568888"
"1064","j","SpeechGestureMatch","../RequiredFiles/videos/JaDaumenrunter_f.mp4","Ist der Ball in der blauen Box?","Blue","Green","J","negation","mismatch","gesture","yes","ThumbDown","female","speech-gesture","2752","1720","firefox","61.04","Linux","26","male","right","Fri Oct 11 2024 15:03:47 GMT+0200 (Central European Summer Time)","3","82","0","1728652568888"
"991","f","SpeechGestureMatch","../RequiredFiles/videos/NeinDaumenrunter_f.mp4","Ist der Ball in der grünen Box?","Blue","Green","F","negation","match","gesture","no","ThumbDown","female","speech-gesture","2752","1720","firefox","61.04","Linux","26","male","right","Fri Oct 11 2024 15:03:54 GMT+0200 (Central European Summer Time)","3","83","0","1728652568888"
