"rt","response","stim","video","question","box_colour_left","box_colour_right","correct_key","polarity","matching","modality","verbal","gesture","speaker","order","width","height","browser","vsync_rate","os","age","gender","handedness","date","blockNum","trialNum","error","vpNum"
"862","f","SpeechGestureMatch","../RequiredFiles/videos/JaKopfNein_f_no_sound.mp4","Ist der Ball in der grünen Box?","Blue","Green","F","negation","na","gesture","na","HeadShake","female","gesture-speech","1422","800","edge-chromium","60.17","Windows 10","22","male","right","Tue Oct 01 2024 13:01:13 GMT+0200 (Mitteleuropäische Sommerzeit)","1","1","0","1727783020396"
"596","f","SpeechGestureMatch","../RequiredFiles/videos/NeinKopfJa_m.mp4","Ist der Ball in der blauen Box?","Green","Blue","J","affirmation","mismatch","gesture","no","HeadNod","male","gesture-speech","1422","800","edge-chromium","60.17","Windows 10","22","male","right","Tue Oct 01 2024 13:01:20 GMT+0200 (Mitteleuropäische Sommerzeit)","1","2","1","1727783020396"
"561","f","SpeechGestureMatch","../RequiredFiles/videos/NeinKopfJa_m_no_sound.mp4","Ist der Ball in der grünen Box?","Green","Blue","F","affirmation","na","gesture","na","HeadNod","male","gesture-speech","1422","800","edge-chromium","60.17","Windows 10","22","male","right","Tue Oct 01 2024 13:01:26 GMT+0200 (Mitteleuropäische Sommerzeit)","1","3","0","1727783020396"
"649","f","SpeechGestureMatch","../RequiredFiles/videos/JaKopfNein_m.mp4","Ist der Ball in der blauen Box?","Green","Blue","F","negation","mismatch","gesture","yes","HeadShake","male","gesture-speech","1422","800","edge-chromium","60.17","Windows 10","22","male","right","Tue Oct 01 2024 13:01:32 GMT+0200 (Mitteleuropäische Sommerzeit)","1","4","0","1727783020396"
"604","j","SpeechGestureMatch","../RequiredFiles/videos/NeinKopfNein_f.mp4","Ist der Ball in der grünen Box?","Green","Blue","J","negation","match","gesture","no","HeadShake","female","gesture-speech","1422","800","edge-chromium","60.17","Windows 10","22","male","right","Tue Oct 01 2024 13:01:38 GMT+0200 (Mitteleuropäische Sommerzeit)","1","5","0","1727783020396"
"538","f","SpeechGestureMatch","../RequiredFiles/videos/NeinKopfNein_m.mp4","Ist der Ball in der blauen Box?","Green","Blue","F","negation","match","gesture","no","HeadShake","male","gesture-speech","1422","800","edge-chromium","60.17","Windows 10","22","male","right","Tue Oct 01 2024 13:01:44 GMT+0200 (Mitteleuropäische Sommerzeit)","1","6","0","1727783020396"
"556","f","SpeechGestureMatch","../RequiredFiles/videos/JaKopfNein_f.mp4","Ist der Ball in der grünen Box?","Blue","Green","F","negation","mismatch","gesture","yes","HeadShake","female","gesture-speech","1422","800","edge-chromium","60.17","Windows 10","22","male","right","Tue Oct 01 2024 13:01:50 GMT+0200 (Mitteleuropäische Sommerzeit)","1","7","0","1727783020396"
"589","f","SpeechGestureMatch","../RequiredFiles/videos/NeinKopfNein_f_no_sound.mp4","Ist der Ball in der blauen Box?","Blue","Green","J","negation","na","gesture","na","HeadShake","female","gesture-speech","1422","800","edge-chromium","60.17","Windows 10","22","male","right","Tue Oct 01 2024 13:01:56 GMT+0200 (Mitteleuropäische Sommerzeit)","1","8","1","1727783020396"
"542","f","SpeechGestureMatch","../RequiredFiles/videos/NeinKopfNein_m_no_sound.mp4","Ist der Ball in der blauen Box?","Green","Blue","F","negation","na","gesture","na","HeadShake","male","gesture-speech","1422","800","edge-chromium","60.17","Windows 10","22","male","right","Tue Oct 01 2024 13:02:02 GMT+0200 (Mitteleuropäische Sommerzeit)","1","9","0","1727783020396"
"704","f","SpeechGestureMatch","../RequiredFiles/videos/NeinKopfNein_m.mp4","Ist der Ball in der grünen Box?","Blue","Green","F","negation","match","gesture","no","HeadShake","male","gesture-speech","1422","800","edge-chromium","60.17","Windows 10","22","male","right","Tue Oct 01 2024 13:02:09 GMT+0200 (Mitteleuropäische Sommerzeit)","1","10","0","1727783020396"
"557","j","SpeechGestureMatch","../RequiredFiles/videos/NeinKopfNein_m.mp4","Ist der Ball in der grünen Box?","Green","Blue","J","negation","match","gesture","no","HeadShake","male","gesture-speech","1422","800","edge-chromium","60.17","Windows 10","22","male","right","Tue Oct 01 2024 13:02:15 GMT+0200 (Mitteleuropäische Sommerzeit)","1","11","0","1727783020396"
"696","j","SpeechGestureMatch","../RequiredFiles/videos/NeinKopfNein_f.mp4","Ist der Ball in der blauen Box?","Blue","Green","J","negation","match","gesture","no","HeadShake","female","gesture-speech","1422","800","edge-chromium","60.17","Windows 10","22","male","right","Tue Oct 01 2024 13:02:21 GMT+0200 (Mitteleuropäische Sommerzeit)","1","12","0","1727783020396"
"697","f","SpeechGestureMatch","../RequiredFiles/videos/NeinKopfNein_f_no_sound.mp4","Ist der Ball in der blauen Box?","Green","Blue","F","negation","na","gesture","na","HeadShake","female","gesture-speech","1422","800","edge-chromium","60.17","Windows 10","22","male","right","Tue Oct 01 2024 13:02:27 GMT+0200 (Mitteleuropäische Sommerzeit)","1","13","0","1727783020396"
"472","f","SpeechGestureMatch","../RequiredFiles/videos/NeinKopfJa_m.mp4","Ist der Ball in der grünen Box?","Green","Blue","F","affirmation","mismatch","gesture","no","HeadNod","male","gesture-speech","1422","800","edge-chromium","60.17","Windows 10","22","male","right","Tue Oct 01 2024 13:02:33 GMT+0200 (Mitteleuropäische Sommerzeit)","1","14","0","1727783020396"
"631","f","SpeechGestureMatch","../RequiredFiles/videos/NeinKopfNein_f.mp4","Ist der Ball in der grünen Box?","Blue","Green","F","negation","match","gesture","no","HeadShake","female","gesture-speech","1422","800","edge-chromium","60.17","Windows 10","22","male","right","Tue Oct 01 2024 13:02:40 GMT+0200 (Mitteleuropäische Sommerzeit)","1","15","0","1727783020396"
"528","f","SpeechGestureMatch","../RequiredFiles/videos/NeinKopfNein_f.mp4","Ist der Ball in der blauen Box?","Green","Blue","F","negation","match","gesture","no","HeadShake","female","gesture-speech","1422","800","edge-chromium","60.17","Windows 10","22","male","right","Tue Oct 01 2024 13:02:46 GMT+0200 (Mitteleuropäische Sommerzeit)","1","16","0","1727783020396"
"700","j","SpeechGestureMatch","../RequiredFiles/videos/NeinKopfJa_f_no_sound.mp4","Ist der Ball in der blauen Box?","Green","Blue","J","affirmation","na","gesture","na","HeadNod","female","gesture-speech","1422","800","edge-chromium","60.17","Windows 10","22","male","right","Tue Oct 01 2024 13:02:52 GMT+0200 (Mitteleuropäische Sommerzeit)","1","17","0","1727783020396"
"647","j","SpeechGestureMatch","../RequiredFiles/videos/JaKopfJa_m.mp4","Ist der Ball in der blauen Box?","Green","Blue","J","affirmation","match","gesture","yes","HeadNod","male","gesture-speech","1422","800","edge-chromium","60.17","Windows 10","22","male","right","Tue Oct 01 2024 13:02:58 GMT+0200 (Mitteleuropäische Sommerzeit)","1","18","0","1727783020396"
"584","j","SpeechGestureMatch","../RequiredFiles/videos/JaKopfJa_m.mp4","Ist der Ball in der grünen Box?","Blue","Green","J","affirmation","match","gesture","yes","HeadNod","male","gesture-speech","1422","800","edge-chromium","60.17","Windows 10","22","male","right","Tue Oct 01 2024 13:03:04 GMT+0200 (Mitteleuropäische Sommerzeit)","1","19","0","1727783020396"
"546","j","SpeechGestureMatch","../RequiredFiles/videos/NeinKopfNein_m.mp4","Ist der Ball in der grünen Box?","Green","Blue","J","negation","match","gesture","no","HeadShake","male","gesture-speech","1422","800","edge-chromium","60.17","Windows 10","22","male","right","Tue Oct 01 2024 13:03:10 GMT+0200 (Mitteleuropäische Sommerzeit)","1","20","0","1727783020396"
"552","f","SpeechGestureMatch","../RequiredFiles/videos/NeinKopfJa_f.mp4","Ist der Ball in der grünen Box?","Green","Blue","F","affirmation","mismatch","gesture","no","HeadNod","female","gesture-speech","1422","800","edge-chromium","60.17","Windows 10","22","male","right","Tue Oct 01 2024 13:03:16 GMT+0200 (Mitteleuropäische Sommerzeit)","1","21","0","1727783020396"
"514","f","SpeechGestureMatch","../RequiredFiles/videos/NeinKopfNein_m_no_sound.mp4","Ist der Ball in der grünen Box?","Blue","Green","F","negation","na","gesture","na","HeadShake","male","gesture-speech","1422","800","edge-chromium","60.17","Windows 10","22","male","right","Tue Oct 01 2024 13:03:22 GMT+0200 (Mitteleuropäische Sommerzeit)","1","22","0","1727783020396"
"489","j","SpeechGestureMatch","../RequiredFiles/videos/NeinKopfNein_m_no_sound.mp4","Ist der Ball in der grünen Box?","Green","Blue","J","negation","na","gesture","na","HeadShake","male","gesture-speech","1422","800","edge-chromium","60.17","Windows 10","22","male","right","Tue Oct 01 2024 13:03:28 GMT+0200 (Mitteleuropäische Sommerzeit)","1","23","0","1727783020396"
"609","f","SpeechGestureMatch","../RequiredFiles/videos/NeinKopfJa_f_no_sound.mp4","Ist der Ball in der grünen Box?","Green","Blue","F","affirmation","na","gesture","na","HeadNod","female","gesture-speech","1422","800","edge-chromium","60.17","Windows 10","22","male","right","Tue Oct 01 2024 13:03:35 GMT+0200 (Mitteleuropäische Sommerzeit)","1","24","0","1727783020396"
"696","j","SpeechGestureMatch","../RequiredFiles/videos/JaKopfJa_m_no_sound.mp4","Ist der Ball in der blauen Box?","Green","Blue","J","affirmation","na","gesture","na","HeadNod","male","gesture-speech","1422","800","edge-chromium","60.17","Windows 10","22","male","right","Tue Oct 01 2024 13:03:41 GMT+0200 (Mitteleuropäische Sommerzeit)","1","25","0","1727783020396"
"641","j","SpeechGestureMatch","../RequiredFiles/videos/JaKopfNein_m.mp4","Ist der Ball in der grünen Box?","Green","Blue","J","negation","mismatch","gesture","yes","HeadShake","male","gesture-speech","1422","800","edge-chromium","60.17","Windows 10","22","male","right","Tue Oct 01 2024 13:03:47 GMT+0200 (Mitteleuropäische Sommerzeit)","1","26","0","1727783020396"
"529","f","SpeechGestureMatch","../RequiredFiles/videos/NeinKopfNein_m.mp4","Ist der Ball in der grünen Box?","Blue","Green","F","negation","match","gesture","no","HeadShake","male","gesture-speech","1422","800","edge-chromium","60.17","Windows 10","22","male","right","Tue Oct 01 2024 13:03:53 GMT+0200 (Mitteleuropäische Sommerzeit)","1","27","0","1727783020396"
"528","j","SpeechGestureMatch","../RequiredFiles/videos/NeinKopfJa_f.mp4","Ist der Ball in der blauen Box?","Green","Blue","J","affirmation","mismatch","gesture","no","HeadNod","female","gesture-speech","1422","800","edge-chromium","60.17","Windows 10","22","male","right","Tue Oct 01 2024 13:03:59 GMT+0200 (Mitteleuropäische Sommerzeit)","1","28","0","1727783020396"
"641","f","SpeechGestureMatch","../RequiredFiles/videos/JaKopfNein_m_no_sound.mp4","Ist der Ball in der grünen Box?","Blue","Green","F","negation","na","gesture","na","HeadShake","male","gesture-speech","1422","800","edge-chromium","60.17","Windows 10","22","male","right","Tue Oct 01 2024 13:04:05 GMT+0200 (Mitteleuropäische Sommerzeit)","1","29","0","1727783020396"
"601","f","SpeechGestureMatch","../RequiredFiles/videos/JaKopfJa_m.mp4","Ist der Ball in der blauen Box?","Blue","Green","F","affirmation","match","gesture","yes","HeadNod","male","gesture-speech","1422","800","edge-chromium","60.17","Windows 10","22","male","right","Tue Oct 01 2024 13:04:12 GMT+0200 (Mitteleuropäische Sommerzeit)","1","30","0","1727783020396"
"681","j","SpeechGestureMatch","../RequiredFiles/videos/JaKopfNein_m.mp4","Ist der Ball in der blauen Box?","Blue","Green","J","negation","mismatch","gesture","yes","HeadShake","male","gesture-speech","1422","800","edge-chromium","60.17","Windows 10","22","male","right","Tue Oct 01 2024 13:04:18 GMT+0200 (Mitteleuropäische Sommerzeit)","1","31","0","1727783020396"
"703","f","SpeechGestureMatch","../RequiredFiles/videos/NeinKopfNein_f.mp4","Ist der Ball in der grünen Box?","Blue","Green","F","negation","match","gesture","no","HeadShake","female","gesture-speech","1422","800","edge-chromium","60.17","Windows 10","22","male","right","Tue Oct 01 2024 13:04:24 GMT+0200 (Mitteleuropäische Sommerzeit)","1","32","0","1727783020396"
"681","f","SpeechGestureMatch","../RequiredFiles/videos/NeinKopfJa_f.mp4","Ist der Ball in der blauen Box?","Blue","Green","F","affirmation","mismatch","gesture","no","HeadNod","female","gesture-speech","1422","800","edge-chromium","60.17","Windows 10","22","male","right","Tue Oct 01 2024 13:04:30 GMT+0200 (Mitteleuropäische Sommerzeit)","1","33","0","1727783020396"
"591","f","SpeechGestureMatch","../RequiredFiles/videos/JaKopfNein_m.mp4","Ist der Ball in der grünen Box?","Blue","Green","F","negation","mismatch","gesture","yes","HeadShake","male","gesture-speech","1422","800","edge-chromium","60.17","Windows 10","22","male","right","Tue Oct 01 2024 13:04:36 GMT+0200 (Mitteleuropäische Sommerzeit)","1","34","0","1727783020396"
"574","j","SpeechGestureMatch","../RequiredFiles/videos/JaKopfNein_m.mp4","Ist der Ball in der blauen Box?","Blue","Green","J","negation","mismatch","gesture","yes","HeadShake","male","gesture-speech","1422","800","edge-chromium","60.17","Windows 10","22","male","right","Tue Oct 01 2024 13:04:43 GMT+0200 (Mitteleuropäische Sommerzeit)","1","35","0","1727783020396"
"600","f","SpeechGestureMatch","../RequiredFiles/videos/JaKopfJa_m_no_sound.mp4","Ist der Ball in der blauen Box?","Blue","Green","F","affirmation","na","gesture","na","HeadNod","male","gesture-speech","1422","800","edge-chromium","60.17","Windows 10","22","male","right","Tue Oct 01 2024 13:04:49 GMT+0200 (Mitteleuropäische Sommerzeit)","1","36","0","1727783020396"
"700","j","SpeechGestureMatch","../RequiredFiles/videos/JaKopfJa_f_no_sound.mp4","Ist der Ball in der blauen Box?","Green","Blue","J","affirmation","na","gesture","na","HeadNod","female","gesture-speech","1422","800","edge-chromium","60.17","Windows 10","22","male","right","Tue Oct 01 2024 13:04:55 GMT+0200 (Mitteleuropäische Sommerzeit)","1","37","0","1727783020396"
"628","j","SpeechGestureMatch","../RequiredFiles/videos/JaKopfNein_f.mp4","Ist der Ball in der blauen Box?","Blue","Green","J","negation","mismatch","gesture","yes","HeadShake","female","gesture-speech","1422","800","edge-chromium","60.17","Windows 10","22","male","right","Tue Oct 01 2024 13:05:01 GMT+0200 (Mitteleuropäische Sommerzeit)","1","38","0","1727783020396"
"500","f","SpeechGestureMatch","../RequiredFiles/videos/JaKopfJa_f_no_sound.mp4","Ist der Ball in der grünen Box?","Green","Blue","F","affirmation","na","gesture","na","HeadNod","female","gesture-speech","1422","800","edge-chromium","60.17","Windows 10","22","male","right","Tue Oct 01 2024 13:05:07 GMT+0200 (Mitteleuropäische Sommerzeit)","1","39","0","1727783020396"
"540","f","SpeechGestureMatch","../RequiredFiles/videos/JaKopfJa_m.mp4","Ist der Ball in der grünen Box?","Green","Blue","F","affirmation","match","gesture","yes","HeadNod","male","gesture-speech","1422","800","edge-chromium","60.17","Windows 10","22","male","right","Tue Oct 01 2024 13:05:13 GMT+0200 (Mitteleuropäische Sommerzeit)","1","40","0","1727783020396"
"644","f","SpeechGestureMatch","../RequiredFiles/videos/NeinKopfNein_f.mp4","Ist der Ball in der blauen Box?","Green","Blue","F","negation","match","gesture","no","HeadShake","female","gesture-speech","1422","800","edge-chromium","60.17","Windows 10","22","male","right","Tue Oct 01 2024 13:05:19 GMT+0200 (Mitteleuropäische Sommerzeit)","1","41","0","1727783020396"
"720","f","SpeechGestureMatch","../RequiredFiles/videos/JaKopfJa_m.mp4","Ist der Ball in der grünen Box?","Green","Blue","F","affirmation","match","gesture","yes","HeadNod","male","gesture-speech","1422","800","edge-chromium","60.17","Windows 10","22","male","right","Tue Oct 01 2024 13:05:26 GMT+0200 (Mitteleuropäische Sommerzeit)","1","42","0","1727783020396"
"522","f","SpeechGestureMatch","../RequiredFiles/videos/JaKopfJa_m.mp4","Ist der Ball in der blauen Box?","Blue","Green","F","affirmation","match","gesture","yes","HeadNod","male","gesture-speech","1422","800","edge-chromium","60.17","Windows 10","22","male","right","Tue Oct 01 2024 13:05:32 GMT+0200 (Mitteleuropäische Sommerzeit)","1","43","0","1727783020396"
"598","j","SpeechGestureMatch","../RequiredFiles/videos/JaKopfNein_f.mp4","Ist der Ball in der grünen Box?","Green","Blue","J","negation","mismatch","gesture","yes","HeadShake","female","gesture-speech","1422","800","edge-chromium","60.17","Windows 10","22","male","right","Tue Oct 01 2024 13:05:38 GMT+0200 (Mitteleuropäische Sommerzeit)","1","44","0","1727783020396"
"563","j","SpeechGestureMatch","../RequiredFiles/videos/JaKopfNein_m_no_sound.mp4","Ist der Ball in der blauen Box?","Blue","Green","J","negation","na","gesture","na","HeadShake","male","gesture-speech","1422","800","edge-chromium","60.17","Windows 10","22","male","right","Tue Oct 01 2024 13:05:44 GMT+0200 (Mitteleuropäische Sommerzeit)","1","45","0","1727783020396"
"638","j","SpeechGestureMatch","../RequiredFiles/videos/NeinKopfJa_m.mp4","Ist der Ball in der grünen Box?","Blue","Green","J","affirmation","mismatch","gesture","no","HeadNod","male","gesture-speech","1422","800","edge-chromium","60.17","Windows 10","22","male","right","Tue Oct 01 2024 13:05:50 GMT+0200 (Mitteleuropäische Sommerzeit)","1","46","0","1727783020396"
"674","j","SpeechGestureMatch","../RequiredFiles/videos/JaKopfNein_f.mp4","Ist der Ball in der grünen Box?","Green","Blue","J","negation","mismatch","gesture","yes","HeadShake","female","gesture-speech","1422","800","edge-chromium","60.17","Windows 10","22","male","right","Tue Oct 01 2024 13:05:56 GMT+0200 (Mitteleuropäische Sommerzeit)","1","47","0","1727783020396"
"549","j","SpeechGestureMatch","../RequiredFiles/videos/JaKopfNein_m_no_sound.mp4","Ist der Ball in der grünen Box?","Green","Blue","J","negation","na","gesture","na","HeadShake","male","gesture-speech","1422","800","edge-chromium","60.17","Windows 10","22","male","right","Tue Oct 01 2024 13:06:03 GMT+0200 (Mitteleuropäische Sommerzeit)","1","48","0","1727783020396"
"689","j","SpeechGestureMatch","../RequiredFiles/videos/NeinKopfNein_f.mp4","Ist der Ball in der blauen Box?","Blue","Green","J","negation","match","gesture","no","HeadShake","female","gesture-speech","1422","800","edge-chromium","60.17","Windows 10","22","male","right","Tue Oct 01 2024 13:06:09 GMT+0200 (Mitteleuropäische Sommerzeit)","1","49","0","1727783020396"
"634","j","SpeechGestureMatch","../RequiredFiles/videos/NeinKopfNein_f.mp4","Ist der Ball in der grünen Box?","Green","Blue","J","negation","match","gesture","no","HeadShake","female","gesture-speech","1422","800","edge-chromium","60.17","Windows 10","22","male","right","Tue Oct 01 2024 13:06:15 GMT+0200 (Mitteleuropäische Sommerzeit)","1","50","0","1727783020396"
"599","j","SpeechGestureMatch","../RequiredFiles/videos/NeinKopfJa_m_no_sound.mp4","Ist der Ball in der grünen Box?","Blue","Green","J","affirmation","na","gesture","na","HeadNod","male","gesture-speech","1422","800","edge-chromium","60.17","Windows 10","22","male","right","Tue Oct 01 2024 13:06:21 GMT+0200 (Mitteleuropäische Sommerzeit)","1","51","0","1727783020396"
"537","f","SpeechGestureMatch","../RequiredFiles/videos/JaKopfNein_m_no_sound.mp4","Ist der Ball in der blauen Box?","Green","Blue","F","negation","na","gesture","na","HeadShake","male","gesture-speech","1422","800","edge-chromium","60.17","Windows 10","22","male","right","Tue Oct 01 2024 13:06:27 GMT+0200 (Mitteleuropäische Sommerzeit)","1","52","0","1727783020396"
"579","j","SpeechGestureMatch","../RequiredFiles/videos/JaKopfNein_f_no_sound.mp4","Ist der Ball in der blauen Box?","Blue","Green","J","negation","na","gesture","na","HeadShake","female","gesture-speech","1422","800","edge-chromium","60.17","Windows 10","22","male","right","Tue Oct 01 2024 13:06:33 GMT+0200 (Mitteleuropäische Sommerzeit)","1","53","0","1727783020396"
"504","j","SpeechGestureMatch","../RequiredFiles/videos/JaKopfJa_f_no_sound.mp4","Ist der Ball in der grünen Box?","Blue","Green","J","affirmation","na","gesture","na","HeadNod","female","gesture-speech","1422","800","edge-chromium","60.17","Windows 10","22","male","right","Tue Oct 01 2024 13:06:39 GMT+0200 (Mitteleuropäische Sommerzeit)","1","54","0","1727783020396"
"509","j","SpeechGestureMatch","../RequiredFiles/videos/JaKopfNein_f_no_sound.mp4","Ist der Ball in der blauen Box?","Green","Blue","F","negation","na","gesture","na","HeadShake","female","gesture-speech","1422","800","edge-chromium","60.17","Windows 10","22","male","right","Tue Oct 01 2024 13:06:45 GMT+0200 (Mitteleuropäische Sommerzeit)","1","55","1","1727783020396"
"588","j","SpeechGestureMatch","../RequiredFiles/videos/NeinKopfNein_m.mp4","Ist der Ball in der blauen Box?","Blue","Green","J","negation","match","gesture","no","HeadShake","male","gesture-speech","1422","800","edge-chromium","60.17","Windows 10","22","male","right","Tue Oct 01 2024 13:06:52 GMT+0200 (Mitteleuropäische Sommerzeit)","1","56","0","1727783020396"
"567","j","SpeechGestureMatch","../RequiredFiles/videos/JaKopfNein_f.mp4","Ist der Ball in der blauen Box?","Blue","Green","J","negation","mismatch","gesture","yes","HeadShake","female","gesture-speech","1422","800","edge-chromium","60.17","Windows 10","22","male","right","Tue Oct 01 2024 13:06:58 GMT+0200 (Mitteleuropäische Sommerzeit)","1","57","0","1727783020396"
"453","f","SpeechGestureMatch","../RequiredFiles/videos/JaKopfJa_m_no_sound.mp4","Ist der Ball in der grünen Box?","Green","Blue","F","affirmation","na","gesture","na","HeadNod","male","gesture-speech","1422","800","edge-chromium","60.17","Windows 10","22","male","right","Tue Oct 01 2024 13:07:04 GMT+0200 (Mitteleuropäische Sommerzeit)","1","58","0","1727783020396"
"760","f","SpeechGestureMatch","../RequiredFiles/videos/NeinKopfNein_f_no_sound.mp4","Ist der Ball in der grünen Box?","Blue","Green","F","negation","na","gesture","na","HeadShake","female","gesture-speech","1422","800","edge-chromium","60.17","Windows 10","22","male","right","Tue Oct 01 2024 13:07:10 GMT+0200 (Mitteleuropäische Sommerzeit)","1","59","0","1727783020396"
"579","f","SpeechGestureMatch","../RequiredFiles/videos/JaKopfNein_f.mp4","Ist der Ball in der blauen Box?","Green","Blue","F","negation","mismatch","gesture","yes","HeadShake","female","gesture-speech","1422","800","edge-chromium","60.17","Windows 10","22","male","right","Tue Oct 01 2024 13:07:16 GMT+0200 (Mitteleuropäische Sommerzeit)","1","60","0","1727783020396"
"539","j","SpeechGestureMatch","../RequiredFiles/videos/NeinKopfJa_m.mp4","Ist der Ball in der grünen Box?","Green","Blue","F","affirmation","mismatch","gesture","no","HeadNod","male","gesture-speech","1422","800","edge-chromium","60.17","Windows 10","22","male","right","Tue Oct 01 2024 13:07:22 GMT+0200 (Mitteleuropäische Sommerzeit)","1","61","1","1727783020396"
"633","f","SpeechGestureMatch","../RequiredFiles/videos/JaKopfNein_m.mp4","Ist der Ball in der grünen Box?","Blue","Green","F","negation","mismatch","gesture","yes","HeadShake","male","gesture-speech","1422","800","edge-chromium","60.17","Windows 10","22","male","right","Tue Oct 01 2024 13:07:28 GMT+0200 (Mitteleuropäische Sommerzeit)","1","62","0","1727783020396"
"580","j","SpeechGestureMatch","../RequiredFiles/videos/JaKopfJa_m.mp4","Ist der Ball in der grünen Box?","Blue","Green","J","affirmation","match","gesture","yes","HeadNod","male","gesture-speech","1422","800","edge-chromium","60.17","Windows 10","22","male","right","Tue Oct 01 2024 13:07:35 GMT+0200 (Mitteleuropäische Sommerzeit)","1","63","0","1727783020396"
"610","f","SpeechGestureMatch","../RequiredFiles/videos/JaKopfNein_f.mp4","Ist der Ball in der grünen Box?","Blue","Green","F","negation","mismatch","gesture","yes","HeadShake","female","gesture-speech","1422","800","edge-chromium","60.17","Windows 10","22","male","right","Tue Oct 01 2024 13:07:41 GMT+0200 (Mitteleuropäische Sommerzeit)","1","64","0","1727783020396"
"464","f","SpeechGestureMatch","../RequiredFiles/videos/NeinKopfJa_f.mp4","Ist der Ball in der blauen Box?","Blue","Green","F","affirmation","mismatch","gesture","no","HeadNod","female","gesture-speech","1422","800","edge-chromium","60.17","Windows 10","22","male","right","Tue Oct 01 2024 13:07:47 GMT+0200 (Mitteleuropäische Sommerzeit)","1","65","0","1727783020396"
"486","f","SpeechGestureMatch","../RequiredFiles/videos/JaKopfNein_f.mp4","Ist der Ball in der blauen Box?","Green","Blue","F","negation","mismatch","gesture","yes","HeadShake","female","gesture-speech","1422","800","edge-chromium","60.17","Windows 10","22","male","right","Tue Oct 01 2024 13:07:53 GMT+0200 (Mitteleuropäische Sommerzeit)","1","66","0","1727783020396"
"482","f","SpeechGestureMatch","../RequiredFiles/videos/JaKopfJa_f.mp4","Ist der Ball in der grünen Box?","Green","Blue","F","affirmation","match","gesture","yes","HeadNod","female","gesture-speech","1422","800","edge-chromium","60.17","Windows 10","22","male","right","Tue Oct 01 2024 13:07:59 GMT+0200 (Mitteleuropäische Sommerzeit)","1","67","0","1727783020396"
"530","j","SpeechGestureMatch","../RequiredFiles/videos/JaKopfNein_f_no_sound.mp4","Ist der Ball in der grünen Box?","Green","Blue","J","negation","na","gesture","na","HeadShake","female","gesture-speech","1422","800","edge-chromium","60.17","Windows 10","22","male","right","Tue Oct 01 2024 13:08:05 GMT+0200 (Mitteleuropäische Sommerzeit)","1","68","0","1727783020396"
"479","j","SpeechGestureMatch","../RequiredFiles/videos/NeinKopfNein_m_no_sound.mp4","Ist der Ball in der blauen Box?","Blue","Green","J","negation","na","gesture","na","HeadShake","male","gesture-speech","1422","800","edge-chromium","60.17","Windows 10","22","male","right","Tue Oct 01 2024 13:08:11 GMT+0200 (Mitteleuropäische Sommerzeit)","1","69","0","1727783020396"
"524","j","SpeechGestureMatch","../RequiredFiles/videos/JaKopfJa_f.mp4","Ist der Ball in der blauen Box?","Green","Blue","J","affirmation","match","gesture","yes","HeadNod","female","gesture-speech","1422","800","edge-chromium","60.17","Windows 10","22","male","right","Tue Oct 01 2024 13:08:17 GMT+0200 (Mitteleuropäische Sommerzeit)","1","70","0","1727783020396"
"555","j","SpeechGestureMatch","../RequiredFiles/videos/NeinKopfJa_m.mp4","Ist der Ball in der blauen Box?","Green","Blue","J","affirmation","mismatch","gesture","no","HeadNod","male","gesture-speech","1422","800","edge-chromium","60.17","Windows 10","22","male","right","Tue Oct 01 2024 13:08:23 GMT+0200 (Mitteleuropäische Sommerzeit)","1","71","0","1727783020396"
"477","f","SpeechGestureMatch","../RequiredFiles/videos/JaKopfJa_f.mp4","Ist der Ball in der blauen Box?","Blue","Green","F","affirmation","match","gesture","yes","HeadNod","female","gesture-speech","1422","800","edge-chromium","60.17","Windows 10","22","male","right","Tue Oct 01 2024 13:08:29 GMT+0200 (Mitteleuropäische Sommerzeit)","1","72","0","1727783020396"
"484","j","SpeechGestureMatch","../RequiredFiles/videos/JaKopfJa_f.mp4","Ist der Ball in der grünen Box?","Blue","Green","J","affirmation","match","gesture","yes","HeadNod","female","gesture-speech","1422","800","edge-chromium","60.17","Windows 10","22","male","right","Tue Oct 01 2024 13:08:35 GMT+0200 (Mitteleuropäische Sommerzeit)","1","73","0","1727783020396"
"575","j","SpeechGestureMatch","../RequiredFiles/videos/NeinKopfJa_f.mp4","Ist der Ball in der grünen Box?","Blue","Green","J","affirmation","mismatch","gesture","no","HeadNod","female","gesture-speech","1422","800","edge-chromium","60.17","Windows 10","22","male","right","Tue Oct 01 2024 13:08:41 GMT+0200 (Mitteleuropäische Sommerzeit)","1","74","0","1727783020396"
"535","f","SpeechGestureMatch","../RequiredFiles/videos/JaKopfJa_f.mp4","Ist der Ball in der grünen Box?","Green","Blue","F","affirmation","match","gesture","yes","HeadNod","female","gesture-speech","1422","800","edge-chromium","60.17","Windows 10","22","male","right","Tue Oct 01 2024 13:08:47 GMT+0200 (Mitteleuropäische Sommerzeit)","1","75","0","1727783020396"
"516","j","SpeechGestureMatch","../RequiredFiles/videos/JaKopfJa_m.mp4","Ist der Ball in der blauen Box?","Green","Blue","J","affirmation","match","gesture","yes","HeadNod","male","gesture-speech","1422","800","edge-chromium","60.17","Windows 10","22","male","right","Tue Oct 01 2024 13:08:53 GMT+0200 (Mitteleuropäische Sommerzeit)","1","76","0","1727783020396"
"630","j","SpeechGestureMatch","../RequiredFiles/videos/NeinKopfJa_m.mp4","Ist der Ball in der grünen Box?","Blue","Green","J","affirmation","mismatch","gesture","no","HeadNod","male","gesture-speech","1422","800","edge-chromium","60.17","Windows 10","22","male","right","Tue Oct 01 2024 13:09:00 GMT+0200 (Mitteleuropäische Sommerzeit)","1","77","0","1727783020396"
"796","f","SpeechGestureMatch","../RequiredFiles/videos/JaKopfNein_m.mp4","Ist der Ball in der blauen Box?","Green","Blue","F","negation","mismatch","gesture","yes","HeadShake","male","gesture-speech","1422","800","edge-chromium","60.17","Windows 10","22","male","right","Tue Oct 01 2024 13:09:06 GMT+0200 (Mitteleuropäische Sommerzeit)","1","78","0","1727783020396"
"598","j","SpeechGestureMatch","../RequiredFiles/videos/JaKopfJa_f.mp4","Ist der Ball in der grünen Box?","Blue","Green","J","affirmation","match","gesture","yes","HeadNod","female","gesture-speech","1422","800","edge-chromium","60.17","Windows 10","22","male","right","Tue Oct 01 2024 13:09:12 GMT+0200 (Mitteleuropäische Sommerzeit)","1","79","0","1727783020396"
"481","j","SpeechGestureMatch","../RequiredFiles/videos/NeinKopfJa_f_no_sound.mp4","Ist der Ball in der grünen Box?","Blue","Green","J","affirmation","na","gesture","na","HeadNod","female","gesture-speech","1422","800","edge-chromium","60.17","Windows 10","22","male","right","Tue Oct 01 2024 13:09:18 GMT+0200 (Mitteleuropäische Sommerzeit)","1","80","0","1727783020396"
"504","j","SpeechGestureMatch","../RequiredFiles/videos/NeinKopfJa_m_no_sound.mp4","Ist der Ball in der blauen Box?","Green","Blue","J","affirmation","na","gesture","na","HeadNod","male","gesture-speech","1422","800","edge-chromium","60.17","Windows 10","22","male","right","Tue Oct 01 2024 13:09:24 GMT+0200 (Mitteleuropäische Sommerzeit)","1","81","0","1727783020396"
"436","f","SpeechGestureMatch","../RequiredFiles/videos/NeinKopfJa_m_no_sound.mp4","Ist der Ball in der blauen Box?","Blue","Green","F","affirmation","na","gesture","na","HeadNod","male","gesture-speech","1422","800","edge-chromium","60.17","Windows 10","22","male","right","Tue Oct 01 2024 13:09:30 GMT+0200 (Mitteleuropäische Sommerzeit)","1","82","0","1727783020396"
"634","j","SpeechGestureMatch","../RequiredFiles/videos/NeinKopfJa_f.mp4","Ist der Ball in der blauen Box?","Green","Blue","J","affirmation","mismatch","gesture","no","HeadNod","female","gesture-speech","1422","800","edge-chromium","60.17","Windows 10","22","male","right","Tue Oct 01 2024 13:09:36 GMT+0200 (Mitteleuropäische Sommerzeit)","1","83","0","1727783020396"
"565","f","SpeechGestureMatch","../RequiredFiles/videos/JaKopfJa_f.mp4","Ist der Ball in der blauen Box?","Blue","Green","F","affirmation","match","gesture","yes","HeadNod","female","gesture-speech","1422","800","edge-chromium","60.17","Windows 10","22","male","right","Tue Oct 01 2024 13:09:42 GMT+0200 (Mitteleuropäische Sommerzeit)","1","84","0","1727783020396"
"480","j","SpeechGestureMatch","../RequiredFiles/videos/JaKopfJa_f.mp4","Ist der Ball in der blauen Box?","Green","Blue","J","affirmation","match","gesture","yes","HeadNod","female","gesture-speech","1422","800","edge-chromium","60.17","Windows 10","22","male","right","Tue Oct 01 2024 13:09:48 GMT+0200 (Mitteleuropäische Sommerzeit)","1","85","0","1727783020396"
"1107","f","SpeechGestureMatch","../RequiredFiles/videos/NeinKopfJa_m.mp4","Ist der Ball in der blauen Box?","Blue","Green","F","affirmation","mismatch","gesture","no","HeadNod","male","gesture-speech","1422","800","edge-chromium","60.17","Windows 10","22","male","right","Tue Oct 01 2024 13:09:55 GMT+0200 (Mitteleuropäische Sommerzeit)","1","86","0","1727783020396"
"519","j","SpeechGestureMatch","../RequiredFiles/videos/JaKopfJa_m_no_sound.mp4","Ist der Ball in der grünen Box?","Blue","Green","J","affirmation","na","gesture","na","HeadNod","male","gesture-speech","1422","800","edge-chromium","60.17","Windows 10","22","male","right","Tue Oct 01 2024 13:10:01 GMT+0200 (Mitteleuropäische Sommerzeit)","1","87","0","1727783020396"
"453","j","SpeechGestureMatch","../RequiredFiles/videos/JaKopfJa_f_no_sound.mp4","Ist der Ball in der blauen Box?","Blue","Green","F","affirmation","na","gesture","na","HeadNod","female","gesture-speech","1422","800","edge-chromium","60.17","Windows 10","22","male","right","Tue Oct 01 2024 13:10:07 GMT+0200 (Mitteleuropäische Sommerzeit)","1","88","1","1727783020396"
"473","f","SpeechGestureMatch","../RequiredFiles/videos/NeinKopfJa_f_no_sound.mp4","Ist der Ball in der blauen Box?","Blue","Green","F","affirmation","na","gesture","na","HeadNod","female","gesture-speech","1422","800","edge-chromium","60.17","Windows 10","22","male","right","Tue Oct 01 2024 13:10:13 GMT+0200 (Mitteleuropäische Sommerzeit)","1","89","0","1727783020396"
"503","j","SpeechGestureMatch","../RequiredFiles/videos/NeinKopfNein_m.mp4","Ist der Ball in der blauen Box?","Green","Blue","F","negation","match","gesture","no","HeadShake","male","gesture-speech","1422","800","edge-chromium","60.17","Windows 10","22","male","right","Tue Oct 01 2024 13:10:19 GMT+0200 (Mitteleuropäische Sommerzeit)","1","90","1","1727783020396"
"507","f","SpeechGestureMatch","../RequiredFiles/videos/NeinKopfNein_f_no_sound.mp4","Ist der Ball in der grünen Box?","Green","Blue","J","negation","na","gesture","na","HeadShake","female","gesture-speech","1422","800","edge-chromium","60.17","Windows 10","22","male","right","Tue Oct 01 2024 13:10:25 GMT+0200 (Mitteleuropäische Sommerzeit)","1","91","1","1727783020396"
"699","j","SpeechGestureMatch","../RequiredFiles/videos/NeinKopfJa_f.mp4","Ist der Ball in der grünen Box?","Blue","Green","J","affirmation","mismatch","gesture","no","HeadNod","female","gesture-speech","1422","800","edge-chromium","60.17","Windows 10","22","male","right","Tue Oct 01 2024 13:10:32 GMT+0200 (Mitteleuropäische Sommerzeit)","1","92","0","1727783020396"
"499","f","SpeechGestureMatch","../RequiredFiles/videos/NeinKopfJa_f.mp4","Ist der Ball in der grünen Box?","Green","Blue","F","affirmation","mismatch","gesture","no","HeadNod","female","gesture-speech","1422","800","edge-chromium","60.17","Windows 10","22","male","right","Tue Oct 01 2024 13:10:38 GMT+0200 (Mitteleuropäische Sommerzeit)","1","93","0","1727783020396"
"604","f","SpeechGestureMatch","../RequiredFiles/videos/NeinKopfJa_m.mp4","Ist der Ball in der blauen Box?","Blue","Green","F","affirmation","mismatch","gesture","no","HeadNod","male","gesture-speech","1422","800","edge-chromium","60.17","Windows 10","22","male","right","Tue Oct 01 2024 13:10:44 GMT+0200 (Mitteleuropäische Sommerzeit)","1","94","0","1727783020396"
"668","j","SpeechGestureMatch","../RequiredFiles/videos/JaKopfNein_m.mp4","Ist der Ball in der grünen Box?","Green","Blue","J","negation","mismatch","gesture","yes","HeadShake","male","gesture-speech","1422","800","edge-chromium","60.17","Windows 10","22","male","right","Tue Oct 01 2024 13:10:50 GMT+0200 (Mitteleuropäische Sommerzeit)","1","95","0","1727783020396"
"555","j","SpeechGestureMatch","../RequiredFiles/videos/NeinKopfNein_m.mp4","Ist der Ball in der blauen Box?","Blue","Green","J","negation","match","gesture","no","HeadShake","male","gesture-speech","1422","800","edge-chromium","60.17","Windows 10","22","male","right","Tue Oct 01 2024 13:10:56 GMT+0200 (Mitteleuropäische Sommerzeit)","1","96","0","1727783020396"
"566","f","SpeechGestureMatch","../RequiredFiles/videos/JaKopfJa_m.mp4","Ist der Ball in der grünen Box?","Green","Blue","F","affirmation","match","gesture","yes","HeadNod","male","gesture-speech","1422","800","edge-chromium","60.17","Windows 10","22","male","right","Tue Oct 01 2024 13:11:58 GMT+0200 (Mitteleuropäische Sommerzeit)","2","1","0","1727783020396"
"522","j","SpeechGestureMatch","../RequiredFiles/videos/NeinKopfNein_m.mp4","Ist der Ball in der blauen Box?","Blue","Green","J","negation","match","gesture","no","HeadShake","male","gesture-speech","1422","800","edge-chromium","60.17","Windows 10","22","male","right","Tue Oct 01 2024 13:12:04 GMT+0200 (Mitteleuropäische Sommerzeit)","2","2","0","1727783020396"
"487","j","SpeechGestureMatch","../RequiredFiles/videos/JaKopfNein_f_no_sound.mp4","Ist der Ball in der blauen Box?","Blue","Green","J","negation","na","gesture","na","HeadShake","female","gesture-speech","1422","800","edge-chromium","60.17","Windows 10","22","male","right","Tue Oct 01 2024 13:12:10 GMT+0200 (Mitteleuropäische Sommerzeit)","2","3","0","1727783020396"
"547","j","SpeechGestureMatch","../RequiredFiles/videos/NeinKopfNein_f_no_sound.mp4","Ist der Ball in der blauen Box?","Blue","Green","J","negation","na","gesture","na","HeadShake","female","gesture-speech","1422","800","edge-chromium","60.17","Windows 10","22","male","right","Tue Oct 01 2024 13:12:17 GMT+0200 (Mitteleuropäische Sommerzeit)","2","4","0","1727783020396"
"462","f","SpeechGestureMatch","../RequiredFiles/videos/NeinKopfJa_f_no_sound.mp4","Ist der Ball in der blauen Box?","Blue","Green","F","affirmation","na","gesture","na","HeadNod","female","gesture-speech","1422","800","edge-chromium","60.17","Windows 10","22","male","right","Tue Oct 01 2024 13:12:23 GMT+0200 (Mitteleuropäische Sommerzeit)","2","5","0","1727783020396"
"461","f","SpeechGestureMatch","../RequiredFiles/videos/JaKopfJa_f_no_sound.mp4","Ist der Ball in der grünen Box?","Green","Blue","F","affirmation","na","gesture","na","HeadNod","female","gesture-speech","1422","800","edge-chromium","60.17","Windows 10","22","male","right","Tue Oct 01 2024 13:12:29 GMT+0200 (Mitteleuropäische Sommerzeit)","2","6","0","1727783020396"
"929","f","SpeechGestureMatch","../RequiredFiles/videos/NeinKopfNein_f.mp4","Ist der Ball in der blauen Box?","Green","Blue","F","negation","match","gesture","no","HeadShake","female","gesture-speech","1422","800","edge-chromium","60.17","Windows 10","22","male","right","Tue Oct 01 2024 13:12:35 GMT+0200 (Mitteleuropäische Sommerzeit)","2","7","0","1727783020396"
"541","j","SpeechGestureMatch","../RequiredFiles/videos/JaKopfNein_f_no_sound.mp4","Ist der Ball in der grünen Box?","Green","Blue","J","negation","na","gesture","na","HeadShake","female","gesture-speech","1422","800","edge-chromium","60.17","Windows 10","22","male","right","Tue Oct 01 2024 13:12:41 GMT+0200 (Mitteleuropäische Sommerzeit)","2","8","0","1727783020396"
"589","f","SpeechGestureMatch","../RequiredFiles/videos/JaKopfJa_f.mp4","Ist der Ball in der grünen Box?","Green","Blue","F","affirmation","match","gesture","yes","HeadNod","female","gesture-speech","1422","800","edge-chromium","60.17","Windows 10","22","male","right","Tue Oct 01 2024 13:12:47 GMT+0200 (Mitteleuropäische Sommerzeit)","2","9","0","1727783020396"
"486","f","SpeechGestureMatch","../RequiredFiles/videos/JaKopfNein_m_no_sound.mp4","Ist der Ball in der grünen Box?","Blue","Green","F","negation","na","gesture","na","HeadShake","male","gesture-speech","1422","800","edge-chromium","60.17","Windows 10","22","male","right","Tue Oct 01 2024 13:12:53 GMT+0200 (Mitteleuropäische Sommerzeit)","2","10","0","1727783020396"
"539","f","SpeechGestureMatch","../RequiredFiles/videos/JaKopfJa_m_no_sound.mp4","Ist der Ball in der grünen Box?","Green","Blue","F","affirmation","na","gesture","na","HeadNod","male","gesture-speech","1422","800","edge-chromium","60.17","Windows 10","22","male","right","Tue Oct 01 2024 13:12:59 GMT+0200 (Mitteleuropäische Sommerzeit)","2","11","0","1727783020396"
"611","j","SpeechGestureMatch","../RequiredFiles/videos/JaKopfJa_m.mp4","Ist der Ball in der blauen Box?","Green","Blue","J","affirmation","match","gesture","yes","HeadNod","male","gesture-speech","1422","800","edge-chromium","60.17","Windows 10","22","male","right","Tue Oct 01 2024 13:13:06 GMT+0200 (Mitteleuropäische Sommerzeit)","2","12","0","1727783020396"
"516","j","SpeechGestureMatch","../RequiredFiles/videos/NeinKopfJa_m_no_sound.mp4","Ist der Ball in der blauen Box?","Green","Blue","J","affirmation","na","gesture","na","HeadNod","male","gesture-speech","1422","800","edge-chromium","60.17","Windows 10","22","male","right","Tue Oct 01 2024 13:13:12 GMT+0200 (Mitteleuropäische Sommerzeit)","2","13","0","1727783020396"
"449","f","SpeechGestureMatch","../RequiredFiles/videos/NeinKopfNein_f.mp4","Ist der Ball in der blauen Box?","Blue","Green","J","negation","match","gesture","no","HeadShake","female","gesture-speech","1422","800","edge-chromium","60.17","Windows 10","22","male","right","Tue Oct 01 2024 13:13:18 GMT+0200 (Mitteleuropäische Sommerzeit)","2","14","1","1727783020396"
"491","f","SpeechGestureMatch","../RequiredFiles/videos/NeinKopfJa_m.mp4","Ist der Ball in der blauen Box?","Blue","Green","F","affirmation","mismatch","gesture","no","HeadNod","male","gesture-speech","1422","800","edge-chromium","60.17","Windows 10","22","male","right","Tue Oct 01 2024 13:13:24 GMT+0200 (Mitteleuropäische Sommerzeit)","2","15","0","1727783020396"
"545","j","SpeechGestureMatch","../RequiredFiles/videos/NeinKopfJa_f.mp4","Ist der Ball in der grünen Box?","Blue","Green","J","affirmation","mismatch","gesture","no","HeadNod","female","gesture-speech","1422","800","edge-chromium","60.17","Windows 10","22","male","right","Tue Oct 01 2024 13:13:30 GMT+0200 (Mitteleuropäische Sommerzeit)","2","16","0","1727783020396"
"507","f","SpeechGestureMatch","../RequiredFiles/videos/NeinKopfJa_f.mp4","Ist der Ball in der grünen Box?","Green","Blue","F","affirmation","mismatch","gesture","no","HeadNod","female","gesture-speech","1422","800","edge-chromium","60.17","Windows 10","22","male","right","Tue Oct 01 2024 13:13:36 GMT+0200 (Mitteleuropäische Sommerzeit)","2","17","0","1727783020396"
"567","f","SpeechGestureMatch","../RequiredFiles/videos/JaKopfNein_f.mp4","Ist der Ball in der blauen Box?","Green","Blue","F","negation","mismatch","gesture","yes","HeadShake","female","gesture-speech","1422","800","edge-chromium","60.17","Windows 10","22","male","right","Tue Oct 01 2024 13:13:42 GMT+0200 (Mitteleuropäische Sommerzeit)","2","18","0","1727783020396"
"471","j","SpeechGestureMatch","../RequiredFiles/videos/NeinKopfJa_f_no_sound.mp4","Ist der Ball in der blauen Box?","Green","Blue","J","affirmation","na","gesture","na","HeadNod","female","gesture-speech","1422","800","edge-chromium","60.17","Windows 10","22","male","right","Tue Oct 01 2024 13:13:48 GMT+0200 (Mitteleuropäische Sommerzeit)","2","19","0","1727783020396"
"474","f","SpeechGestureMatch","../RequiredFiles/videos/JaKopfJa_f.mp4","Ist der Ball in der blauen Box?","Blue","Green","F","affirmation","match","gesture","yes","HeadNod","female","gesture-speech","1422","800","edge-chromium","60.17","Windows 10","22","male","right","Tue Oct 01 2024 13:13:54 GMT+0200 (Mitteleuropäische Sommerzeit)","2","20","0","1727783020396"
"440","j","SpeechGestureMatch","../RequiredFiles/videos/JaKopfJa_m_no_sound.mp4","Ist der Ball in der grünen Box?","Blue","Green","J","affirmation","na","gesture","na","HeadNod","male","gesture-speech","1422","800","edge-chromium","60.17","Windows 10","22","male","right","Tue Oct 01 2024 13:14:00 GMT+0200 (Mitteleuropäische Sommerzeit)","2","21","0","1727783020396"
"504","j","SpeechGestureMatch","../RequiredFiles/videos/NeinKopfNein_m_no_sound.mp4","Ist der Ball in der blauen Box?","Blue","Green","J","negation","na","gesture","na","HeadShake","male","gesture-speech","1422","800","edge-chromium","60.17","Windows 10","22","male","right","Tue Oct 01 2024 13:14:06 GMT+0200 (Mitteleuropäische Sommerzeit)","2","22","0","1727783020396"
"480","j","SpeechGestureMatch","../RequiredFiles/videos/JaKopfJa_f_no_sound.mp4","Ist der Ball in der blauen Box?","Green","Blue","J","affirmation","na","gesture","na","HeadNod","female","gesture-speech","1422","800","edge-chromium","60.17","Windows 10","22","male","right","Tue Oct 01 2024 13:14:12 GMT+0200 (Mitteleuropäische Sommerzeit)","2","23","0","1727783020396"
"558","j","SpeechGestureMatch","../RequiredFiles/videos/JaKopfJa_m.mp4","Ist der Ball in der grünen Box?","Blue","Green","J","affirmation","match","gesture","yes","HeadNod","male","gesture-speech","1422","800","edge-chromium","60.17","Windows 10","22","male","right","Tue Oct 01 2024 13:14:18 GMT+0200 (Mitteleuropäische Sommerzeit)","2","24","0","1727783020396"
"558","f","SpeechGestureMatch","../RequiredFiles/videos/JaKopfJa_f.mp4","Ist der Ball in der grünen Box?","Green","Blue","F","affirmation","match","gesture","yes","HeadNod","female","gesture-speech","1422","800","edge-chromium","60.17","Windows 10","22","male","right","Tue Oct 01 2024 13:14:24 GMT+0200 (Mitteleuropäische Sommerzeit)","2","25","0","1727783020396"
"591","j","SpeechGestureMatch","../RequiredFiles/videos/NeinKopfNein_f.mp4","Ist der Ball in der grünen Box?","Green","Blue","J","negation","match","gesture","no","HeadShake","female","gesture-speech","1422","800","edge-chromium","60.17","Windows 10","22","male","right","Tue Oct 01 2024 13:14:30 GMT+0200 (Mitteleuropäische Sommerzeit)","2","26","0","1727783020396"
"668","f","SpeechGestureMatch","../RequiredFiles/videos/NeinKopfNein_f.mp4","Ist der Ball in der blauen Box?","Green","Blue","F","negation","match","gesture","no","HeadShake","female","gesture-speech","1422","800","edge-chromium","60.17","Windows 10","22","male","right","Tue Oct 01 2024 13:14:37 GMT+0200 (Mitteleuropäische Sommerzeit)","2","27","0","1727783020396"
"497","j","SpeechGestureMatch","../RequiredFiles/videos/NeinKopfNein_f.mp4","Ist der Ball in der grünen Box?","Blue","Green","F","negation","match","gesture","no","HeadShake","female","gesture-speech","1422","800","edge-chromium","60.17","Windows 10","22","male","right","Tue Oct 01 2024 13:14:43 GMT+0200 (Mitteleuropäische Sommerzeit)","2","28","1","1727783020396"
"570","j","SpeechGestureMatch","../RequiredFiles/videos/NeinKopfNein_m_no_sound.mp4","Ist der Ball in der grünen Box?","Green","Blue","J","negation","na","gesture","na","HeadShake","male","gesture-speech","1422","800","edge-chromium","60.17","Windows 10","22","male","right","Tue Oct 01 2024 13:14:49 GMT+0200 (Mitteleuropäische Sommerzeit)","2","29","0","1727783020396"
"566","j","SpeechGestureMatch","../RequiredFiles/videos/NeinKopfNein_m.mp4","Ist der Ball in der blauen Box?","Blue","Green","J","negation","match","gesture","no","HeadShake","male","gesture-speech","1422","800","edge-chromium","60.17","Windows 10","22","male","right","Tue Oct 01 2024 13:14:55 GMT+0200 (Mitteleuropäische Sommerzeit)","2","30","0","1727783020396"
"623","j","SpeechGestureMatch","../RequiredFiles/videos/JaKopfNein_m.mp4","Ist der Ball in der blauen Box?","Blue","Green","J","negation","mismatch","gesture","yes","HeadShake","male","gesture-speech","1422","800","edge-chromium","60.17","Windows 10","22","male","right","Tue Oct 01 2024 13:15:01 GMT+0200 (Mitteleuropäische Sommerzeit)","2","31","0","1727783020396"
"590","f","SpeechGestureMatch","../RequiredFiles/videos/NeinKopfJa_m.mp4","Ist der Ball in der blauen Box?","Green","Blue","J","affirmation","mismatch","gesture","no","HeadNod","male","gesture-speech","1422","800","edge-chromium","60.17","Windows 10","22","male","right","Tue Oct 01 2024 13:15:07 GMT+0200 (Mitteleuropäische Sommerzeit)","2","32","1","1727783020396"
"550","f","SpeechGestureMatch","../RequiredFiles/videos/JaKopfNein_f.mp4","Ist der Ball in der grünen Box?","Blue","Green","F","negation","mismatch","gesture","yes","HeadShake","female","gesture-speech","1422","800","edge-chromium","60.17","Windows 10","22","male","right","Tue Oct 01 2024 13:15:13 GMT+0200 (Mitteleuropäische Sommerzeit)","2","33","0","1727783020396"
"626","j","SpeechGestureMatch","../RequiredFiles/videos/JaKopfNein_m.mp4","Ist der Ball in der grünen Box?","Green","Blue","J","negation","mismatch","gesture","yes","HeadShake","male","gesture-speech","1422","800","edge-chromium","60.17","Windows 10","22","male","right","Tue Oct 01 2024 13:15:19 GMT+0200 (Mitteleuropäische Sommerzeit)","2","34","0","1727783020396"
"652","j","SpeechGestureMatch","../RequiredFiles/videos/NeinKopfJa_f.mp4","Ist der Ball in der blauen Box?","Green","Blue","J","affirmation","mismatch","gesture","no","HeadNod","female","gesture-speech","1422","800","edge-chromium","60.17","Windows 10","22","male","right","Tue Oct 01 2024 13:15:26 GMT+0200 (Mitteleuropäische Sommerzeit)","2","35","0","1727783020396"
"499","j","SpeechGestureMatch","../RequiredFiles/videos/NeinKopfJa_m_no_sound.mp4","Ist der Ball in der grünen Box?","Blue","Green","J","affirmation","na","gesture","na","HeadNod","male","gesture-speech","1422","800","edge-chromium","60.17","Windows 10","22","male","right","Tue Oct 01 2024 13:15:32 GMT+0200 (Mitteleuropäische Sommerzeit)","2","36","0","1727783020396"
"624","j","SpeechGestureMatch","../RequiredFiles/videos/JaKopfNein_f.mp4","Ist der Ball in der grünen Box?","Green","Blue","J","negation","mismatch","gesture","yes","HeadShake","female","gesture-speech","1422","800","edge-chromium","60.17","Windows 10","22","male","right","Tue Oct 01 2024 13:15:38 GMT+0200 (Mitteleuropäische Sommerzeit)","2","37","0","1727783020396"
"513","f","SpeechGestureMatch","../RequiredFiles/videos/JaKopfJa_m.mp4","Ist der Ball in der blauen Box?","Blue","Green","F","affirmation","match","gesture","yes","HeadNod","male","gesture-speech","1422","800","edge-chromium","60.17","Windows 10","22","male","right","Tue Oct 01 2024 13:15:44 GMT+0200 (Mitteleuropäische Sommerzeit)","2","38","0","1727783020396"
"562","f","SpeechGestureMatch","../RequiredFiles/videos/JaKopfNein_f.mp4","Ist der Ball in der blauen Box?","Blue","Green","J","negation","mismatch","gesture","yes","HeadShake","female","gesture-speech","1422","800","edge-chromium","60.17","Windows 10","22","male","right","Tue Oct 01 2024 13:15:50 GMT+0200 (Mitteleuropäische Sommerzeit)","2","39","1","1727783020396"
"555","f","SpeechGestureMatch","../RequiredFiles/videos/JaKopfNein_m.mp4","Ist der Ball in der grünen Box?","Blue","Green","F","negation","mismatch","gesture","yes","HeadShake","male","gesture-speech","1422","800","edge-chromium","60.17","Windows 10","22","male","right","Tue Oct 01 2024 13:15:56 GMT+0200 (Mitteleuropäische Sommerzeit)","2","40","0","1727783020396"
"496","j","SpeechGestureMatch","../RequiredFiles/videos/JaKopfJa_m_no_sound.mp4","Ist der Ball in der blauen Box?","Green","Blue","J","affirmation","na","gesture","na","HeadNod","male","gesture-speech","1422","800","edge-chromium","60.17","Windows 10","22","male","right","Tue Oct 01 2024 13:16:02 GMT+0200 (Mitteleuropäische Sommerzeit)","2","41","0","1727783020396"
"602","f","SpeechGestureMatch","../RequiredFiles/videos/JaKopfNein_m.mp4","Ist der Ball in der blauen Box?","Green","Blue","F","negation","mismatch","gesture","yes","HeadShake","male","gesture-speech","1422","800","edge-chromium","60.17","Windows 10","22","male","right","Tue Oct 01 2024 13:16:08 GMT+0200 (Mitteleuropäische Sommerzeit)","2","42","0","1727783020396"
"543","j","SpeechGestureMatch","../RequiredFiles/videos/JaKopfJa_m.mp4","Ist der Ball in der grünen Box?","Green","Blue","F","affirmation","match","gesture","yes","HeadNod","male","gesture-speech","1422","800","edge-chromium","60.17","Windows 10","22","male","right","Tue Oct 01 2024 13:16:14 GMT+0200 (Mitteleuropäische Sommerzeit)","2","43","1","1727783020396"
"503","f","SpeechGestureMatch","../RequiredFiles/videos/JaKopfJa_m.mp4","Ist der Ball in der blauen Box?","Blue","Green","F","affirmation","match","gesture","yes","HeadNod","male","gesture-speech","1422","800","edge-chromium","60.17","Windows 10","22","male","right","Tue Oct 01 2024 13:16:20 GMT+0200 (Mitteleuropäische Sommerzeit)","2","44","0","1727783020396"
"464","f","SpeechGestureMatch","../RequiredFiles/videos/NeinKopfJa_f.mp4","Ist der Ball in der grünen Box?","Green","Blue","F","affirmation","mismatch","gesture","no","HeadNod","female","gesture-speech","1422","800","edge-chromium","60.17","Windows 10","22","male","right","Tue Oct 01 2024 13:16:26 GMT+0200 (Mitteleuropäische Sommerzeit)","2","45","0","1727783020396"
"529","f","SpeechGestureMatch","../RequiredFiles/videos/NeinKopfJa_m.mp4","Ist der Ball in der grünen Box?","Green","Blue","F","affirmation","mismatch","gesture","no","HeadNod","male","gesture-speech","1422","800","edge-chromium","60.17","Windows 10","22","male","right","Tue Oct 01 2024 13:16:33 GMT+0200 (Mitteleuropäische Sommerzeit)","2","46","0","1727783020396"
"518","f","SpeechGestureMatch","../RequiredFiles/videos/JaKopfNein_f_no_sound.mp4","Ist der Ball in der blauen Box?","Green","Blue","F","negation","na","gesture","na","HeadShake","female","gesture-speech","1422","800","edge-chromium","60.17","Windows 10","22","male","right","Tue Oct 01 2024 13:16:39 GMT+0200 (Mitteleuropäische Sommerzeit)","2","47","0","1727783020396"
"554","j","SpeechGestureMatch","../RequiredFiles/videos/JaKopfJa_m.mp4","Ist der Ball in der blauen Box?","Green","Blue","J","affirmation","match","gesture","yes","HeadNod","male","gesture-speech","1422","800","edge-chromium","60.17","Windows 10","22","male","right","Tue Oct 01 2024 13:16:45 GMT+0200 (Mitteleuropäische Sommerzeit)","2","48","0","1727783020396"
"452","f","SpeechGestureMatch","../RequiredFiles/videos/NeinKopfJa_m_no_sound.mp4","Ist der Ball in der grünen Box?","Green","Blue","F","affirmation","na","gesture","na","HeadNod","male","gesture-speech","1422","800","edge-chromium","60.17","Windows 10","22","male","right","Tue Oct 01 2024 13:16:51 GMT+0200 (Mitteleuropäische Sommerzeit)","2","49","0","1727783020396"
"609","f","SpeechGestureMatch","../RequiredFiles/videos/JaKopfNein_f.mp4","Ist der Ball in der blauen Box?","Blue","Green","J","negation","mismatch","gesture","yes","HeadShake","female","gesture-speech","1422","800","edge-chromium","60.17","Windows 10","22","male","right","Tue Oct 01 2024 13:16:57 GMT+0200 (Mitteleuropäische Sommerzeit)","2","50","1","1727783020396"
"492","f","SpeechGestureMatch","../RequiredFiles/videos/NeinKopfJa_m_no_sound.mp4","Ist der Ball in der blauen Box?","Blue","Green","F","affirmation","na","gesture","na","HeadNod","male","gesture-speech","1422","800","edge-chromium","60.17","Windows 10","22","male","right","Tue Oct 01 2024 13:17:03 GMT+0200 (Mitteleuropäische Sommerzeit)","2","51","0","1727783020396"
"552","f","SpeechGestureMatch","../RequiredFiles/videos/NeinKopfJa_m.mp4","Ist der Ball in der grünen Box?","Green","Blue","F","affirmation","mismatch","gesture","no","HeadNod","male","gesture-speech","1422","800","edge-chromium","60.17","Windows 10","22","male","right","Tue Oct 01 2024 13:17:09 GMT+0200 (Mitteleuropäische Sommerzeit)","2","52","0","1727783020396"
"471","j","SpeechGestureMatch","../RequiredFiles/videos/JaKopfJa_f_no_sound.mp4","Ist der Ball in der grünen Box?","Blue","Green","J","affirmation","na","gesture","na","HeadNod","female","gesture-speech","1422","800","edge-chromium","60.17","Windows 10","22","male","right","Tue Oct 01 2024 13:17:15 GMT+0200 (Mitteleuropäische Sommerzeit)","2","53","0","1727783020396"
"573","j","SpeechGestureMatch","../RequiredFiles/videos/NeinKopfNein_f_no_sound.mp4","Ist der Ball in der grünen Box?","Green","Blue","J","negation","na","gesture","na","HeadShake","female","gesture-speech","1422","800","edge-chromium","60.17","Windows 10","22","male","right","Tue Oct 01 2024 13:17:21 GMT+0200 (Mitteleuropäische Sommerzeit)","2","54","0","1727783020396"
"589","f","SpeechGestureMatch","../RequiredFiles/videos/NeinKopfJa_f.mp4","Ist der Ball in der blauen Box?","Blue","Green","F","affirmation","mismatch","gesture","no","HeadNod","female","gesture-speech","1422","800","edge-chromium","60.17","Windows 10","22","male","right","Tue Oct 01 2024 13:17:27 GMT+0200 (Mitteleuropäische Sommerzeit)","2","55","0","1727783020396"
"588","f","SpeechGestureMatch","../RequiredFiles/videos/NeinKopfNein_f_no_sound.mp4","Ist der Ball in der blauen Box?","Green","Blue","F","negation","na","gesture","na","HeadShake","female","gesture-speech","1422","800","edge-chromium","60.17","Windows 10","22","male","right","Tue Oct 01 2024 13:17:33 GMT+0200 (Mitteleuropäische Sommerzeit)","2","56","0","1727783020396"
"620","j","SpeechGestureMatch","../RequiredFiles/videos/JaKopfJa_f.mp4","Ist der Ball in der grünen Box?","Blue","Green","J","affirmation","match","gesture","yes","HeadNod","female","gesture-speech","1422","800","edge-chromium","60.17","Windows 10","22","male","right","Tue Oct 01 2024 13:17:40 GMT+0200 (Mitteleuropäische Sommerzeit)","2","57","0","1727783020396"
"574","j","SpeechGestureMatch","../RequiredFiles/videos/NeinKopfJa_m.mp4","Ist der Ball in der grünen Box?","Blue","Green","J","affirmation","mismatch","gesture","no","HeadNod","male","gesture-speech","1422","800","edge-chromium","60.17","Windows 10","22","male","right","Tue Oct 01 2024 13:17:46 GMT+0200 (Mitteleuropäische Sommerzeit)","2","58","0","1727783020396"
"599","j","SpeechGestureMatch","../RequiredFiles/videos/JaKopfNein_m.mp4","Ist der Ball in der grünen Box?","Green","Blue","J","negation","mismatch","gesture","yes","HeadShake","male","gesture-speech","1422","800","edge-chromium","60.17","Windows 10","22","male","right","Tue Oct 01 2024 13:17:52 GMT+0200 (Mitteleuropäische Sommerzeit)","2","59","0","1727783020396"
"586","f","SpeechGestureMatch","../RequiredFiles/videos/NeinKopfNein_m.mp4","Ist der Ball in der grünen Box?","Blue","Green","F","negation","match","gesture","no","HeadShake","male","gesture-speech","1422","800","edge-chromium","60.17","Windows 10","22","male","right","Tue Oct 01 2024 13:17:58 GMT+0200 (Mitteleuropäische Sommerzeit)","2","60","0","1727783020396"
"525","f","SpeechGestureMatch","../RequiredFiles/videos/JaKopfJa_f.mp4","Ist der Ball in der blauen Box?","Blue","Green","F","affirmation","match","gesture","yes","HeadNod","female","gesture-speech","1422","800","edge-chromium","60.17","Windows 10","22","male","right","Tue Oct 01 2024 13:18:04 GMT+0200 (Mitteleuropäische Sommerzeit)","2","61","0","1727783020396"
"535","f","SpeechGestureMatch","../RequiredFiles/videos/JaKopfNein_m_no_sound.mp4","Ist der Ball in der blauen Box?","Green","Blue","F","negation","na","gesture","na","HeadShake","male","gesture-speech","1422","800","edge-chromium","60.17","Windows 10","22","male","right","Tue Oct 01 2024 13:18:10 GMT+0200 (Mitteleuropäische Sommerzeit)","2","62","0","1727783020396"
"513","f","SpeechGestureMatch","../RequiredFiles/videos/JaKopfJa_m_no_sound.mp4","Ist der Ball in der blauen Box?","Blue","Green","F","affirmation","na","gesture","na","HeadNod","male","gesture-speech","1422","800","edge-chromium","60.17","Windows 10","22","male","right","Tue Oct 01 2024 13:18:16 GMT+0200 (Mitteleuropäische Sommerzeit)","2","63","0","1727783020396"
"488","f","SpeechGestureMatch","../RequiredFiles/videos/NeinKopfJa_f_no_sound.mp4","Ist der Ball in der grünen Box?","Blue","Green","J","affirmation","na","gesture","na","HeadNod","female","gesture-speech","1422","800","edge-chromium","60.17","Windows 10","22","male","right","Tue Oct 01 2024 13:18:22 GMT+0200 (Mitteleuropäische Sommerzeit)","2","64","1","1727783020396"
"654","j","SpeechGestureMatch","../RequiredFiles/videos/NeinKopfNein_f.mp4","Ist der Ball in der grünen Box?","Green","Blue","J","negation","match","gesture","no","HeadShake","female","gesture-speech","1422","800","edge-chromium","60.17","Windows 10","22","male","right","Tue Oct 01 2024 13:18:28 GMT+0200 (Mitteleuropäische Sommerzeit)","2","65","0","1727783020396"
"498","f","SpeechGestureMatch","../RequiredFiles/videos/NeinKopfJa_f.mp4","Ist der Ball in der blauen Box?","Blue","Green","F","affirmation","mismatch","gesture","no","HeadNod","female","gesture-speech","1422","800","edge-chromium","60.17","Windows 10","22","male","right","Tue Oct 01 2024 13:18:34 GMT+0200 (Mitteleuropäische Sommerzeit)","2","66","0","1727783020396"
"614","f","SpeechGestureMatch","../RequiredFiles/videos/NeinKopfNein_m.mp4","Ist der Ball in der blauen Box?","Green","Blue","F","negation","match","gesture","no","HeadShake","male","gesture-speech","1422","800","edge-chromium","60.17","Windows 10","22","male","right","Tue Oct 01 2024 13:18:41 GMT+0200 (Mitteleuropäische Sommerzeit)","2","67","0","1727783020396"
"539","j","SpeechGestureMatch","../RequiredFiles/videos/NeinKopfNein_m.mp4","Ist der Ball in der grünen Box?","Green","Blue","J","negation","match","gesture","no","HeadShake","male","gesture-speech","1422","800","edge-chromium","60.17","Windows 10","22","male","right","Tue Oct 01 2024 13:18:47 GMT+0200 (Mitteleuropäische Sommerzeit)","2","68","0","1727783020396"
"521","j","SpeechGestureMatch","../RequiredFiles/videos/JaKopfJa_f.mp4","Ist der Ball in der grünen Box?","Blue","Green","J","affirmation","match","gesture","yes","HeadNod","female","gesture-speech","1422","800","edge-chromium","60.17","Windows 10","22","male","right","Tue Oct 01 2024 13:18:53 GMT+0200 (Mitteleuropäische Sommerzeit)","2","69","0","1727783020396"
"476","j","SpeechGestureMatch","../RequiredFiles/videos/JaKopfJa_f.mp4","Ist der Ball in der blauen Box?","Green","Blue","J","affirmation","match","gesture","yes","HeadNod","female","gesture-speech","1422","800","edge-chromium","60.17","Windows 10","22","male","right","Tue Oct 01 2024 13:18:59 GMT+0200 (Mitteleuropäische Sommerzeit)","2","70","0","1727783020396"
"530","f","SpeechGestureMatch","../RequiredFiles/videos/JaKopfJa_m.mp4","Ist der Ball in der grünen Box?","Blue","Green","J","affirmation","match","gesture","yes","HeadNod","male","gesture-speech","1422","800","edge-chromium","60.17","Windows 10","22","male","right","Tue Oct 01 2024 13:19:05 GMT+0200 (Mitteleuropäische Sommerzeit)","2","71","1","1727783020396"
"439","f","SpeechGestureMatch","../RequiredFiles/videos/JaKopfNein_f.mp4","Ist der Ball in der grünen Box?","Green","Blue","J","negation","mismatch","gesture","yes","HeadShake","female","gesture-speech","1422","800","edge-chromium","60.17","Windows 10","22","male","right","Tue Oct 01 2024 13:19:11 GMT+0200 (Mitteleuropäische Sommerzeit)","2","72","1","1727783020396"
"713","f","SpeechGestureMatch","../RequiredFiles/videos/NeinKopfJa_m.mp4","Ist der Ball in der blauen Box?","Blue","Green","F","affirmation","mismatch","gesture","no","HeadNod","male","gesture-speech","1422","800","edge-chromium","60.17","Windows 10","22","male","right","Tue Oct 01 2024 13:19:17 GMT+0200 (Mitteleuropäische Sommerzeit)","2","73","0","1727783020396"
"524","f","SpeechGestureMatch","../RequiredFiles/videos/NeinKopfNein_m_no_sound.mp4","Ist der Ball in der blauen Box?","Green","Blue","F","negation","na","gesture","na","HeadShake","male","gesture-speech","1422","800","edge-chromium","60.17","Windows 10","22","male","right","Tue Oct 01 2024 13:19:23 GMT+0200 (Mitteleuropäische Sommerzeit)","2","74","0","1727783020396"
"683","j","SpeechGestureMatch","../RequiredFiles/videos/NeinKopfNein_f.mp4","Ist der Ball in der blauen Box?","Blue","Green","J","negation","match","gesture","no","HeadShake","female","gesture-speech","1422","800","edge-chromium","60.17","Windows 10","22","male","right","Tue Oct 01 2024 13:19:29 GMT+0200 (Mitteleuropäische Sommerzeit)","2","75","0","1727783020396"
"589","j","SpeechGestureMatch","../RequiredFiles/videos/NeinKopfJa_f.mp4","Ist der Ball in der blauen Box?","Green","Blue","J","affirmation","mismatch","gesture","no","HeadNod","female","gesture-speech","1422","800","edge-chromium","60.17","Windows 10","22","male","right","Tue Oct 01 2024 13:19:36 GMT+0200 (Mitteleuropäische Sommerzeit)","2","76","0","1727783020396"
"585","f","SpeechGestureMatch","../RequiredFiles/videos/JaKopfNein_f.mp4","Ist der Ball in der blauen Box?","Green","Blue","F","negation","mismatch","gesture","yes","HeadShake","female","gesture-speech","1422","800","edge-chromium","60.17","Windows 10","22","male","right","Tue Oct 01 2024 13:19:42 GMT+0200 (Mitteleuropäische Sommerzeit)","2","77","0","1727783020396"
"529","j","SpeechGestureMatch","../RequiredFiles/videos/NeinKopfNein_f_no_sound.mp4","Ist der Ball in der grünen Box?","Blue","Green","F","negation","na","gesture","na","HeadShake","female","gesture-speech","1422","800","edge-chromium","60.17","Windows 10","22","male","right","Tue Oct 01 2024 13:19:48 GMT+0200 (Mitteleuropäische Sommerzeit)","2","78","1","1727783020396"
"699","j","SpeechGestureMatch","../RequiredFiles/videos/JaKopfNein_m.mp4","Ist der Ball in der blauen Box?","Blue","Green","J","negation","mismatch","gesture","yes","HeadShake","male","gesture-speech","1422","800","edge-chromium","60.17","Windows 10","22","male","right","Tue Oct 01 2024 13:19:54 GMT+0200 (Mitteleuropäische Sommerzeit)","2","79","0","1727783020396"
"495","f","SpeechGestureMatch","../RequiredFiles/videos/NeinKopfNein_m_no_sound.mp4","Ist der Ball in der grünen Box?","Blue","Green","F","negation","na","gesture","na","HeadShake","male","gesture-speech","1422","800","edge-chromium","60.17","Windows 10","22","male","right","Tue Oct 01 2024 13:20:00 GMT+0200 (Mitteleuropäische Sommerzeit)","2","80","0","1727783020396"
"493","f","SpeechGestureMatch","../RequiredFiles/videos/JaKopfNein_f.mp4","Ist der Ball in der grünen Box?","Blue","Green","F","negation","mismatch","gesture","yes","HeadShake","female","gesture-speech","1422","800","edge-chromium","60.17","Windows 10","22","male","right","Tue Oct 01 2024 13:20:06 GMT+0200 (Mitteleuropäische Sommerzeit)","2","81","0","1727783020396"
"591","f","SpeechGestureMatch","../RequiredFiles/videos/NeinKopfNein_f.mp4","Ist der Ball in der grünen Box?","Blue","Green","F","negation","match","gesture","no","HeadShake","female","gesture-speech","1422","800","edge-chromium","60.17","Windows 10","22","male","right","Tue Oct 01 2024 13:20:12 GMT+0200 (Mitteleuropäische Sommerzeit)","2","82","0","1727783020396"
"473","j","SpeechGestureMatch","../RequiredFiles/videos/NeinKopfJa_f_no_sound.mp4","Ist der Ball in der grünen Box?","Green","Blue","F","affirmation","na","gesture","na","HeadNod","female","gesture-speech","1422","800","edge-chromium","60.17","Windows 10","22","male","right","Tue Oct 01 2024 13:20:18 GMT+0200 (Mitteleuropäische Sommerzeit)","2","83","1","1727783020396"
"533","f","SpeechGestureMatch","../RequiredFiles/videos/NeinKopfNein_m.mp4","Ist der Ball in der blauen Box?","Green","Blue","F","negation","match","gesture","no","HeadShake","male","gesture-speech","1422","800","edge-chromium","60.17","Windows 10","22","male","right","Tue Oct 01 2024 13:20:24 GMT+0200 (Mitteleuropäische Sommerzeit)","2","84","0","1727783020396"
"510","j","SpeechGestureMatch","../RequiredFiles/videos/NeinKopfJa_m.mp4","Ist der Ball in der blauen Box?","Green","Blue","J","affirmation","mismatch","gesture","no","HeadNod","male","gesture-speech","1422","800","edge-chromium","60.17","Windows 10","22","male","right","Tue Oct 01 2024 13:20:30 GMT+0200 (Mitteleuropäische Sommerzeit)","2","85","0","1727783020396"
"644","f","SpeechGestureMatch","../RequiredFiles/videos/NeinKopfNein_m.mp4","Ist der Ball in der grünen Box?","Blue","Green","F","negation","match","gesture","no","HeadShake","male","gesture-speech","1422","800","edge-chromium","60.17","Windows 10","22","male","right","Tue Oct 01 2024 13:20:37 GMT+0200 (Mitteleuropäische Sommerzeit)","2","86","0","1727783020396"
"536","j","SpeechGestureMatch","../RequiredFiles/videos/JaKopfNein_m.mp4","Ist der Ball in der blauen Box?","Green","Blue","F","negation","mismatch","gesture","yes","HeadShake","male","gesture-speech","1422","800","edge-chromium","60.17","Windows 10","22","male","right","Tue Oct 01 2024 13:20:43 GMT+0200 (Mitteleuropäische Sommerzeit)","2","87","1","1727783020396"
"523","f","SpeechGestureMatch","../RequiredFiles/videos/JaKopfNein_m.mp4","Ist der Ball in der grünen Box?","Blue","Green","F","negation","mismatch","gesture","yes","HeadShake","male","gesture-speech","1422","800","edge-chromium","60.17","Windows 10","22","male","right","Tue Oct 01 2024 13:20:49 GMT+0200 (Mitteleuropäische Sommerzeit)","2","88","0","1727783020396"
"609","j","SpeechGestureMatch","../RequiredFiles/videos/NeinKopfJa_f.mp4","Ist der Ball in der grünen Box?","Blue","Green","J","affirmation","mismatch","gesture","no","HeadNod","female","gesture-speech","1422","800","edge-chromium","60.17","Windows 10","22","male","right","Tue Oct 01 2024 13:20:55 GMT+0200 (Mitteleuropäische Sommerzeit)","2","89","0","1727783020396"
"540","j","SpeechGestureMatch","../RequiredFiles/videos/JaKopfNein_m_no_sound.mp4","Ist der Ball in der blauen Box?","Blue","Green","J","negation","na","gesture","na","HeadShake","male","gesture-speech","1422","800","edge-chromium","60.17","Windows 10","22","male","right","Tue Oct 01 2024 13:21:01 GMT+0200 (Mitteleuropäische Sommerzeit)","2","90","0","1727783020396"
"504","f","SpeechGestureMatch","../RequiredFiles/videos/JaKopfNein_f_no_sound.mp4","Ist der Ball in der grünen Box?","Blue","Green","F","negation","na","gesture","na","HeadShake","female","gesture-speech","1422","800","edge-chromium","60.17","Windows 10","22","male","right","Tue Oct 01 2024 13:21:07 GMT+0200 (Mitteleuropäische Sommerzeit)","2","91","0","1727783020396"
"592","f","SpeechGestureMatch","../RequiredFiles/videos/JaKopfJa_f_no_sound.mp4","Ist der Ball in der blauen Box?","Blue","Green","F","affirmation","na","gesture","na","HeadNod","female","gesture-speech","1422","800","edge-chromium","60.17","Windows 10","22","male","right","Tue Oct 01 2024 13:21:13 GMT+0200 (Mitteleuropäische Sommerzeit)","2","92","0","1727783020396"
"483","f","SpeechGestureMatch","../RequiredFiles/videos/NeinKopfJa_m.mp4","Ist der Ball in der grünen Box?","Blue","Green","J","affirmation","mismatch","gesture","no","HeadNod","male","gesture-speech","1422","800","edge-chromium","60.17","Windows 10","22","male","right","Tue Oct 01 2024 13:21:19 GMT+0200 (Mitteleuropäische Sommerzeit)","2","93","1","1727783020396"
"527","j","SpeechGestureMatch","../RequiredFiles/videos/JaKopfJa_f.mp4","Ist der Ball in der blauen Box?","Green","Blue","J","affirmation","match","gesture","yes","HeadNod","female","gesture-speech","1422","800","edge-chromium","60.17","Windows 10","22","male","right","Tue Oct 01 2024 13:21:25 GMT+0200 (Mitteleuropäische Sommerzeit)","2","94","0","1727783020396"
"519","j","SpeechGestureMatch","../RequiredFiles/videos/NeinKopfNein_m.mp4","Ist der Ball in der grünen Box?","Green","Blue","J","negation","match","gesture","no","HeadShake","male","gesture-speech","1422","800","edge-chromium","60.17","Windows 10","22","male","right","Tue Oct 01 2024 13:21:31 GMT+0200 (Mitteleuropäische Sommerzeit)","2","95","0","1727783020396"
"562","j","SpeechGestureMatch","../RequiredFiles/videos/JaKopfNein_m_no_sound.mp4","Ist der Ball in der grünen Box?","Green","Blue","J","negation","na","gesture","na","HeadShake","male","gesture-speech","1422","800","edge-chromium","60.17","Windows 10","22","male","right","Tue Oct 01 2024 13:21:37 GMT+0200 (Mitteleuropäische Sommerzeit)","2","96","0","1727783020396"
"682","j","SpeechGestureMatch","../RequiredFiles/videos/NeinKopfNein_m.mp4","Ist der Ball in der blauen Box?","Blue","Green","J","negation","match","speech","no","HeadShake","male","gesture-speech","1422","800","edge-chromium","60.17","Windows 10","22","male","right","Tue Oct 01 2024 13:23:21 GMT+0200 (Mitteleuropäische Sommerzeit)","3","1","0","1727783020396"
"572","f","SpeechGestureMatch","../RequiredFiles/videos/JaKopfJa_m.mp4","Ist der Ball in der grünen Box?","Blue","Green","J","affirmation","match","speech","yes","HeadNod","male","gesture-speech","1422","800","edge-chromium","60.17","Windows 10","22","male","right","Tue Oct 01 2024 13:23:27 GMT+0200 (Mitteleuropäische Sommerzeit)","3","2","1","1727783020396"
"550","f","SpeechGestureMatch","../RequiredFiles/videos/NeinKopfJa_m.mp4","Ist der Ball in der grünen Box?","Blue","Green","F","negation","mismatch","speech","no","HeadNod","male","gesture-speech","1422","800","edge-chromium","60.17","Windows 10","22","male","right","Tue Oct 01 2024 13:23:33 GMT+0200 (Mitteleuropäische Sommerzeit)","3","3","0","1727783020396"
"574","f","SpeechGestureMatch","../RequiredFiles/videos/NeinKopfNein_m.mp4","Ist der Ball in der grünen Box?","Blue","Green","F","negation","match","speech","no","HeadShake","male","gesture-speech","1422","800","edge-chromium","60.17","Windows 10","22","male","right","Tue Oct 01 2024 13:23:39 GMT+0200 (Mitteleuropäische Sommerzeit)","3","4","0","1727783020396"
"608","j","SpeechGestureMatch","../RequiredFiles/videos/NeinKopfNein_f.mp4","Ist der Ball in der grünen Box?","Green","Blue","J","negation","match","speech","no","HeadShake","female","gesture-speech","1422","800","edge-chromium","60.17","Windows 10","22","male","right","Tue Oct 01 2024 13:23:45 GMT+0200 (Mitteleuropäische Sommerzeit)","3","5","0","1727783020396"
"612","j","SpeechGestureMatch","../RequiredFiles/videos/NeinKopfJa_m.mp4","Ist der Ball in der grünen Box?","Green","Blue","J","negation","mismatch","speech","no","HeadNod","male","gesture-speech","1422","800","edge-chromium","60.17","Windows 10","22","male","right","Tue Oct 01 2024 13:23:51 GMT+0200 (Mitteleuropäische Sommerzeit)","3","6","0","1727783020396"
"518","j","SpeechGestureMatch","../RequiredFiles/videos/JaKopfJa_f.mp4","Ist der Ball in der blauen Box?","Green","Blue","J","affirmation","match","speech","yes","HeadNod","female","gesture-speech","1422","800","edge-chromium","60.17","Windows 10","22","male","right","Tue Oct 01 2024 13:23:57 GMT+0200 (Mitteleuropäische Sommerzeit)","3","7","0","1727783020396"
"517","j","SpeechGestureMatch","../RequiredFiles/videos/NeinKopfNein_m.mp4","Ist der Ball in der blauen Box?","Blue","Green","J","negation","match","speech","no","HeadShake","male","gesture-speech","1422","800","edge-chromium","60.17","Windows 10","22","male","right","Tue Oct 01 2024 13:24:03 GMT+0200 (Mitteleuropäische Sommerzeit)","3","8","0","1727783020396"
"556","f","SpeechGestureMatch","../RequiredFiles/videos/JaKopfJa_f.mp4","Ist der Ball in der blauen Box?","Blue","Green","F","affirmation","match","speech","yes","HeadNod","female","gesture-speech","1422","800","edge-chromium","60.17","Windows 10","22","male","right","Tue Oct 01 2024 13:24:09 GMT+0200 (Mitteleuropäische Sommerzeit)","3","9","0","1727783020396"
"699","j","SpeechGestureMatch","../RequiredFiles/videos/NeinKopfJa_f_no_gesture.mp4","Ist der Ball in der grünen Box?","Green","Blue","J","negation","na","speech","no","na","female","gesture-speech","1422","800","edge-chromium","60.17","Windows 10","22","male","right","Tue Oct 01 2024 13:24:16 GMT+0200 (Mitteleuropäische Sommerzeit)","3","10","0","1727783020396"
"503","j","SpeechGestureMatch","../RequiredFiles/videos/NeinKopfNein_f.mp4","Ist der Ball in der blauen Box?","Green","Blue","F","negation","match","speech","no","HeadShake","female","gesture-speech","1422","800","edge-chromium","60.17","Windows 10","22","male","right","Tue Oct 01 2024 13:24:22 GMT+0200 (Mitteleuropäische Sommerzeit)","3","11","1","1727783020396"
"608","j","SpeechGestureMatch","../RequiredFiles/videos/JaKopfNein_m.mp4","Ist der Ball in der blauen Box?","Blue","Green","F","affirmation","mismatch","speech","yes","HeadShake","male","gesture-speech","1422","800","edge-chromium","60.17","Windows 10","22","male","right","Tue Oct 01 2024 13:24:28 GMT+0200 (Mitteleuropäische Sommerzeit)","3","12","1","1727783020396"
"578","f","SpeechGestureMatch","../RequiredFiles/videos/NeinKopfJa_m.mp4","Ist der Ball in der blauen Box?","Blue","Green","J","negation","mismatch","speech","no","HeadNod","male","gesture-speech","1422","800","edge-chromium","60.17","Windows 10","22","male","right","Tue Oct 01 2024 13:24:34 GMT+0200 (Mitteleuropäische Sommerzeit)","3","13","1","1727783020396"
"728","j","SpeechGestureMatch","../RequiredFiles/videos/JaKopfNein_m_no_gesture.mp4","Ist der Ball in der blauen Box?","Green","Blue","J","affirmation","na","speech","yes","na","male","gesture-speech","1422","800","edge-chromium","60.17","Windows 10","22","male","right","Tue Oct 01 2024 13:24:40 GMT+0200 (Mitteleuropäische Sommerzeit)","3","14","0","1727783020396"
"666","j","SpeechGestureMatch","../RequiredFiles/videos/JaKopfJa_f.mp4","Ist der Ball in der grünen Box?","Blue","Green","J","affirmation","match","speech","yes","HeadNod","female","gesture-speech","1422","800","edge-chromium","60.17","Windows 10","22","male","right","Tue Oct 01 2024 13:24:47 GMT+0200 (Mitteleuropäische Sommerzeit)","3","15","0","1727783020396"
"693","f","SpeechGestureMatch","../RequiredFiles/videos/NeinKopfNein_f_no_gesture.mp4","Ist der Ball in der grünen Box?","Blue","Green","F","negation","na","speech","no","na","female","gesture-speech","1422","800","edge-chromium","60.17","Windows 10","22","male","right","Tue Oct 01 2024 13:24:53 GMT+0200 (Mitteleuropäische Sommerzeit)","3","16","0","1727783020396"
"585","f","SpeechGestureMatch","../RequiredFiles/videos/JaKopfJa_m.mp4","Ist der Ball in der blauen Box?","Blue","Green","F","affirmation","match","speech","yes","HeadNod","male","gesture-speech","1422","800","edge-chromium","60.17","Windows 10","22","male","right","Tue Oct 01 2024 13:24:59 GMT+0200 (Mitteleuropäische Sommerzeit)","3","17","0","1727783020396"
"645","j","SpeechGestureMatch","../RequiredFiles/videos/JaKopfNein_f.mp4","Ist der Ball in der blauen Box?","Green","Blue","J","affirmation","mismatch","speech","yes","HeadShake","female","gesture-speech","1422","800","edge-chromium","60.17","Windows 10","22","male","right","Tue Oct 01 2024 13:25:05 GMT+0200 (Mitteleuropäische Sommerzeit)","3","18","0","1727783020396"
"676","j","SpeechGestureMatch","../RequiredFiles/videos/JaKopfNein_m.mp4","Ist der Ball in der grünen Box?","Green","Blue","F","affirmation","mismatch","speech","yes","HeadShake","male","gesture-speech","1422","800","edge-chromium","60.17","Windows 10","22","male","right","Tue Oct 01 2024 13:25:11 GMT+0200 (Mitteleuropäische Sommerzeit)","3","19","1","1727783020396"
"676","f","SpeechGestureMatch","../RequiredFiles/videos/JaKopfNein_f.mp4","Ist der Ball in der blauen Box?","Blue","Green","F","affirmation","mismatch","speech","yes","HeadShake","female","gesture-speech","1422","800","edge-chromium","60.17","Windows 10","22","male","right","Tue Oct 01 2024 13:25:17 GMT+0200 (Mitteleuropäische Sommerzeit)","3","20","0","1727783020396"
"565","f","SpeechGestureMatch","../RequiredFiles/videos/JaKopfNein_m.mp4","Ist der Ball in der grünen Box?","Blue","Green","J","affirmation","mismatch","speech","yes","HeadShake","male","gesture-speech","1422","800","edge-chromium","60.17","Windows 10","22","male","right","Tue Oct 01 2024 13:25:24 GMT+0200 (Mitteleuropäische Sommerzeit)","3","21","1","1727783020396"
"650","j","SpeechGestureMatch","../RequiredFiles/videos/JaKopfNein_f.mp4","Ist der Ball in der blauen Box?","Green","Blue","J","affirmation","mismatch","speech","yes","HeadShake","female","gesture-speech","1422","800","edge-chromium","60.17","Windows 10","22","male","right","Tue Oct 01 2024 13:25:30 GMT+0200 (Mitteleuropäische Sommerzeit)","3","22","0","1727783020396"
"594","f","SpeechGestureMatch","../RequiredFiles/videos/JaKopfJa_f_no_gesture.mp4","Ist der Ball in der blauen Box?","Blue","Green","F","affirmation","na","speech","yes","na","female","gesture-speech","1422","800","edge-chromium","60.17","Windows 10","22","male","right","Tue Oct 01 2024 13:25:36 GMT+0200 (Mitteleuropäische Sommerzeit)","3","23","0","1727783020396"
"664","f","SpeechGestureMatch","../RequiredFiles/videos/JaKopfJa_m_no_gesture.mp4","Ist der Ball in der blauen Box?","Blue","Green","F","affirmation","na","speech","yes","na","male","gesture-speech","1422","800","edge-chromium","60.17","Windows 10","22","male","right","Tue Oct 01 2024 13:25:42 GMT+0200 (Mitteleuropäische Sommerzeit)","3","24","0","1727783020396"
"588","j","SpeechGestureMatch","../RequiredFiles/videos/JaKopfJa_f.mp4","Ist der Ball in der blauen Box?","Green","Blue","J","affirmation","match","speech","yes","HeadNod","female","gesture-speech","1422","800","edge-chromium","60.17","Windows 10","22","male","right","Tue Oct 01 2024 13:25:48 GMT+0200 (Mitteleuropäische Sommerzeit)","3","25","0","1727783020396"
"614","f","SpeechGestureMatch","../RequiredFiles/videos/JaKopfJa_m_no_gesture.mp4","Ist der Ball in der grünen Box?","Green","Blue","F","affirmation","na","speech","yes","na","male","gesture-speech","1422","800","edge-chromium","60.17","Windows 10","22","male","right","Tue Oct 01 2024 13:25:54 GMT+0200 (Mitteleuropäische Sommerzeit)","3","26","0","1727783020396"
"709","j","SpeechGestureMatch","../RequiredFiles/videos/NeinKopfJa_m_no_gesture.mp4","Ist der Ball in der grünen Box?","Green","Blue","J","negation","na","speech","no","na","male","gesture-speech","1422","800","edge-chromium","60.17","Windows 10","22","male","right","Tue Oct 01 2024 13:26:01 GMT+0200 (Mitteleuropäische Sommerzeit)","3","27","0","1727783020396"
"605","f","SpeechGestureMatch","../RequiredFiles/videos/JaKopfNein_m.mp4","Ist der Ball in der blauen Box?","Green","Blue","J","affirmation","mismatch","speech","yes","HeadShake","male","gesture-speech","1422","800","edge-chromium","60.17","Windows 10","22","male","right","Tue Oct 01 2024 13:26:07 GMT+0200 (Mitteleuropäische Sommerzeit)","3","28","1","1727783020396"
"554","f","SpeechGestureMatch","../RequiredFiles/videos/NeinKopfNein_m.mp4","Ist der Ball in der blauen Box?","Green","Blue","F","negation","match","speech","no","HeadShake","male","gesture-speech","1422","800","edge-chromium","60.17","Windows 10","22","male","right","Tue Oct 01 2024 13:26:13 GMT+0200 (Mitteleuropäische Sommerzeit)","3","29","0","1727783020396"
"644","j","SpeechGestureMatch","../RequiredFiles/videos/NeinKopfNein_f.mp4","Ist der Ball in der blauen Box?","Blue","Green","J","negation","match","speech","no","HeadShake","female","gesture-speech","1422","800","edge-chromium","60.17","Windows 10","22","male","right","Tue Oct 01 2024 13:26:19 GMT+0200 (Mitteleuropäische Sommerzeit)","3","30","0","1727783020396"
"695","j","SpeechGestureMatch","../RequiredFiles/videos/NeinKopfJa_f.mp4","Ist der Ball in der blauen Box?","Blue","Green","J","negation","mismatch","speech","no","HeadNod","female","gesture-speech","1422","800","edge-chromium","60.17","Windows 10","22","male","right","Tue Oct 01 2024 13:26:25 GMT+0200 (Mitteleuropäische Sommerzeit)","3","31","0","1727783020396"
"672","f","SpeechGestureMatch","../RequiredFiles/videos/NeinKopfNein_m.mp4","Ist der Ball in der grünen Box?","Blue","Green","F","negation","match","speech","no","HeadShake","male","gesture-speech","1422","800","edge-chromium","60.17","Windows 10","22","male","right","Tue Oct 01 2024 13:26:32 GMT+0200 (Mitteleuropäische Sommerzeit)","3","32","0","1727783020396"
"559","f","SpeechGestureMatch","../RequiredFiles/videos/JaKopfJa_f.mp4","Ist der Ball in der grünen Box?","Green","Blue","F","affirmation","match","speech","yes","HeadNod","female","gesture-speech","1422","800","edge-chromium","60.17","Windows 10","22","male","right","Tue Oct 01 2024 13:26:38 GMT+0200 (Mitteleuropäische Sommerzeit)","3","33","0","1727783020396"
"607","f","SpeechGestureMatch","../RequiredFiles/videos/NeinKopfNein_m_no_gesture.mp4","Ist der Ball in der grünen Box?","Blue","Green","F","negation","na","speech","no","na","male","gesture-speech","1422","800","edge-chromium","60.17","Windows 10","22","male","right","Tue Oct 01 2024 13:26:44 GMT+0200 (Mitteleuropäische Sommerzeit)","3","34","0","1727783020396"
"557","f","SpeechGestureMatch","../RequiredFiles/videos/NeinKopfJa_m.mp4","Ist der Ball in der grünen Box?","Green","Blue","J","negation","mismatch","speech","no","HeadNod","male","gesture-speech","1422","800","edge-chromium","60.17","Windows 10","22","male","right","Tue Oct 01 2024 13:26:50 GMT+0200 (Mitteleuropäische Sommerzeit)","3","35","1","1727783020396"
"728","f","SpeechGestureMatch","../RequiredFiles/videos/NeinKopfNein_f.mp4","Ist der Ball in der grünen Box?","Blue","Green","F","negation","match","speech","no","HeadShake","female","gesture-speech","1422","800","edge-chromium","60.17","Windows 10","22","male","right","Tue Oct 01 2024 13:26:56 GMT+0200 (Mitteleuropäische Sommerzeit)","3","36","0","1727783020396"
"575","f","SpeechGestureMatch","../RequiredFiles/videos/NeinKopfNein_m.mp4","Ist der Ball in der blauen Box?","Green","Blue","F","negation","match","speech","no","HeadShake","male","gesture-speech","1422","800","edge-chromium","60.17","Windows 10","22","male","right","Tue Oct 01 2024 13:27:02 GMT+0200 (Mitteleuropäische Sommerzeit)","3","37","0","1727783020396"
"755","j","SpeechGestureMatch","../RequiredFiles/videos/JaKopfNein_f.mp4","Ist der Ball in der grünen Box?","Blue","Green","J","affirmation","mismatch","speech","yes","HeadShake","female","gesture-speech","1422","800","edge-chromium","60.17","Windows 10","22","male","right","Tue Oct 01 2024 13:27:09 GMT+0200 (Mitteleuropäische Sommerzeit)","3","38","0","1727783020396"
"575","j","SpeechGestureMatch","../RequiredFiles/videos/NeinKopfNein_m.mp4","Ist der Ball in der grünen Box?","Green","Blue","J","negation","match","speech","no","HeadShake","male","gesture-speech","1422","800","edge-chromium","60.17","Windows 10","22","male","right","Tue Oct 01 2024 13:27:15 GMT+0200 (Mitteleuropäische Sommerzeit)","3","39","0","1727783020396"
"700","f","SpeechGestureMatch","../RequiredFiles/videos/JaKopfNein_m_no_gesture.mp4","Ist der Ball in der blauen Box?","Blue","Green","F","affirmation","na","speech","yes","na","male","gesture-speech","1422","800","edge-chromium","60.17","Windows 10","22","male","right","Tue Oct 01 2024 13:27:21 GMT+0200 (Mitteleuropäische Sommerzeit)","3","40","0","1727783020396"
"701","j","SpeechGestureMatch","../RequiredFiles/videos/NeinKopfJa_f.mp4","Ist der Ball in der blauen Box?","Blue","Green","J","negation","mismatch","speech","no","HeadNod","female","gesture-speech","1422","800","edge-chromium","60.17","Windows 10","22","male","right","Tue Oct 01 2024 13:27:27 GMT+0200 (Mitteleuropäische Sommerzeit)","3","41","0","1727783020396"
"770","f","SpeechGestureMatch","../RequiredFiles/videos/JaKopfNein_f.mp4","Ist der Ball in der grünen Box?","Green","Blue","F","affirmation","mismatch","speech","yes","HeadShake","female","gesture-speech","1422","800","edge-chromium","60.17","Windows 10","22","male","right","Tue Oct 01 2024 13:27:33 GMT+0200 (Mitteleuropäische Sommerzeit)","3","42","0","1727783020396"
"568","j","SpeechGestureMatch","../RequiredFiles/videos/JaKopfJa_f_no_gesture.mp4","Ist der Ball in der grünen Box?","Blue","Green","J","affirmation","na","speech","yes","na","female","gesture-speech","1422","800","edge-chromium","60.17","Windows 10","22","male","right","Tue Oct 01 2024 13:27:40 GMT+0200 (Mitteleuropäische Sommerzeit)","3","43","0","1727783020396"
"694","f","SpeechGestureMatch","../RequiredFiles/videos/NeinKopfNein_f.mp4","Ist der Ball in der grünen Box?","Blue","Green","F","negation","match","speech","no","HeadShake","female","gesture-speech","1422","800","edge-chromium","60.17","Windows 10","22","male","right","Tue Oct 01 2024 13:27:46 GMT+0200 (Mitteleuropäische Sommerzeit)","3","44","0","1727783020396"
"580","j","SpeechGestureMatch","../RequiredFiles/videos/JaKopfJa_m_no_gesture.mp4","Ist der Ball in der grünen Box?","Blue","Green","J","affirmation","na","speech","yes","na","male","gesture-speech","1422","800","edge-chromium","60.17","Windows 10","22","male","right","Tue Oct 01 2024 13:27:52 GMT+0200 (Mitteleuropäische Sommerzeit)","3","45","0","1727783020396"
"644","j","SpeechGestureMatch","../RequiredFiles/videos/NeinKopfNein_m_no_gesture.mp4","Ist der Ball in der blauen Box?","Blue","Green","J","negation","na","speech","no","na","male","gesture-speech","1422","800","edge-chromium","60.17","Windows 10","22","male","right","Tue Oct 01 2024 13:27:58 GMT+0200 (Mitteleuropäische Sommerzeit)","3","46","0","1727783020396"
"515","j","SpeechGestureMatch","../RequiredFiles/videos/NeinKopfJa_f.mp4","Ist der Ball in der grünen Box?","Blue","Green","F","negation","mismatch","speech","no","HeadNod","female","gesture-speech","1422","800","edge-chromium","60.17","Windows 10","22","male","right","Tue Oct 01 2024 13:28:04 GMT+0200 (Mitteleuropäische Sommerzeit)","3","47","1","1727783020396"
"528","f","SpeechGestureMatch","../RequiredFiles/videos/NeinKopfJa_f.mp4","Ist der Ball in der grünen Box?","Green","Blue","J","negation","mismatch","speech","no","HeadNod","female","gesture-speech","1422","800","edge-chromium","60.17","Windows 10","22","male","right","Tue Oct 01 2024 13:28:10 GMT+0200 (Mitteleuropäische Sommerzeit)","3","48","1","1727783020396"
"673","f","SpeechGestureMatch","../RequiredFiles/videos/NeinKopfJa_m_no_gesture.mp4","Ist der Ball in der blauen Box?","Green","Blue","F","negation","na","speech","no","na","male","gesture-speech","1422","800","edge-chromium","60.17","Windows 10","22","male","right","Tue Oct 01 2024 13:28:16 GMT+0200 (Mitteleuropäische Sommerzeit)","3","49","0","1727783020396"
"641","j","SpeechGestureMatch","../RequiredFiles/videos/NeinKopfNein_f.mp4","Ist der Ball in der grünen Box?","Green","Blue","J","negation","match","speech","no","HeadShake","female","gesture-speech","1422","800","edge-chromium","60.17","Windows 10","22","male","right","Tue Oct 01 2024 13:28:23 GMT+0200 (Mitteleuropäische Sommerzeit)","3","50","0","1727783020396"
"664","j","SpeechGestureMatch","../RequiredFiles/videos/JaKopfNein_f.mp4","Ist der Ball in der grünen Box?","Blue","Green","J","affirmation","mismatch","speech","yes","HeadShake","female","gesture-speech","1422","800","edge-chromium","60.17","Windows 10","22","male","right","Tue Oct 01 2024 13:28:29 GMT+0200 (Mitteleuropäische Sommerzeit)","3","51","0","1727783020396"
"708","f","SpeechGestureMatch","../RequiredFiles/videos/NeinKopfJa_f.mp4","Ist der Ball in der grünen Box?","Blue","Green","F","negation","mismatch","speech","no","HeadNod","female","gesture-speech","1422","800","edge-chromium","60.17","Windows 10","22","male","right","Tue Oct 01 2024 13:28:35 GMT+0200 (Mitteleuropäische Sommerzeit)","3","52","0","1727783020396"
"544","f","SpeechGestureMatch","../RequiredFiles/videos/JaKopfJa_f.mp4","Ist der Ball in der blauen Box?","Blue","Green","F","affirmation","match","speech","yes","HeadNod","female","gesture-speech","1422","800","edge-chromium","60.17","Windows 10","22","male","right","Tue Oct 01 2024 13:28:41 GMT+0200 (Mitteleuropäische Sommerzeit)","3","53","0","1727783020396"
"632","f","SpeechGestureMatch","../RequiredFiles/videos/NeinKopfNein_f.mp4","Ist der Ball in der blauen Box?","Green","Blue","F","negation","match","speech","no","HeadShake","female","gesture-speech","1422","800","edge-chromium","60.17","Windows 10","22","male","right","Tue Oct 01 2024 13:28:47 GMT+0200 (Mitteleuropäische Sommerzeit)","3","54","0","1727783020396"
"579","f","SpeechGestureMatch","../RequiredFiles/videos/JaKopfJa_m.mp4","Ist der Ball in der grünen Box?","Green","Blue","F","affirmation","match","speech","yes","HeadNod","male","gesture-speech","1422","800","edge-chromium","60.17","Windows 10","22","male","right","Tue Oct 01 2024 13:28:53 GMT+0200 (Mitteleuropäische Sommerzeit)","3","55","0","1727783020396"
"559","j","SpeechGestureMatch","../RequiredFiles/videos/JaKopfJa_m.mp4","Ist der Ball in der grünen Box?","Blue","Green","J","affirmation","match","speech","yes","HeadNod","male","gesture-speech","1422","800","edge-chromium","60.17","Windows 10","22","male","right","Tue Oct 01 2024 13:29:00 GMT+0200 (Mitteleuropäische Sommerzeit)","3","56","0","1727783020396"
"681","f","SpeechGestureMatch","../RequiredFiles/videos/NeinKopfJa_m.mp4","Ist der Ball in der blauen Box?","Green","Blue","F","negation","mismatch","speech","no","HeadNod","male","gesture-speech","1422","800","edge-chromium","60.17","Windows 10","22","male","right","Tue Oct 01 2024 13:29:06 GMT+0200 (Mitteleuropäische Sommerzeit)","3","57","0","1727783020396"
"595","j","SpeechGestureMatch","../RequiredFiles/videos/JaKopfNein_f.mp4","Ist der Ball in der grünen Box?","Green","Blue","F","affirmation","mismatch","speech","yes","HeadShake","female","gesture-speech","1422","800","edge-chromium","60.17","Windows 10","22","male","right","Tue Oct 01 2024 13:29:12 GMT+0200 (Mitteleuropäische Sommerzeit)","3","58","1","1727783020396"
"584","j","SpeechGestureMatch","../RequiredFiles/videos/JaKopfNein_f_no_gesture.mp4","Ist der Ball in der blauen Box?","Green","Blue","J","affirmation","na","speech","yes","na","female","gesture-speech","1422","800","edge-chromium","60.17","Windows 10","22","male","right","Tue Oct 01 2024 13:29:18 GMT+0200 (Mitteleuropäische Sommerzeit)","3","59","0","1727783020396"
"640","f","SpeechGestureMatch","../RequiredFiles/videos/JaKopfNein_m.mp4","Ist der Ball in der grünen Box?","Blue","Green","J","affirmation","mismatch","speech","yes","HeadShake","male","gesture-speech","1422","800","edge-chromium","60.17","Windows 10","22","male","right","Tue Oct 01 2024 13:29:24 GMT+0200 (Mitteleuropäische Sommerzeit)","3","60","1","1727783020396"
"604","f","SpeechGestureMatch","../RequiredFiles/videos/JaKopfNein_f.mp4","Ist der Ball in der blauen Box?","Blue","Green","F","affirmation","mismatch","speech","yes","HeadShake","female","gesture-speech","1422","800","edge-chromium","60.17","Windows 10","22","male","right","Tue Oct 01 2024 13:29:30 GMT+0200 (Mitteleuropäische Sommerzeit)","3","61","0","1727783020396"
"597","f","SpeechGestureMatch","../RequiredFiles/videos/JaKopfJa_f_no_gesture.mp4","Ist der Ball in der grünen Box?","Green","Blue","F","affirmation","na","speech","yes","na","female","gesture-speech","1422","800","edge-chromium","60.17","Windows 10","22","male","right","Tue Oct 01 2024 13:29:36 GMT+0200 (Mitteleuropäische Sommerzeit)","3","62","0","1727783020396"
"677","f","SpeechGestureMatch","../RequiredFiles/videos/NeinKopfJa_m.mp4","Ist der Ball in der grünen Box?","Blue","Green","F","negation","mismatch","speech","no","HeadNod","male","gesture-speech","1422","800","edge-chromium","60.17","Windows 10","22","male","right","Tue Oct 01 2024 13:29:43 GMT+0200 (Mitteleuropäische Sommerzeit)","3","63","0","1727783020396"
"706","j","SpeechGestureMatch","../RequiredFiles/videos/JaKopfJa_m.mp4","Ist der Ball in der blauen Box?","Green","Blue","J","affirmation","match","speech","yes","HeadNod","male","gesture-speech","1422","800","edge-chromium","60.17","Windows 10","22","male","right","Tue Oct 01 2024 13:29:49 GMT+0200 (Mitteleuropäische Sommerzeit)","3","64","0","1727783020396"
"638","j","SpeechGestureMatch","../RequiredFiles/videos/JaKopfNein_m_no_gesture.mp4","Ist der Ball in der grünen Box?","Blue","Green","J","affirmation","na","speech","yes","na","male","gesture-speech","1422","800","edge-chromium","60.17","Windows 10","22","male","right","Tue Oct 01 2024 13:29:55 GMT+0200 (Mitteleuropäische Sommerzeit)","3","65","0","1727783020396"
"555","f","SpeechGestureMatch","../RequiredFiles/videos/JaKopfJa_m.mp4","Ist der Ball in der grünen Box?","Green","Blue","F","affirmation","match","speech","yes","HeadNod","male","gesture-speech","1422","800","edge-chromium","60.17","Windows 10","22","male","right","Tue Oct 01 2024 13:30:01 GMT+0200 (Mitteleuropäische Sommerzeit)","3","66","0","1727783020396"
"602","j","SpeechGestureMatch","../RequiredFiles/videos/JaKopfNein_m.mp4","Ist der Ball in der blauen Box?","Blue","Green","F","affirmation","mismatch","speech","yes","HeadShake","male","gesture-speech","1422","800","edge-chromium","60.17","Windows 10","22","male","right","Tue Oct 01 2024 13:30:07 GMT+0200 (Mitteleuropäische Sommerzeit)","3","67","1","1727783020396"
"557","j","SpeechGestureMatch","../RequiredFiles/videos/JaKopfJa_m.mp4","Ist der Ball in der blauen Box?","Green","Blue","J","affirmation","match","speech","yes","HeadNod","male","gesture-speech","1422","800","edge-chromium","60.17","Windows 10","22","male","right","Tue Oct 01 2024 13:30:13 GMT+0200 (Mitteleuropäische Sommerzeit)","3","68","0","1727783020396"
"595","f","SpeechGestureMatch","../RequiredFiles/videos/JaKopfJa_m.mp4","Ist der Ball in der blauen Box?","Blue","Green","F","affirmation","match","speech","yes","HeadNod","male","gesture-speech","1422","800","edge-chromium","60.17","Windows 10","22","male","right","Tue Oct 01 2024 13:30:20 GMT+0200 (Mitteleuropäische Sommerzeit)","3","69","0","1727783020396"
"630","j","SpeechGestureMatch","../RequiredFiles/videos/NeinKopfJa_f_no_gesture.mp4","Ist der Ball in der blauen Box?","Blue","Green","J","negation","na","speech","no","na","female","gesture-speech","1422","800","edge-chromium","60.17","Windows 10","22","male","right","Tue Oct 01 2024 13:30:26 GMT+0200 (Mitteleuropäische Sommerzeit)","3","70","0","1727783020396"
"707","f","SpeechGestureMatch","../RequiredFiles/videos/NeinKopfJa_m_no_gesture.mp4","Ist der Ball in der grünen Box?","Blue","Green","F","negation","na","speech","no","na","male","gesture-speech","1422","800","edge-chromium","60.17","Windows 10","22","male","right","Tue Oct 01 2024 13:30:32 GMT+0200 (Mitteleuropäische Sommerzeit)","3","71","0","1727783020396"
"566","j","SpeechGestureMatch","../RequiredFiles/videos/JaKopfJa_f.mp4","Ist der Ball in der grünen Box?","Blue","Green","J","affirmation","match","speech","yes","HeadNod","female","gesture-speech","1422","800","edge-chromium","60.17","Windows 10","22","male","right","Tue Oct 01 2024 13:30:38 GMT+0200 (Mitteleuropäische Sommerzeit)","3","72","0","1727783020396"
"759","f","SpeechGestureMatch","../RequiredFiles/videos/JaKopfNein_f_no_gesture.mp4","Ist der Ball in der grünen Box?","Green","Blue","F","affirmation","na","speech","yes","na","female","gesture-speech","1422","800","edge-chromium","60.17","Windows 10","22","male","right","Tue Oct 01 2024 13:30:44 GMT+0200 (Mitteleuropäische Sommerzeit)","3","73","0","1727783020396"
"724","j","SpeechGestureMatch","../RequiredFiles/videos/NeinKopfJa_m.mp4","Ist der Ball in der blauen Box?","Blue","Green","J","negation","mismatch","speech","no","HeadNod","male","gesture-speech","1422","800","edge-chromium","60.17","Windows 10","22","male","right","Tue Oct 01 2024 13:30:51 GMT+0200 (Mitteleuropäische Sommerzeit)","3","74","0","1727783020396"
"501","f","SpeechGestureMatch","../RequiredFiles/videos/NeinKopfNein_f_no_gesture.mp4","Ist der Ball in der grünen Box?","Green","Blue","J","negation","na","speech","no","na","female","gesture-speech","1422","800","edge-chromium","60.17","Windows 10","22","male","right","Tue Oct 01 2024 13:30:57 GMT+0200 (Mitteleuropäische Sommerzeit)","3","75","1","1727783020396"
"605","j","SpeechGestureMatch","../RequiredFiles/videos/NeinKopfJa_f.mp4","Ist der Ball in der blauen Box?","Green","Blue","F","negation","mismatch","speech","no","HeadNod","female","gesture-speech","1422","800","edge-chromium","60.17","Windows 10","22","male","right","Tue Oct 01 2024 13:31:03 GMT+0200 (Mitteleuropäische Sommerzeit)","3","76","1","1727783020396"
"840","f","SpeechGestureMatch","../RequiredFiles/videos/JaKopfNein_m_no_gesture.mp4","Ist der Ball in der grünen Box?","Green","Blue","F","affirmation","na","speech","yes","na","male","gesture-speech","1422","800","edge-chromium","60.17","Windows 10","22","male","right","Tue Oct 01 2024 13:31:09 GMT+0200 (Mitteleuropäische Sommerzeit)","3","77","0","1727783020396"
"637","f","SpeechGestureMatch","../RequiredFiles/videos/JaKopfNein_f_no_gesture.mp4","Ist der Ball in der blauen Box?","Blue","Green","F","affirmation","na","speech","yes","na","female","gesture-speech","1422","800","edge-chromium","60.17","Windows 10","22","male","right","Tue Oct 01 2024 13:31:15 GMT+0200 (Mitteleuropäische Sommerzeit)","3","78","0","1727783020396"
