"rt","response","stim","video","question","box_colour_left","box_colour_right","correct_key","polarity","matching","modality","verbal","gesture","speaker","order","width","height","browser","vsync_rate","os","age","gender","handedness","date","blockNum","trialNum","error","vpNum"
"855","f","SpeechGestureMatch","../RequiredFiles/videos/NeinKopfJa_f.mp4","Ist der Ball in der blauen Box?","Blue","Green","F","affirmation","mismatch","gesture","no","HeadNod","female","gesture-speech","1920","1080","chrome","60.89","Mac OS","26","male","right","Mon Oct 07 2024 10:21:01 GMT+0200 (Central European Summer Time)","1","1","0","1728292078039"
"697","j","SpeechGestureMatch","../RequiredFiles/videos/JaKopfJa_f.mp4","Ist der Ball in der blauen Box?","Green","Blue","J","affirmation","match","gesture","yes","HeadNod","female","gesture-speech","1920","1080","chrome","60.89","Mac OS","26","male","right","Mon Oct 07 2024 10:21:07 GMT+0200 (Central European Summer Time)","1","2","0","1728292078039"
"695","f","SpeechGestureMatch","../RequiredFiles/videos/JaKopfNein_f.mp4","Ist der Ball in der blauen Box?","Green","Blue","F","negation","mismatch","gesture","yes","HeadShake","female","gesture-speech","1920","1080","chrome","60.89","Mac OS","26","male","right","Mon Oct 07 2024 10:21:13 GMT+0200 (Central European Summer Time)","1","3","0","1728292078039"
"696","f","SpeechGestureMatch","../RequiredFiles/videos/JaKopfJa_f.mp4","Ist der Ball in der blauen Box?","Blue","Green","F","affirmation","match","gesture","yes","HeadNod","female","gesture-speech","1920","1080","chrome","60.89","Mac OS","26","male","right","Mon Oct 07 2024 10:21:20 GMT+0200 (Central European Summer Time)","1","4","0","1728292078039"
"785","j","SpeechGestureMatch","../RequiredFiles/videos/NeinKopfJa_m.mp4","Ist der Ball in der grünen Box?","Green","Blue","F","affirmation","mismatch","gesture","no","HeadNod","male","gesture-speech","1920","1080","chrome","60.89","Mac OS","26","male","right","Mon Oct 07 2024 10:21:26 GMT+0200 (Central European Summer Time)","1","5","1","1728292078039"
"922","f","SpeechGestureMatch","../RequiredFiles/videos/NeinKopfNein_f.mp4","Ist der Ball in der grünen Box?","Blue","Green","F","negation","match","gesture","no","HeadShake","female","gesture-speech","1920","1080","chrome","60.89","Mac OS","26","male","right","Mon Oct 07 2024 10:21:32 GMT+0200 (Central European Summer Time)","1","6","0","1728292078039"
"1437","f","SpeechGestureMatch","../RequiredFiles/videos/JaKopfNein_m.mp4","Ist der Ball in der blauen Box?","Green","Blue","F","negation","mismatch","gesture","yes","HeadShake","male","gesture-speech","1920","1080","chrome","60.89","Mac OS","26","male","right","Mon Oct 07 2024 10:21:39 GMT+0200 (Central European Summer Time)","1","7","0","1728292078039"
"968","f","SpeechGestureMatch","../RequiredFiles/videos/JaKopfJa_f.mp4","Ist der Ball in der grünen Box?","Green","Blue","F","affirmation","match","gesture","yes","HeadNod","female","gesture-speech","1920","1080","chrome","60.89","Mac OS","26","male","right","Mon Oct 07 2024 10:21:46 GMT+0200 (Central European Summer Time)","1","8","0","1728292078039"
"1176","j","SpeechGestureMatch","../RequiredFiles/videos/JaKopfJa_f_no_sound.mp4","Ist der Ball in der blauen Box?","Blue","Green","F","affirmation","na","gesture","na","HeadNod","female","gesture-speech","1920","1080","chrome","60.89","Mac OS","26","male","right","Mon Oct 07 2024 10:21:52 GMT+0200 (Central European Summer Time)","1","9","1","1728292078039"
"1130","f","SpeechGestureMatch","../RequiredFiles/videos/JaKopfNein_m_no_sound.mp4","Ist der Ball in der grünen Box?","Blue","Green","F","negation","na","gesture","na","HeadShake","male","gesture-speech","1920","1080","chrome","60.89","Mac OS","26","male","right","Mon Oct 07 2024 10:21:59 GMT+0200 (Central European Summer Time)","1","10","0","1728292078039"
"926","f","SpeechGestureMatch","../RequiredFiles/videos/JaKopfJa_m_no_sound.mp4","Ist der Ball in der grünen Box?","Green","Blue","F","affirmation","na","gesture","na","HeadNod","male","gesture-speech","1920","1080","chrome","60.89","Mac OS","26","male","right","Mon Oct 07 2024 10:22:06 GMT+0200 (Central European Summer Time)","1","11","0","1728292078039"
"921","j","SpeechGestureMatch","../RequiredFiles/videos/NeinKopfNein_m.mp4","Ist der Ball in der blauen Box?","Blue","Green","J","negation","match","gesture","no","HeadShake","male","gesture-speech","1920","1080","chrome","60.89","Mac OS","26","male","right","Mon Oct 07 2024 10:22:12 GMT+0200 (Central European Summer Time)","1","12","0","1728292078039"
"1359","j","SpeechGestureMatch","../RequiredFiles/videos/NeinKopfJa_f.mp4","Ist der Ball in der blauen Box?","Blue","Green","F","affirmation","mismatch","gesture","no","HeadNod","female","gesture-speech","1920","1080","chrome","60.89","Mac OS","26","male","right","Mon Oct 07 2024 10:22:19 GMT+0200 (Central European Summer Time)","1","13","1","1728292078039"
"1735","j","SpeechGestureMatch","../RequiredFiles/videos/JaKopfNein_f.mp4","Ist der Ball in der blauen Box?","Blue","Green","J","negation","mismatch","gesture","yes","HeadShake","female","gesture-speech","1920","1080","chrome","60.89","Mac OS","26","male","right","Mon Oct 07 2024 10:22:26 GMT+0200 (Central European Summer Time)","1","14","0","1728292078039"
"1421","j","SpeechGestureMatch","../RequiredFiles/videos/NeinKopfJa_f_no_sound.mp4","Ist der Ball in der blauen Box?","Green","Blue","J","affirmation","na","gesture","na","HeadNod","female","gesture-speech","1920","1080","chrome","60.89","Mac OS","26","male","right","Mon Oct 07 2024 10:22:33 GMT+0200 (Central European Summer Time)","1","15","0","1728292078039"
"1337","f","SpeechGestureMatch","../RequiredFiles/videos/NeinKopfNein_f_no_sound.mp4","Ist der Ball in der blauen Box?","Green","Blue","F","negation","na","gesture","na","HeadShake","female","gesture-speech","1920","1080","chrome","60.89","Mac OS","26","male","right","Mon Oct 07 2024 10:22:40 GMT+0200 (Central European Summer Time)","1","16","0","1728292078039"
"1155","j","SpeechGestureMatch","../RequiredFiles/videos/NeinKopfNein_f.mp4","Ist der Ball in der blauen Box?","Green","Blue","F","negation","match","gesture","no","HeadShake","female","gesture-speech","1920","1080","chrome","60.89","Mac OS","26","male","right","Mon Oct 07 2024 10:22:47 GMT+0200 (Central European Summer Time)","1","17","1","1728292078039"
"1376","j","SpeechGestureMatch","../RequiredFiles/videos/JaKopfNein_f_no_sound.mp4","Ist der Ball in der blauen Box?","Blue","Green","J","negation","na","gesture","na","HeadShake","female","gesture-speech","1920","1080","chrome","60.89","Mac OS","26","male","right","Mon Oct 07 2024 10:22:54 GMT+0200 (Central European Summer Time)","1","18","0","1728292078039"
"1462","f","SpeechGestureMatch","../RequiredFiles/videos/NeinKopfJa_m.mp4","Ist der Ball in der blauen Box?","Green","Blue","J","affirmation","mismatch","gesture","no","HeadNod","male","gesture-speech","1920","1080","chrome","60.89","Mac OS","26","male","right","Mon Oct 07 2024 10:23:01 GMT+0200 (Central European Summer Time)","1","19","1","1728292078039"
"2224","j","SpeechGestureMatch","../RequiredFiles/videos/JaKopfNein_f.mp4","Ist der Ball in der blauen Box?","Green","Blue","F","negation","mismatch","gesture","yes","HeadShake","female","gesture-speech","1920","1080","chrome","60.89","Mac OS","26","male","right","Mon Oct 07 2024 10:23:08 GMT+0200 (Central European Summer Time)","1","20","1","1728292078039"
"1852","j","SpeechGestureMatch","../RequiredFiles/videos/JaKopfNein_m.mp4","Ist der Ball in der grünen Box?","Green","Blue","J","negation","mismatch","gesture","yes","HeadShake","male","gesture-speech","1920","1080","chrome","60.89","Mac OS","26","male","right","Mon Oct 07 2024 10:23:16 GMT+0200 (Central European Summer Time)","1","21","0","1728292078039"
"975","j","SpeechGestureMatch","../RequiredFiles/videos/NeinKopfJa_m.mp4","Ist der Ball in der grünen Box?","Blue","Green","J","affirmation","mismatch","gesture","no","HeadNod","male","gesture-speech","1920","1080","chrome","60.89","Mac OS","26","male","right","Mon Oct 07 2024 10:23:22 GMT+0200 (Central European Summer Time)","1","22","0","1728292078039"
"1794","j","SpeechGestureMatch","../RequiredFiles/videos/NeinKopfNein_m.mp4","Ist der Ball in der grünen Box?","Blue","Green","F","negation","match","gesture","no","HeadShake","male","gesture-speech","1920","1080","chrome","60.89","Mac OS","26","male","right","Mon Oct 07 2024 10:23:29 GMT+0200 (Central European Summer Time)","1","23","1","1728292078039"
"755","j","SpeechGestureMatch","../RequiredFiles/videos/JaKopfJa_m.mp4","Ist der Ball in der blauen Box?","Green","Blue","J","affirmation","match","gesture","yes","HeadNod","male","gesture-speech","1920","1080","chrome","60.89","Mac OS","26","male","right","Mon Oct 07 2024 10:23:36 GMT+0200 (Central European Summer Time)","1","24","0","1728292078039"
"1044","f","SpeechGestureMatch","../RequiredFiles/videos/JaKopfJa_m.mp4","Ist der Ball in der grünen Box?","Green","Blue","F","affirmation","match","gesture","yes","HeadNod","male","gesture-speech","1920","1080","chrome","60.89","Mac OS","26","male","right","Mon Oct 07 2024 10:23:42 GMT+0200 (Central European Summer Time)","1","25","0","1728292078039"
"1251","f","SpeechGestureMatch","../RequiredFiles/videos/NeinKopfJa_f.mp4","Ist der Ball in der blauen Box?","Green","Blue","J","affirmation","mismatch","gesture","no","HeadNod","female","gesture-speech","1920","1080","chrome","60.89","Mac OS","26","male","right","Mon Oct 07 2024 10:23:49 GMT+0200 (Central European Summer Time)","1","26","1","1728292078039"
"1545","f","SpeechGestureMatch","../RequiredFiles/videos/NeinKopfJa_m.mp4","Ist der Ball in der grünen Box?","Green","Blue","F","affirmation","mismatch","gesture","no","HeadNod","male","gesture-speech","1920","1080","chrome","60.89","Mac OS","26","male","right","Mon Oct 07 2024 10:23:56 GMT+0200 (Central European Summer Time)","1","27","0","1728292078039"
"2223","f","SpeechGestureMatch","../RequiredFiles/videos/NeinKopfNein_f_no_sound.mp4","Ist der Ball in der grünen Box?","Green","Blue","J","negation","na","gesture","na","HeadShake","female","gesture-speech","1920","1080","chrome","60.89","Mac OS","26","male","right","Mon Oct 07 2024 10:24:04 GMT+0200 (Central European Summer Time)","1","28","1","1728292078039"
"1742","j","SpeechGestureMatch","../RequiredFiles/videos/NeinKopfNein_m.mp4","Ist der Ball in der blauen Box?","Blue","Green","J","negation","match","gesture","no","HeadShake","male","gesture-speech","1920","1080","chrome","60.89","Mac OS","26","male","right","Mon Oct 07 2024 10:24:11 GMT+0200 (Central European Summer Time)","1","29","0","1728292078039"
"1545","j","SpeechGestureMatch","../RequiredFiles/videos/NeinKopfJa_m.mp4","Ist der Ball in der grünen Box?","Blue","Green","J","affirmation","mismatch","gesture","no","HeadNod","male","gesture-speech","1920","1080","chrome","60.89","Mac OS","26","male","right","Mon Oct 07 2024 10:24:18 GMT+0200 (Central European Summer Time)","1","30","0","1728292078039"
"1384","f","SpeechGestureMatch","../RequiredFiles/videos/JaKopfNein_f_no_sound.mp4","Ist der Ball in der grünen Box?","Blue","Green","F","negation","na","gesture","na","HeadShake","female","gesture-speech","1920","1080","chrome","60.89","Mac OS","26","male","right","Mon Oct 07 2024 10:24:25 GMT+0200 (Central European Summer Time)","1","31","0","1728292078039"
"2191","j","SpeechGestureMatch","../RequiredFiles/videos/JaKopfJa_f.mp4","Ist der Ball in der grünen Box?","Blue","Green","J","affirmation","match","gesture","yes","HeadNod","female","gesture-speech","1920","1080","chrome","60.89","Mac OS","26","male","right","Mon Oct 07 2024 10:24:33 GMT+0200 (Central European Summer Time)","1","32","0","1728292078039"
"1724","f","SpeechGestureMatch","../RequiredFiles/videos/NeinKopfNein_m.mp4","Ist der Ball in der blauen Box?","Green","Blue","F","negation","match","gesture","no","HeadShake","male","gesture-speech","1920","1080","chrome","60.89","Mac OS","26","male","right","Mon Oct 07 2024 10:24:40 GMT+0200 (Central European Summer Time)","1","33","0","1728292078039"
"2562","j","SpeechGestureMatch","../RequiredFiles/videos/NeinKopfNein_f.mp4","Ist der Ball in der grünen Box?","Green","Blue","J","negation","match","gesture","no","HeadShake","female","gesture-speech","1920","1080","chrome","60.89","Mac OS","26","male","right","Mon Oct 07 2024 10:24:48 GMT+0200 (Central European Summer Time)","1","34","0","1728292078039"
"854","j","SpeechGestureMatch","../RequiredFiles/videos/JaKopfJa_f.mp4","Ist der Ball in der grünen Box?","Blue","Green","J","affirmation","match","gesture","yes","HeadNod","female","gesture-speech","1920","1080","chrome","60.89","Mac OS","26","male","right","Mon Oct 07 2024 10:24:55 GMT+0200 (Central European Summer Time)","1","35","0","1728292078039"
"1377","j","SpeechGestureMatch","../RequiredFiles/videos/NeinKopfNein_f_no_sound.mp4","Ist der Ball in der grünen Box?","Blue","Green","F","negation","na","gesture","na","HeadShake","female","gesture-speech","1920","1080","chrome","60.89","Mac OS","26","male","right","Mon Oct 07 2024 10:25:01 GMT+0200 (Central European Summer Time)","1","36","1","1728292078039"
"2201","f","SpeechGestureMatch","../RequiredFiles/videos/NeinKopfNein_m_no_sound.mp4","Ist der Ball in der grünen Box?","Blue","Green","F","negation","na","gesture","na","HeadShake","male","gesture-speech","1920","1080","chrome","60.89","Mac OS","26","male","right","Mon Oct 07 2024 10:25:09 GMT+0200 (Central European Summer Time)","1","37","0","1728292078039"
"2346","j","SpeechGestureMatch","../RequiredFiles/videos/JaKopfJa_f_no_sound.mp4","Ist der Ball in der grünen Box?","Green","Blue","F","affirmation","na","gesture","na","HeadNod","female","gesture-speech","1920","1080","chrome","60.89","Mac OS","26","male","right","Mon Oct 07 2024 10:25:17 GMT+0200 (Central European Summer Time)","1","38","1","1728292078039"
"1221","f","SpeechGestureMatch","../RequiredFiles/videos/NeinKopfNein_m.mp4","Ist der Ball in der blauen Box?","Green","Blue","F","negation","match","gesture","no","HeadShake","male","gesture-speech","1920","1080","chrome","60.89","Mac OS","26","male","right","Mon Oct 07 2024 10:25:24 GMT+0200 (Central European Summer Time)","1","39","0","1728292078039"
"1320","j","SpeechGestureMatch","../RequiredFiles/videos/JaKopfNein_m_no_sound.mp4","Ist der Ball in der grünen Box?","Green","Blue","J","negation","na","gesture","na","HeadShake","male","gesture-speech","1920","1080","chrome","60.89","Mac OS","26","male","right","Mon Oct 07 2024 10:25:31 GMT+0200 (Central European Summer Time)","1","40","0","1728292078039"
"877","f","SpeechGestureMatch","../RequiredFiles/videos/JaKopfJa_m.mp4","Ist der Ball in der grünen Box?","Blue","Green","J","affirmation","match","gesture","yes","HeadNod","male","gesture-speech","1920","1080","chrome","60.89","Mac OS","26","male","right","Mon Oct 07 2024 10:25:37 GMT+0200 (Central European Summer Time)","1","41","1","1728292078039"
"1523","j","SpeechGestureMatch","../RequiredFiles/videos/JaKopfNein_m.mp4","Ist der Ball in der blauen Box?","Blue","Green","J","negation","mismatch","gesture","yes","HeadShake","male","gesture-speech","1920","1080","chrome","60.89","Mac OS","26","male","right","Mon Oct 07 2024 10:25:44 GMT+0200 (Central European Summer Time)","1","42","0","1728292078039"
"1536","j","SpeechGestureMatch","../RequiredFiles/videos/NeinKopfNein_f.mp4","Ist der Ball in der blauen Box?","Green","Blue","F","negation","match","gesture","no","HeadShake","female","gesture-speech","1920","1080","chrome","60.89","Mac OS","26","male","right","Mon Oct 07 2024 10:25:51 GMT+0200 (Central European Summer Time)","1","43","1","1728292078039"
"1298","j","SpeechGestureMatch","../RequiredFiles/videos/NeinKopfJa_m.mp4","Ist der Ball in der blauen Box?","Blue","Green","F","affirmation","mismatch","gesture","no","HeadNod","male","gesture-speech","1920","1080","chrome","60.89","Mac OS","26","male","right","Mon Oct 07 2024 10:25:58 GMT+0200 (Central European Summer Time)","1","44","1","1728292078039"
"1134","j","SpeechGestureMatch","../RequiredFiles/videos/JaKopfJa_f.mp4","Ist der Ball in der blauen Box?","Green","Blue","J","affirmation","match","gesture","yes","HeadNod","female","gesture-speech","1920","1080","chrome","60.89","Mac OS","26","male","right","Mon Oct 07 2024 10:26:05 GMT+0200 (Central European Summer Time)","1","45","0","1728292078039"
"936","f","SpeechGestureMatch","../RequiredFiles/videos/JaKopfNein_f.mp4","Ist der Ball in der blauen Box?","Blue","Green","J","negation","mismatch","gesture","yes","HeadShake","female","gesture-speech","1920","1080","chrome","60.89","Mac OS","26","male","right","Mon Oct 07 2024 10:26:11 GMT+0200 (Central European Summer Time)","1","46","1","1728292078039"
"1180","j","SpeechGestureMatch","../RequiredFiles/videos/NeinKopfNein_f.mp4","Ist der Ball in der blauen Box?","Blue","Green","J","negation","match","gesture","no","HeadShake","female","gesture-speech","1920","1080","chrome","60.89","Mac OS","26","male","right","Mon Oct 07 2024 10:26:18 GMT+0200 (Central European Summer Time)","1","47","0","1728292078039"
"1715","f","SpeechGestureMatch","../RequiredFiles/videos/JaKopfNein_f.mp4","Ist der Ball in der grünen Box?","Green","Blue","J","negation","mismatch","gesture","yes","HeadShake","female","gesture-speech","1920","1080","chrome","60.89","Mac OS","26","male","right","Mon Oct 07 2024 10:26:25 GMT+0200 (Central European Summer Time)","1","48","1","1728292078039"
"1842","j","SpeechGestureMatch","../RequiredFiles/videos/NeinKopfNein_m.mp4","Ist der Ball in der grünen Box?","Green","Blue","J","negation","match","gesture","no","HeadShake","male","gesture-speech","1920","1080","chrome","60.89","Mac OS","26","male","right","Mon Oct 07 2024 10:26:32 GMT+0200 (Central European Summer Time)","1","49","0","1728292078039"
"1983","j","SpeechGestureMatch","../RequiredFiles/videos/JaKopfJa_f_no_sound.mp4","Ist der Ball in der blauen Box?","Green","Blue","J","affirmation","na","gesture","na","HeadNod","female","gesture-speech","1920","1080","chrome","60.89","Mac OS","26","male","right","Mon Oct 07 2024 10:26:40 GMT+0200 (Central European Summer Time)","1","50","0","1728292078039"
"1655","j","SpeechGestureMatch","../RequiredFiles/videos/NeinKopfJa_m_no_sound.mp4","Ist der Ball in der grünen Box?","Green","Blue","F","affirmation","na","gesture","na","HeadNod","male","gesture-speech","1920","1080","chrome","60.89","Mac OS","26","male","right","Mon Oct 07 2024 10:26:47 GMT+0200 (Central European Summer Time)","1","51","1","1728292078039"
"3001","j","SpeechGestureMatch","../RequiredFiles/videos/JaKopfJa_m.mp4","Ist der Ball in der blauen Box?","Blue","Green","F","affirmation","match","gesture","yes","HeadNod","male","gesture-speech","1920","1080","chrome","60.89","Mac OS","26","male","right","Mon Oct 07 2024 10:26:55 GMT+0200 (Central European Summer Time)","1","52","1","1728292078039"
"1608","j","SpeechGestureMatch","../RequiredFiles/videos/JaKopfJa_m.mp4","Ist der Ball in der blauen Box?","Green","Blue","J","affirmation","match","gesture","yes","HeadNod","male","gesture-speech","1920","1080","chrome","60.89","Mac OS","26","male","right","Mon Oct 07 2024 10:27:03 GMT+0200 (Central European Summer Time)","1","53","0","1728292078039"
"1890","j","SpeechGestureMatch","../RequiredFiles/videos/JaKopfJa_m.mp4","Ist der Ball in der grünen Box?","Green","Blue","F","affirmation","match","gesture","yes","HeadNod","male","gesture-speech","1920","1080","chrome","60.89","Mac OS","26","male","right","Mon Oct 07 2024 10:27:10 GMT+0200 (Central European Summer Time)","1","54","1","1728292078039"
"2161","j","SpeechGestureMatch","../RequiredFiles/videos/JaKopfJa_m.mp4","Ist der Ball in der blauen Box?","Blue","Green","F","affirmation","match","gesture","yes","HeadNod","male","gesture-speech","1920","1080","chrome","60.89","Mac OS","26","male","right","Mon Oct 07 2024 10:27:18 GMT+0200 (Central European Summer Time)","1","55","1","1728292078039"
"1356","j","SpeechGestureMatch","../RequiredFiles/videos/NeinKopfJa_m_no_sound.mp4","Ist der Ball in der blauen Box?","Blue","Green","F","affirmation","na","gesture","na","HeadNod","male","gesture-speech","1920","1080","chrome","60.89","Mac OS","26","male","right","Mon Oct 07 2024 10:27:25 GMT+0200 (Central European Summer Time)","1","56","1","1728292078039"
"2078","j","SpeechGestureMatch","../RequiredFiles/videos/NeinKopfNein_f.mp4","Ist der Ball in der grünen Box?","Green","Blue","J","negation","match","gesture","no","HeadShake","female","gesture-speech","1920","1080","chrome","60.89","Mac OS","26","male","right","Mon Oct 07 2024 10:27:32 GMT+0200 (Central European Summer Time)","1","57","0","1728292078039"
"2935","j","SpeechGestureMatch","../RequiredFiles/videos/NeinKopfJa_m.mp4","Ist der Ball in der blauen Box?","Blue","Green","F","affirmation","mismatch","gesture","no","HeadNod","male","gesture-speech","1920","1080","chrome","60.89","Mac OS","26","male","right","Mon Oct 07 2024 10:27:41 GMT+0200 (Central European Summer Time)","1","58","1","1728292078039"
"1857","j","SpeechGestureMatch","../RequiredFiles/videos/NeinKopfJa_f_no_sound.mp4","Ist der Ball in der blauen Box?","Blue","Green","F","affirmation","na","gesture","na","HeadNod","female","gesture-speech","1920","1080","chrome","60.89","Mac OS","26","male","right","Mon Oct 07 2024 10:27:48 GMT+0200 (Central European Summer Time)","1","59","1","1728292078039"
"6969","j","SpeechGestureMatch","../RequiredFiles/videos/NeinKopfJa_f.mp4","Ist der Ball in der blauen Box?","Green","Blue","J","affirmation","mismatch","gesture","no","HeadNod","female","gesture-speech","1920","1080","chrome","60.89","Mac OS","26","male","right","Mon Oct 07 2024 10:28:00 GMT+0200 (Central European Summer Time)","1","60","0","1728292078039"
"1539","f","SpeechGestureMatch","../RequiredFiles/videos/NeinKopfJa_f.mp4","Ist der Ball in der grünen Box?","Green","Blue","F","affirmation","mismatch","gesture","no","HeadNod","female","gesture-speech","1920","1080","chrome","60.89","Mac OS","26","male","right","Mon Oct 07 2024 10:28:08 GMT+0200 (Central European Summer Time)","1","61","0","1728292078039"
"1826","f","SpeechGestureMatch","../RequiredFiles/videos/NeinKopfJa_f.mp4","Ist der Ball in der grünen Box?","Green","Blue","F","affirmation","mismatch","gesture","no","HeadNod","female","gesture-speech","1920","1080","chrome","60.89","Mac OS","26","male","right","Mon Oct 07 2024 10:28:15 GMT+0200 (Central European Summer Time)","1","62","0","1728292078039"
"4225","j","SpeechGestureMatch","../RequiredFiles/videos/NeinKopfNein_m.mp4","Ist der Ball in der grünen Box?","Blue","Green","F","negation","match","gesture","no","HeadShake","male","gesture-speech","1920","1080","chrome","60.89","Mac OS","26","male","right","Mon Oct 07 2024 10:28:25 GMT+0200 (Central European Summer Time)","1","63","1","1728292078039"
"2001","j","SpeechGestureMatch","../RequiredFiles/videos/NeinKopfNein_f_no_sound.mp4","Ist der Ball in der blauen Box?","Blue","Green","J","negation","na","gesture","na","HeadShake","female","gesture-speech","1920","1080","chrome","60.89","Mac OS","26","male","right","Mon Oct 07 2024 10:28:32 GMT+0200 (Central European Summer Time)","1","64","0","1728292078039"
"1687","j","SpeechGestureMatch","../RequiredFiles/videos/JaKopfNein_m.mp4","Ist der Ball in der blauen Box?","Green","Blue","F","negation","mismatch","gesture","yes","HeadShake","male","gesture-speech","1920","1080","chrome","60.89","Mac OS","26","male","right","Mon Oct 07 2024 10:28:39 GMT+0200 (Central European Summer Time)","1","65","1","1728292078039"
"3169","j","SpeechGestureMatch","../RequiredFiles/videos/JaKopfNein_m_no_sound.mp4","Ist der Ball in der blauen Box?","Blue","Green","J","negation","na","gesture","na","HeadShake","male","gesture-speech","1920","1080","chrome","60.89","Mac OS","26","male","right","Mon Oct 07 2024 10:28:48 GMT+0200 (Central European Summer Time)","1","66","0","1728292078039"
"1331","j","SpeechGestureMatch","../RequiredFiles/videos/JaKopfNein_m.mp4","Ist der Ball in der blauen Box?","Blue","Green","J","negation","mismatch","gesture","yes","HeadShake","male","gesture-speech","1920","1080","chrome","60.89","Mac OS","26","male","right","Mon Oct 07 2024 10:28:55 GMT+0200 (Central European Summer Time)","1","67","0","1728292078039"
"2309","j","SpeechGestureMatch","../RequiredFiles/videos/NeinKopfNein_m.mp4","Ist der Ball in der grünen Box?","Green","Blue","J","negation","match","gesture","no","HeadShake","male","gesture-speech","1920","1080","chrome","60.89","Mac OS","26","male","right","Mon Oct 07 2024 10:29:03 GMT+0200 (Central European Summer Time)","1","68","0","1728292078039"
"1819","j","SpeechGestureMatch","../RequiredFiles/videos/JaKopfNein_f_no_sound.mp4","Ist der Ball in der grünen Box?","Green","Blue","J","negation","na","gesture","na","HeadShake","female","gesture-speech","1920","1080","chrome","60.89","Mac OS","26","male","right","Mon Oct 07 2024 10:29:10 GMT+0200 (Central European Summer Time)","1","69","0","1728292078039"
"918","f","SpeechGestureMatch","../RequiredFiles/videos/NeinKopfJa_f_no_sound.mp4","Ist der Ball in der grünen Box?","Blue","Green","J","affirmation","na","gesture","na","HeadNod","female","gesture-speech","1920","1080","chrome","60.89","Mac OS","26","male","right","Mon Oct 07 2024 10:29:17 GMT+0200 (Central European Summer Time)","1","70","1","1728292078039"
"1766","j","SpeechGestureMatch","../RequiredFiles/videos/NeinKopfJa_f.mp4","Ist der Ball in der grünen Box?","Blue","Green","J","affirmation","mismatch","gesture","no","HeadNod","female","gesture-speech","1920","1080","chrome","60.89","Mac OS","26","male","right","Mon Oct 07 2024 10:29:24 GMT+0200 (Central European Summer Time)","1","71","0","1728292078039"
"878","j","SpeechGestureMatch","../RequiredFiles/videos/JaKopfJa_m_no_sound.mp4","Ist der Ball in der blauen Box?","Green","Blue","J","affirmation","na","gesture","na","HeadNod","male","gesture-speech","1920","1080","chrome","60.89","Mac OS","26","male","right","Mon Oct 07 2024 10:29:30 GMT+0200 (Central European Summer Time)","1","72","0","1728292078039"
"1426","j","SpeechGestureMatch","../RequiredFiles/videos/JaKopfJa_m_no_sound.mp4","Ist der Ball in der blauen Box?","Blue","Green","F","affirmation","na","gesture","na","HeadNod","male","gesture-speech","1920","1080","chrome","60.89","Mac OS","26","male","right","Mon Oct 07 2024 10:29:37 GMT+0200 (Central European Summer Time)","1","73","1","1728292078039"
"1656","f","SpeechGestureMatch","../RequiredFiles/videos/JaKopfJa_m_no_sound.mp4","Ist der Ball in der grünen Box?","Blue","Green","J","affirmation","na","gesture","na","HeadNod","male","gesture-speech","1920","1080","chrome","60.89","Mac OS","26","male","right","Mon Oct 07 2024 10:29:44 GMT+0200 (Central European Summer Time)","1","74","1","1728292078039"
"1565","j","SpeechGestureMatch","../RequiredFiles/videos/NeinKopfJa_m.mp4","Ist der Ball in der blauen Box?","Green","Blue","J","affirmation","mismatch","gesture","no","HeadNod","male","gesture-speech","1920","1080","chrome","60.89","Mac OS","26","male","right","Mon Oct 07 2024 10:29:51 GMT+0200 (Central European Summer Time)","1","75","0","1728292078039"
"1499","j","SpeechGestureMatch","../RequiredFiles/videos/JaKopfNein_f.mp4","Ist der Ball in der grünen Box?","Blue","Green","F","negation","mismatch","gesture","yes","HeadShake","female","gesture-speech","1920","1080","chrome","60.89","Mac OS","26","male","right","Mon Oct 07 2024 10:29:58 GMT+0200 (Central European Summer Time)","1","76","1","1728292078039"
"2393","j","SpeechGestureMatch","../RequiredFiles/videos/JaKopfNein_m.mp4","Ist der Ball in der grünen Box?","Blue","Green","F","negation","mismatch","gesture","yes","HeadShake","male","gesture-speech","1920","1080","chrome","60.89","Mac OS","26","male","right","Mon Oct 07 2024 10:30:06 GMT+0200 (Central European Summer Time)","1","77","1","1728292078039"
"56631","j","SpeechGestureMatch","../RequiredFiles/videos/NeinKopfNein_m_no_sound.mp4","Ist der Ball in der grünen Box?","Green","Blue","J","negation","na","gesture","na","HeadShake","male","gesture-speech","1920","1080","chrome","60.89","Mac OS","26","male","right","Mon Oct 07 2024 10:31:08 GMT+0200 (Central European Summer Time)","1","78","0","1728292078039"
"1087","f","SpeechGestureMatch","../RequiredFiles/videos/JaKopfNein_f_no_sound.mp4","Ist der Ball in der blauen Box?","Green","Blue","F","negation","na","gesture","na","HeadShake","female","gesture-speech","1920","1080","chrome","60.89","Mac OS","26","male","right","Mon Oct 07 2024 10:31:15 GMT+0200 (Central European Summer Time)","1","79","0","1728292078039"
"1169","j","SpeechGestureMatch","../RequiredFiles/videos/JaKopfJa_m.mp4","Ist der Ball in der grünen Box?","Blue","Green","J","affirmation","match","gesture","yes","HeadNod","male","gesture-speech","1920","1080","chrome","60.89","Mac OS","26","male","right","Mon Oct 07 2024 10:31:22 GMT+0200 (Central European Summer Time)","1","80","0","1728292078039"
"1511","f","SpeechGestureMatch","../RequiredFiles/videos/NeinKopfNein_f.mp4","Ist der Ball in der grünen Box?","Blue","Green","F","negation","match","gesture","no","HeadShake","female","gesture-speech","1920","1080","chrome","60.89","Mac OS","26","male","right","Mon Oct 07 2024 10:31:29 GMT+0200 (Central European Summer Time)","1","81","0","1728292078039"
"1270","j","SpeechGestureMatch","../RequiredFiles/videos/NeinKopfNein_m_no_sound.mp4","Ist der Ball in der blauen Box?","Green","Blue","F","negation","na","gesture","na","HeadShake","male","gesture-speech","1920","1080","chrome","60.89","Mac OS","26","male","right","Mon Oct 07 2024 10:31:36 GMT+0200 (Central European Summer Time)","1","82","1","1728292078039"
"1574","f","SpeechGestureMatch","../RequiredFiles/videos/JaKopfJa_f.mp4","Ist der Ball in der blauen Box?","Blue","Green","F","affirmation","match","gesture","yes","HeadNod","female","gesture-speech","1920","1080","chrome","60.89","Mac OS","26","male","right","Mon Oct 07 2024 10:31:43 GMT+0200 (Central European Summer Time)","1","83","0","1728292078039"
"1666","j","SpeechGestureMatch","../RequiredFiles/videos/NeinKopfNein_m_no_sound.mp4","Ist der Ball in der blauen Box?","Blue","Green","J","negation","na","gesture","na","HeadShake","male","gesture-speech","1920","1080","chrome","60.89","Mac OS","26","male","right","Mon Oct 07 2024 10:31:50 GMT+0200 (Central European Summer Time)","1","84","0","1728292078039"
"2080","f","SpeechGestureMatch","../RequiredFiles/videos/JaKopfNein_m.mp4","Ist der Ball in der grünen Box?","Green","Blue","J","negation","mismatch","gesture","yes","HeadShake","male","gesture-speech","1920","1080","chrome","60.89","Mac OS","26","male","right","Mon Oct 07 2024 10:31:57 GMT+0200 (Central European Summer Time)","1","85","1","1728292078039"
"1720","j","SpeechGestureMatch","../RequiredFiles/videos/JaKopfNein_m.mp4","Ist der Ball in der grünen Box?","Blue","Green","F","negation","mismatch","gesture","yes","HeadShake","male","gesture-speech","1920","1080","chrome","60.89","Mac OS","26","male","right","Mon Oct 07 2024 10:32:05 GMT+0200 (Central European Summer Time)","1","86","1","1728292078039"
"2418","f","SpeechGestureMatch","../RequiredFiles/videos/NeinKopfNein_f.mp4","Ist der Ball in der blauen Box?","Blue","Green","J","negation","match","gesture","no","HeadShake","female","gesture-speech","1920","1080","chrome","60.89","Mac OS","26","male","right","Mon Oct 07 2024 10:32:13 GMT+0200 (Central European Summer Time)","1","87","1","1728292078039"
"3145","f","SpeechGestureMatch","../RequiredFiles/videos/JaKopfNein_f.mp4","Ist der Ball in der grünen Box?","Blue","Green","F","negation","mismatch","gesture","yes","HeadShake","female","gesture-speech","1920","1080","chrome","60.89","Mac OS","26","male","right","Mon Oct 07 2024 10:32:21 GMT+0200 (Central European Summer Time)","1","88","0","1728292078039"
"7849","f","SpeechGestureMatch","../RequiredFiles/videos/NeinKopfJa_m_no_sound.mp4","Ist der Ball in der grünen Box?","Blue","Green","J","affirmation","na","gesture","na","HeadNod","male","gesture-speech","1920","1080","chrome","60.89","Mac OS","26","male","right","Mon Oct 07 2024 10:32:35 GMT+0200 (Central European Summer Time)","1","89","1","1728292078039"
"8316","f","SpeechGestureMatch","../RequiredFiles/videos/NeinKopfJa_m_no_sound.mp4","Ist der Ball in der blauen Box?","Green","Blue","J","affirmation","na","gesture","na","HeadNod","male","gesture-speech","1920","1080","chrome","60.89","Mac OS","26","male","right","Mon Oct 07 2024 10:32:49 GMT+0200 (Central European Summer Time)","1","90","1","1728292078039"
"1814","f","SpeechGestureMatch","../RequiredFiles/videos/NeinKopfJa_f.mp4","Ist der Ball in der grünen Box?","Blue","Green","J","affirmation","mismatch","gesture","no","HeadNod","female","gesture-speech","1920","1080","chrome","60.89","Mac OS","26","male","right","Mon Oct 07 2024 10:32:56 GMT+0200 (Central European Summer Time)","1","91","1","1728292078039"
"1001","f","SpeechGestureMatch","../RequiredFiles/videos/JaKopfNein_f.mp4","Ist der Ball in der grünen Box?","Green","Blue","J","negation","mismatch","gesture","yes","HeadShake","female","gesture-speech","1920","1080","chrome","60.89","Mac OS","26","male","right","Mon Oct 07 2024 10:33:02 GMT+0200 (Central European Summer Time)","1","92","1","1728292078039"
"6480","j","SpeechGestureMatch","../RequiredFiles/videos/JaKopfJa_f_no_sound.mp4","Ist der Ball in der grünen Box?","Blue","Green","J","affirmation","na","gesture","na","HeadNod","female","gesture-speech","1920","1080","chrome","60.89","Mac OS","26","male","right","Mon Oct 07 2024 10:33:14 GMT+0200 (Central European Summer Time)","1","93","0","1728292078039"
"1575","j","SpeechGestureMatch","../RequiredFiles/videos/JaKopfNein_m_no_sound.mp4","Ist der Ball in der blauen Box?","Green","Blue","F","negation","na","gesture","na","HeadShake","male","gesture-speech","1920","1080","chrome","60.89","Mac OS","26","male","right","Mon Oct 07 2024 10:33:21 GMT+0200 (Central European Summer Time)","1","94","1","1728292078039"
"849","f","SpeechGestureMatch","../RequiredFiles/videos/NeinKopfJa_f_no_sound.mp4","Ist der Ball in der grünen Box?","Green","Blue","F","affirmation","na","gesture","na","HeadNod","female","gesture-speech","1920","1080","chrome","60.89","Mac OS","26","male","right","Mon Oct 07 2024 10:33:28 GMT+0200 (Central European Summer Time)","1","95","0","1728292078039"
"890","f","SpeechGestureMatch","../RequiredFiles/videos/JaKopfJa_f.mp4","Ist der Ball in der grünen Box?","Green","Blue","F","affirmation","match","gesture","yes","HeadNod","female","gesture-speech","1920","1080","chrome","60.89","Mac OS","26","male","right","Mon Oct 07 2024 10:33:34 GMT+0200 (Central European Summer Time)","1","96","0","1728292078039"
"802","f","SpeechGestureMatch","../RequiredFiles/videos/JaKopfJa_m_no_sound.mp4","Ist der Ball in der blauen Box?","Blue","Green","F","affirmation","na","gesture","na","HeadNod","male","gesture-speech","1920","1080","chrome","60.89","Mac OS","26","male","right","Mon Oct 07 2024 10:33:45 GMT+0200 (Central European Summer Time)","2","1","0","1728292078039"
"1434","j","SpeechGestureMatch","../RequiredFiles/videos/NeinKopfNein_m.mp4","Ist der Ball in der grünen Box?","Blue","Green","F","negation","match","gesture","no","HeadShake","male","gesture-speech","1920","1080","chrome","60.89","Mac OS","26","male","right","Mon Oct 07 2024 10:33:52 GMT+0200 (Central European Summer Time)","2","2","1","1728292078039"
"1215","f","SpeechGestureMatch","../RequiredFiles/videos/NeinKopfJa_m.mp4","Ist der Ball in der blauen Box?","Green","Blue","J","affirmation","mismatch","gesture","no","HeadNod","male","gesture-speech","1920","1080","chrome","60.89","Mac OS","26","male","right","Mon Oct 07 2024 10:33:59 GMT+0200 (Central European Summer Time)","2","3","1","1728292078039"
"1695","j","SpeechGestureMatch","../RequiredFiles/videos/NeinKopfNein_m.mp4","Ist der Ball in der blauen Box?","Blue","Green","J","negation","match","gesture","no","HeadShake","male","gesture-speech","1920","1080","chrome","60.89","Mac OS","26","male","right","Mon Oct 07 2024 10:34:06 GMT+0200 (Central European Summer Time)","2","4","0","1728292078039"
"1305","f","SpeechGestureMatch","../RequiredFiles/videos/JaKopfNein_m.mp4","Ist der Ball in der blauen Box?","Green","Blue","F","negation","mismatch","gesture","yes","HeadShake","male","gesture-speech","1920","1080","chrome","60.89","Mac OS","26","male","right","Mon Oct 07 2024 10:34:13 GMT+0200 (Central European Summer Time)","2","5","0","1728292078039"
"1466","f","SpeechGestureMatch","../RequiredFiles/videos/NeinKopfJa_m.mp4","Ist der Ball in der blauen Box?","Blue","Green","F","affirmation","mismatch","gesture","no","HeadNod","male","gesture-speech","1920","1080","chrome","60.89","Mac OS","26","male","right","Mon Oct 07 2024 10:34:20 GMT+0200 (Central European Summer Time)","2","6","0","1728292078039"
"1504","j","SpeechGestureMatch","../RequiredFiles/videos/JaKopfNein_m.mp4","Ist der Ball in der grünen Box?","Green","Blue","J","negation","mismatch","gesture","yes","HeadShake","male","gesture-speech","1920","1080","chrome","60.89","Mac OS","26","male","right","Mon Oct 07 2024 10:34:27 GMT+0200 (Central European Summer Time)","2","7","0","1728292078039"
"1587","f","SpeechGestureMatch","../RequiredFiles/videos/NeinKopfJa_f.mp4","Ist der Ball in der grünen Box?","Blue","Green","J","affirmation","mismatch","gesture","no","HeadNod","female","gesture-speech","1920","1080","chrome","60.89","Mac OS","26","male","right","Mon Oct 07 2024 10:34:34 GMT+0200 (Central European Summer Time)","2","8","1","1728292078039"
"1279","f","SpeechGestureMatch","../RequiredFiles/videos/JaKopfJa_m_no_sound.mp4","Ist der Ball in der grünen Box?","Green","Blue","F","affirmation","na","gesture","na","HeadNod","male","gesture-speech","1920","1080","chrome","60.89","Mac OS","26","male","right","Mon Oct 07 2024 10:34:41 GMT+0200 (Central European Summer Time)","2","9","0","1728292078039"
"1226","j","SpeechGestureMatch","../RequiredFiles/videos/NeinKopfNein_f.mp4","Ist der Ball in der blauen Box?","Blue","Green","J","negation","match","gesture","no","HeadShake","female","gesture-speech","1920","1080","chrome","60.89","Mac OS","26","male","right","Mon Oct 07 2024 10:34:48 GMT+0200 (Central European Summer Time)","2","10","0","1728292078039"
"1525","j","SpeechGestureMatch","../RequiredFiles/videos/JaKopfNein_f.mp4","Ist der Ball in der grünen Box?","Green","Blue","J","negation","mismatch","gesture","yes","HeadShake","female","gesture-speech","1920","1080","chrome","60.89","Mac OS","26","male","right","Mon Oct 07 2024 10:34:55 GMT+0200 (Central European Summer Time)","2","11","0","1728292078039"
"1212","f","SpeechGestureMatch","../RequiredFiles/videos/NeinKopfJa_m_no_sound.mp4","Ist der Ball in der grünen Box?","Green","Blue","F","affirmation","na","gesture","na","HeadNod","male","gesture-speech","1920","1080","chrome","60.89","Mac OS","26","male","right","Mon Oct 07 2024 10:35:02 GMT+0200 (Central European Summer Time)","2","12","0","1728292078039"
"1058","f","SpeechGestureMatch","../RequiredFiles/videos/NeinKopfJa_m.mp4","Ist der Ball in der blauen Box?","Blue","Green","F","affirmation","mismatch","gesture","no","HeadNod","male","gesture-speech","1920","1080","chrome","60.89","Mac OS","26","male","right","Mon Oct 07 2024 10:35:08 GMT+0200 (Central European Summer Time)","2","13","0","1728292078039"
"1630","j","SpeechGestureMatch","../RequiredFiles/videos/NeinKopfNein_m.mp4","Ist der Ball in der grünen Box?","Blue","Green","F","negation","match","gesture","no","HeadShake","male","gesture-speech","1920","1080","chrome","60.89","Mac OS","26","male","right","Mon Oct 07 2024 10:35:15 GMT+0200 (Central European Summer Time)","2","14","1","1728292078039"
"1090","j","SpeechGestureMatch","../RequiredFiles/videos/JaKopfNein_f.mp4","Ist der Ball in der blauen Box?","Blue","Green","J","negation","mismatch","gesture","yes","HeadShake","female","gesture-speech","1920","1080","chrome","60.89","Mac OS","26","male","right","Mon Oct 07 2024 10:35:22 GMT+0200 (Central European Summer Time)","2","15","0","1728292078039"
"1514","j","SpeechGestureMatch","../RequiredFiles/videos/JaKopfNein_f.mp4","Ist der Ball in der grünen Box?","Green","Blue","J","negation","mismatch","gesture","yes","HeadShake","female","gesture-speech","1920","1080","chrome","60.89","Mac OS","26","male","right","Mon Oct 07 2024 10:35:29 GMT+0200 (Central European Summer Time)","2","16","0","1728292078039"
"1657","f","SpeechGestureMatch","../RequiredFiles/videos/NeinKopfJa_f.mp4","Ist der Ball in der blauen Box?","Blue","Green","F","affirmation","mismatch","gesture","no","HeadNod","female","gesture-speech","1920","1080","chrome","60.89","Mac OS","26","male","right","Mon Oct 07 2024 10:35:36 GMT+0200 (Central European Summer Time)","2","17","0","1728292078039"
"969","f","SpeechGestureMatch","../RequiredFiles/videos/JaKopfJa_f_no_sound.mp4","Ist der Ball in der grünen Box?","Green","Blue","F","affirmation","na","gesture","na","HeadNod","female","gesture-speech","1920","1080","chrome","60.89","Mac OS","26","male","right","Mon Oct 07 2024 10:35:43 GMT+0200 (Central European Summer Time)","2","18","0","1728292078039"
"1589","j","SpeechGestureMatch","../RequiredFiles/videos/NeinKopfNein_f.mp4","Ist der Ball in der grünen Box?","Blue","Green","F","negation","match","gesture","no","HeadShake","female","gesture-speech","1920","1080","chrome","60.89","Mac OS","26","male","right","Mon Oct 07 2024 10:35:50 GMT+0200 (Central European Summer Time)","2","19","1","1728292078039"
"1257","j","SpeechGestureMatch","../RequiredFiles/videos/JaKopfNein_f.mp4","Ist der Ball in der blauen Box?","Blue","Green","J","negation","mismatch","gesture","yes","HeadShake","female","gesture-speech","1920","1080","chrome","60.89","Mac OS","26","male","right","Mon Oct 07 2024 10:35:56 GMT+0200 (Central European Summer Time)","2","20","0","1728292078039"
"1486","f","SpeechGestureMatch","../RequiredFiles/videos/JaKopfNein_m.mp4","Ist der Ball in der grünen Box?","Blue","Green","F","negation","mismatch","gesture","yes","HeadShake","male","gesture-speech","1920","1080","chrome","60.89","Mac OS","26","male","right","Mon Oct 07 2024 10:36:03 GMT+0200 (Central European Summer Time)","2","21","0","1728292078039"
"1689","j","SpeechGestureMatch","../RequiredFiles/videos/JaKopfNein_m_no_sound.mp4","Ist der Ball in der blauen Box?","Green","Blue","F","negation","na","gesture","na","HeadShake","male","gesture-speech","1920","1080","chrome","60.89","Mac OS","26","male","right","Mon Oct 07 2024 10:36:11 GMT+0200 (Central European Summer Time)","2","22","1","1728292078039"
"1106","j","SpeechGestureMatch","../RequiredFiles/videos/NeinKopfJa_f.mp4","Ist der Ball in der blauen Box?","Green","Blue","J","affirmation","mismatch","gesture","no","HeadNod","female","gesture-speech","1920","1080","chrome","60.89","Mac OS","26","male","right","Mon Oct 07 2024 10:36:17 GMT+0200 (Central European Summer Time)","2","23","0","1728292078039"
"1484","j","SpeechGestureMatch","../RequiredFiles/videos/JaKopfJa_f.mp4","Ist der Ball in der blauen Box?","Blue","Green","F","affirmation","match","gesture","yes","HeadNod","female","gesture-speech","1920","1080","chrome","60.89","Mac OS","26","male","right","Mon Oct 07 2024 10:36:24 GMT+0200 (Central European Summer Time)","2","24","1","1728292078039"
"1560","f","SpeechGestureMatch","../RequiredFiles/videos/NeinKopfNein_m_no_sound.mp4","Ist der Ball in der blauen Box?","Green","Blue","F","negation","na","gesture","na","HeadShake","male","gesture-speech","1920","1080","chrome","60.89","Mac OS","26","male","right","Mon Oct 07 2024 10:36:31 GMT+0200 (Central European Summer Time)","2","25","0","1728292078039"
"1877","j","SpeechGestureMatch","../RequiredFiles/videos/JaKopfNein_m_no_sound.mp4","Ist der Ball in der grünen Box?","Blue","Green","F","negation","na","gesture","na","HeadShake","male","gesture-speech","1920","1080","chrome","60.89","Mac OS","26","male","right","Mon Oct 07 2024 10:36:39 GMT+0200 (Central European Summer Time)","2","26","1","1728292078039"
"1141","j","SpeechGestureMatch","../RequiredFiles/videos/NeinKopfJa_m.mp4","Ist der Ball in der grünen Box?","Blue","Green","J","affirmation","mismatch","gesture","no","HeadNod","male","gesture-speech","1920","1080","chrome","60.89","Mac OS","26","male","right","Mon Oct 07 2024 10:36:45 GMT+0200 (Central European Summer Time)","2","27","0","1728292078039"
"882","j","SpeechGestureMatch","../RequiredFiles/videos/NeinKopfJa_m.mp4","Ist der Ball in der grünen Box?","Blue","Green","J","affirmation","mismatch","gesture","no","HeadNod","male","gesture-speech","1920","1080","chrome","60.89","Mac OS","26","male","right","Mon Oct 07 2024 10:36:52 GMT+0200 (Central European Summer Time)","2","28","0","1728292078039"
"1531","f","SpeechGestureMatch","../RequiredFiles/videos/NeinKopfNein_f_no_sound.mp4","Ist der Ball in der blauen Box?","Green","Blue","F","negation","na","gesture","na","HeadShake","female","gesture-speech","1920","1080","chrome","60.89","Mac OS","26","male","right","Mon Oct 07 2024 10:36:59 GMT+0200 (Central European Summer Time)","2","29","0","1728292078039"
"1180","j","SpeechGestureMatch","../RequiredFiles/videos/JaKopfNein_m.mp4","Ist der Ball in der grünen Box?","Green","Blue","J","negation","mismatch","gesture","yes","HeadShake","male","gesture-speech","1920","1080","chrome","60.89","Mac OS","26","male","right","Mon Oct 07 2024 10:37:06 GMT+0200 (Central European Summer Time)","2","30","0","1728292078039"
"1184","f","SpeechGestureMatch","../RequiredFiles/videos/JaKopfNein_f.mp4","Ist der Ball in der blauen Box?","Green","Blue","F","negation","mismatch","gesture","yes","HeadShake","female","gesture-speech","1920","1080","chrome","60.89","Mac OS","26","male","right","Mon Oct 07 2024 10:37:12 GMT+0200 (Central European Summer Time)","2","31","0","1728292078039"
"1344","j","SpeechGestureMatch","../RequiredFiles/videos/JaKopfNein_m_no_sound.mp4","Ist der Ball in der grünen Box?","Green","Blue","J","negation","na","gesture","na","HeadShake","male","gesture-speech","1920","1080","chrome","60.89","Mac OS","26","male","right","Mon Oct 07 2024 10:37:19 GMT+0200 (Central European Summer Time)","2","32","0","1728292078039"
"1128","j","SpeechGestureMatch","../RequiredFiles/videos/NeinKopfNein_m_no_sound.mp4","Ist der Ball in der grünen Box?","Green","Blue","J","negation","na","gesture","na","HeadShake","male","gesture-speech","1920","1080","chrome","60.89","Mac OS","26","male","right","Mon Oct 07 2024 10:37:26 GMT+0200 (Central European Summer Time)","2","33","0","1728292078039"
"1105","f","SpeechGestureMatch","../RequiredFiles/videos/JaKopfJa_f.mp4","Ist der Ball in der blauen Box?","Green","Blue","J","affirmation","match","gesture","yes","HeadNod","female","gesture-speech","1920","1080","chrome","60.89","Mac OS","26","male","right","Mon Oct 07 2024 10:37:32 GMT+0200 (Central European Summer Time)","2","34","1","1728292078039"
"1809","f","SpeechGestureMatch","../RequiredFiles/videos/JaKopfJa_m.mp4","Ist der Ball in der grünen Box?","Blue","Green","J","affirmation","match","gesture","yes","HeadNod","male","gesture-speech","1920","1080","chrome","60.89","Mac OS","26","male","right","Mon Oct 07 2024 10:37:40 GMT+0200 (Central European Summer Time)","2","35","1","1728292078039"
"1985","j","SpeechGestureMatch","../RequiredFiles/videos/JaKopfNein_m.mp4","Ist der Ball in der blauen Box?","Green","Blue","F","negation","mismatch","gesture","yes","HeadShake","male","gesture-speech","1920","1080","chrome","60.89","Mac OS","26","male","right","Mon Oct 07 2024 10:37:47 GMT+0200 (Central European Summer Time)","2","36","1","1728292078039"
"1114","j","SpeechGestureMatch","../RequiredFiles/videos/NeinKopfJa_m_no_sound.mp4","Ist der Ball in der grünen Box?","Blue","Green","J","affirmation","na","gesture","na","HeadNod","male","gesture-speech","1920","1080","chrome","60.89","Mac OS","26","male","right","Mon Oct 07 2024 10:37:54 GMT+0200 (Central European Summer Time)","2","37","0","1728292078039"
"1479","f","SpeechGestureMatch","../RequiredFiles/videos/JaKopfJa_f.mp4","Ist der Ball in der blauen Box?","Blue","Green","F","affirmation","match","gesture","yes","HeadNod","female","gesture-speech","1920","1080","chrome","60.89","Mac OS","26","male","right","Mon Oct 07 2024 10:38:01 GMT+0200 (Central European Summer Time)","2","38","0","1728292078039"
"1506","f","SpeechGestureMatch","../RequiredFiles/videos/NeinKopfJa_f.mp4","Ist der Ball in der blauen Box?","Blue","Green","F","affirmation","mismatch","gesture","no","HeadNod","female","gesture-speech","1920","1080","chrome","60.89","Mac OS","26","male","right","Mon Oct 07 2024 10:38:08 GMT+0200 (Central European Summer Time)","2","39","0","1728292078039"
"673","j","SpeechGestureMatch","../RequiredFiles/videos/JaKopfJa_f_no_sound.mp4","Ist der Ball in der blauen Box?","Green","Blue","J","affirmation","na","gesture","na","HeadNod","female","gesture-speech","1920","1080","chrome","60.89","Mac OS","26","male","right","Mon Oct 07 2024 10:38:14 GMT+0200 (Central European Summer Time)","2","40","0","1728292078039"
"729","j","SpeechGestureMatch","../RequiredFiles/videos/NeinKopfJa_f.mp4","Ist der Ball in der blauen Box?","Green","Blue","J","affirmation","mismatch","gesture","no","HeadNod","female","gesture-speech","1920","1080","chrome","60.89","Mac OS","26","male","right","Mon Oct 07 2024 10:38:20 GMT+0200 (Central European Summer Time)","2","41","0","1728292078039"
"758","j","SpeechGestureMatch","../RequiredFiles/videos/JaKopfJa_m.mp4","Ist der Ball in der grünen Box?","Blue","Green","J","affirmation","match","gesture","yes","HeadNod","male","gesture-speech","1920","1080","chrome","60.89","Mac OS","26","male","right","Mon Oct 07 2024 10:38:27 GMT+0200 (Central European Summer Time)","2","42","0","1728292078039"
"1393","j","SpeechGestureMatch","../RequiredFiles/videos/JaKopfNein_f_no_sound.mp4","Ist der Ball in der grünen Box?","Green","Blue","J","negation","na","gesture","na","HeadShake","female","gesture-speech","1920","1080","chrome","60.89","Mac OS","26","male","right","Mon Oct 07 2024 10:38:33 GMT+0200 (Central European Summer Time)","2","43","0","1728292078039"
"763","j","SpeechGestureMatch","../RequiredFiles/videos/NeinKopfJa_f_no_sound.mp4","Ist der Ball in der blauen Box?","Blue","Green","F","affirmation","na","gesture","na","HeadNod","female","gesture-speech","1920","1080","chrome","60.89","Mac OS","26","male","right","Mon Oct 07 2024 10:38:40 GMT+0200 (Central European Summer Time)","2","44","1","1728292078039"
"888","f","SpeechGestureMatch","../RequiredFiles/videos/NeinKopfJa_m_no_sound.mp4","Ist der Ball in der blauen Box?","Blue","Green","F","affirmation","na","gesture","na","HeadNod","male","gesture-speech","1920","1080","chrome","60.89","Mac OS","26","male","right","Mon Oct 07 2024 10:38:46 GMT+0200 (Central European Summer Time)","2","45","0","1728292078039"
"1890","j","SpeechGestureMatch","../RequiredFiles/videos/NeinKopfNein_f_no_sound.mp4","Ist der Ball in der blauen Box?","Blue","Green","J","negation","na","gesture","na","HeadShake","female","gesture-speech","1920","1080","chrome","60.89","Mac OS","26","male","right","Mon Oct 07 2024 10:38:54 GMT+0200 (Central European Summer Time)","2","46","0","1728292078039"
"1364","f","SpeechGestureMatch","../RequiredFiles/videos/NeinKopfJa_m.mp4","Ist der Ball in der blauen Box?","Green","Blue","J","affirmation","mismatch","gesture","no","HeadNod","male","gesture-speech","1920","1080","chrome","60.89","Mac OS","26","male","right","Mon Oct 07 2024 10:39:00 GMT+0200 (Central European Summer Time)","2","47","1","1728292078039"
"1085","f","SpeechGestureMatch","../RequiredFiles/videos/JaKopfJa_m.mp4","Ist der Ball in der grünen Box?","Green","Blue","F","affirmation","match","gesture","yes","HeadNod","male","gesture-speech","1920","1080","chrome","60.89","Mac OS","26","male","right","Mon Oct 07 2024 10:39:07 GMT+0200 (Central European Summer Time)","2","48","0","1728292078039"
"1198","f","SpeechGestureMatch","../RequiredFiles/videos/JaKopfNein_f_no_sound.mp4","Ist der Ball in der blauen Box?","Green","Blue","F","negation","na","gesture","na","HeadShake","female","gesture-speech","1920","1080","chrome","60.89","Mac OS","26","male","right","Mon Oct 07 2024 10:39:14 GMT+0200 (Central European Summer Time)","2","49","0","1728292078039"
"1130","j","SpeechGestureMatch","../RequiredFiles/videos/JaKopfNein_m.mp4","Ist der Ball in der blauen Box?","Blue","Green","J","negation","mismatch","gesture","yes","HeadShake","male","gesture-speech","1920","1080","chrome","60.89","Mac OS","26","male","right","Mon Oct 07 2024 10:39:20 GMT+0200 (Central European Summer Time)","2","50","0","1728292078039"
"809","j","SpeechGestureMatch","../RequiredFiles/videos/NeinKopfJa_f.mp4","Ist der Ball in der grünen Box?","Blue","Green","J","affirmation","mismatch","gesture","no","HeadNod","female","gesture-speech","1920","1080","chrome","60.89","Mac OS","26","male","right","Mon Oct 07 2024 10:39:27 GMT+0200 (Central European Summer Time)","2","51","0","1728292078039"
"1028","f","SpeechGestureMatch","../RequiredFiles/videos/NeinKopfNein_f.mp4","Ist der Ball in der grünen Box?","Blue","Green","F","negation","match","gesture","no","HeadShake","female","gesture-speech","1920","1080","chrome","60.89","Mac OS","26","male","right","Mon Oct 07 2024 10:39:33 GMT+0200 (Central European Summer Time)","2","52","0","1728292078039"
"810","j","SpeechGestureMatch","../RequiredFiles/videos/JaKopfJa_f.mp4","Ist der Ball in der grünen Box?","Blue","Green","J","affirmation","match","gesture","yes","HeadNod","female","gesture-speech","1920","1080","chrome","60.89","Mac OS","26","male","right","Mon Oct 07 2024 10:39:40 GMT+0200 (Central European Summer Time)","2","53","0","1728292078039"
"1799","j","SpeechGestureMatch","../RequiredFiles/videos/NeinKopfJa_f_no_sound.mp4","Ist der Ball in der grünen Box?","Blue","Green","J","affirmation","na","gesture","na","HeadNod","female","gesture-speech","1920","1080","chrome","60.89","Mac OS","26","male","right","Mon Oct 07 2024 10:39:47 GMT+0200 (Central European Summer Time)","2","54","0","1728292078039"
"974","f","SpeechGestureMatch","../RequiredFiles/videos/JaKopfNein_m.mp4","Ist der Ball in der grünen Box?","Blue","Green","F","negation","mismatch","gesture","yes","HeadShake","male","gesture-speech","1920","1080","chrome","60.89","Mac OS","26","male","right","Mon Oct 07 2024 10:39:53 GMT+0200 (Central European Summer Time)","2","55","0","1728292078039"
"860","j","SpeechGestureMatch","../RequiredFiles/videos/JaKopfJa_m_no_sound.mp4","Ist der Ball in der grünen Box?","Blue","Green","J","affirmation","na","gesture","na","HeadNod","male","gesture-speech","1920","1080","chrome","60.89","Mac OS","26","male","right","Mon Oct 07 2024 10:40:00 GMT+0200 (Central European Summer Time)","2","56","0","1728292078039"
"1049","j","SpeechGestureMatch","../RequiredFiles/videos/NeinKopfNein_m_no_sound.mp4","Ist der Ball in der blauen Box?","Blue","Green","J","negation","na","gesture","na","HeadShake","male","gesture-speech","1920","1080","chrome","60.89","Mac OS","26","male","right","Mon Oct 07 2024 10:40:06 GMT+0200 (Central European Summer Time)","2","57","0","1728292078039"
"1520","f","SpeechGestureMatch","../RequiredFiles/videos/NeinKopfNein_f.mp4","Ist der Ball in der blauen Box?","Green","Blue","F","negation","match","gesture","no","HeadShake","female","gesture-speech","1920","1080","chrome","60.89","Mac OS","26","male","right","Mon Oct 07 2024 10:40:13 GMT+0200 (Central European Summer Time)","2","58","0","1728292078039"
"1665","f","SpeechGestureMatch","../RequiredFiles/videos/NeinKopfNein_m.mp4","Ist der Ball in der blauen Box?","Blue","Green","J","negation","match","gesture","no","HeadShake","male","gesture-speech","1920","1080","chrome","60.89","Mac OS","26","male","right","Mon Oct 07 2024 10:40:21 GMT+0200 (Central European Summer Time)","2","59","1","1728292078039"
"1983","j","SpeechGestureMatch","../RequiredFiles/videos/NeinKopfJa_f_no_sound.mp4","Ist der Ball in der grünen Box?","Green","Blue","F","affirmation","na","gesture","na","HeadNod","female","gesture-speech","1920","1080","chrome","60.89","Mac OS","26","male","right","Mon Oct 07 2024 10:40:28 GMT+0200 (Central European Summer Time)","2","60","1","1728292078039"
"1738","f","SpeechGestureMatch","../RequiredFiles/videos/JaKopfNein_f.mp4","Ist der Ball in der grünen Box?","Blue","Green","F","negation","mismatch","gesture","yes","HeadShake","female","gesture-speech","1920","1080","chrome","60.89","Mac OS","26","male","right","Mon Oct 07 2024 10:40:35 GMT+0200 (Central European Summer Time)","2","61","0","1728292078039"
"844","f","SpeechGestureMatch","../RequiredFiles/videos/JaKopfJa_f_no_sound.mp4","Ist der Ball in der blauen Box?","Blue","Green","F","affirmation","na","gesture","na","HeadNod","female","gesture-speech","1920","1080","chrome","60.89","Mac OS","26","male","right","Mon Oct 07 2024 10:40:42 GMT+0200 (Central European Summer Time)","2","62","0","1728292078039"
"1335","f","SpeechGestureMatch","../RequiredFiles/videos/NeinKopfNein_m_no_sound.mp4","Ist der Ball in der grünen Box?","Blue","Green","F","negation","na","gesture","na","HeadShake","male","gesture-speech","1920","1080","chrome","60.89","Mac OS","26","male","right","Mon Oct 07 2024 10:40:49 GMT+0200 (Central European Summer Time)","2","63","0","1728292078039"
"1813","f","SpeechGestureMatch","../RequiredFiles/videos/JaKopfNein_f.mp4","Ist der Ball in der blauen Box?","Green","Blue","F","negation","mismatch","gesture","yes","HeadShake","female","gesture-speech","1920","1080","chrome","60.89","Mac OS","26","male","right","Mon Oct 07 2024 10:40:56 GMT+0200 (Central European Summer Time)","2","64","0","1728292078039"
"1020","f","SpeechGestureMatch","../RequiredFiles/videos/JaKopfNein_f_no_sound.mp4","Ist der Ball in der grünen Box?","Blue","Green","F","negation","na","gesture","na","HeadShake","female","gesture-speech","1920","1080","chrome","60.89","Mac OS","26","male","right","Mon Oct 07 2024 10:41:02 GMT+0200 (Central European Summer Time)","2","65","0","1728292078039"
"963","j","SpeechGestureMatch","../RequiredFiles/videos/NeinKopfNein_f.mp4","Ist der Ball in der grünen Box?","Green","Blue","J","negation","match","gesture","no","HeadShake","female","gesture-speech","1920","1080","chrome","60.89","Mac OS","26","male","right","Mon Oct 07 2024 10:41:09 GMT+0200 (Central European Summer Time)","2","66","0","1728292078039"
"921","f","SpeechGestureMatch","../RequiredFiles/videos/NeinKopfJa_m.mp4","Ist der Ball in der grünen Box?","Green","Blue","F","affirmation","mismatch","gesture","no","HeadNod","male","gesture-speech","1920","1080","chrome","60.89","Mac OS","26","male","right","Mon Oct 07 2024 10:41:15 GMT+0200 (Central European Summer Time)","2","67","0","1728292078039"
"808","j","SpeechGestureMatch","../RequiredFiles/videos/JaKopfJa_m_no_sound.mp4","Ist der Ball in der blauen Box?","Green","Blue","J","affirmation","na","gesture","na","HeadNod","male","gesture-speech","1920","1080","chrome","60.89","Mac OS","26","male","right","Mon Oct 07 2024 10:41:22 GMT+0200 (Central European Summer Time)","2","68","0","1728292078039"
"890","j","SpeechGestureMatch","../RequiredFiles/videos/NeinKopfJa_f_no_sound.mp4","Ist der Ball in der blauen Box?","Green","Blue","J","affirmation","na","gesture","na","HeadNod","female","gesture-speech","1920","1080","chrome","60.89","Mac OS","26","male","right","Mon Oct 07 2024 10:41:28 GMT+0200 (Central European Summer Time)","2","69","0","1728292078039"
"1583","j","SpeechGestureMatch","../RequiredFiles/videos/JaKopfNein_m_no_sound.mp4","Ist der Ball in der blauen Box?","Blue","Green","J","negation","na","gesture","na","HeadShake","male","gesture-speech","1920","1080","chrome","60.89","Mac OS","26","male","right","Mon Oct 07 2024 10:41:35 GMT+0200 (Central European Summer Time)","2","70","0","1728292078039"
"3490","f","SpeechGestureMatch","../RequiredFiles/videos/JaKopfNein_m.mp4","Ist der Ball in der blauen Box?","Blue","Green","J","negation","mismatch","gesture","yes","HeadShake","male","gesture-speech","1920","1080","chrome","60.89","Mac OS","26","male","right","Mon Oct 07 2024 10:41:44 GMT+0200 (Central European Summer Time)","2","71","1","1728292078039"
"2031","j","SpeechGestureMatch","../RequiredFiles/videos/NeinKopfJa_f.mp4","Ist der Ball in der grünen Box?","Green","Blue","F","affirmation","mismatch","gesture","no","HeadNod","female","gesture-speech","1920","1080","chrome","60.89","Mac OS","26","male","right","Mon Oct 07 2024 10:41:52 GMT+0200 (Central European Summer Time)","2","72","1","1728292078039"
"1809","f","SpeechGestureMatch","../RequiredFiles/videos/NeinKopfNein_f_no_sound.mp4","Ist der Ball in der grünen Box?","Green","Blue","J","negation","na","gesture","na","HeadShake","female","gesture-speech","1920","1080","chrome","60.89","Mac OS","26","male","right","Mon Oct 07 2024 10:41:59 GMT+0200 (Central European Summer Time)","2","73","1","1728292078039"
"856","j","SpeechGestureMatch","../RequiredFiles/videos/JaKopfJa_f_no_sound.mp4","Ist der Ball in der grünen Box?","Blue","Green","J","affirmation","na","gesture","na","HeadNod","female","gesture-speech","1920","1080","chrome","60.89","Mac OS","26","male","right","Mon Oct 07 2024 10:42:05 GMT+0200 (Central European Summer Time)","2","74","0","1728292078039"
"1435","f","SpeechGestureMatch","../RequiredFiles/videos/NeinKopfNein_f_no_sound.mp4","Ist der Ball in der grünen Box?","Blue","Green","F","negation","na","gesture","na","HeadShake","female","gesture-speech","1920","1080","chrome","60.89","Mac OS","26","male","right","Mon Oct 07 2024 10:42:12 GMT+0200 (Central European Summer Time)","2","75","0","1728292078039"
"1484","j","SpeechGestureMatch","../RequiredFiles/videos/NeinKopfJa_f.mp4","Ist der Ball in der grünen Box?","Green","Blue","F","affirmation","mismatch","gesture","no","HeadNod","female","gesture-speech","1920","1080","chrome","60.89","Mac OS","26","male","right","Mon Oct 07 2024 10:42:19 GMT+0200 (Central European Summer Time)","2","76","1","1728292078039"
"1063","f","SpeechGestureMatch","../RequiredFiles/videos/NeinKopfNein_m.mp4","Ist der Ball in der blauen Box?","Green","Blue","F","negation","match","gesture","no","HeadShake","male","gesture-speech","1920","1080","chrome","60.89","Mac OS","26","male","right","Mon Oct 07 2024 10:42:26 GMT+0200 (Central European Summer Time)","2","77","0","1728292078039"
"1189","j","SpeechGestureMatch","../RequiredFiles/videos/NeinKopfNein_m.mp4","Ist der Ball in der grünen Box?","Green","Blue","J","negation","match","gesture","no","HeadShake","male","gesture-speech","1920","1080","chrome","60.89","Mac OS","26","male","right","Mon Oct 07 2024 10:42:33 GMT+0200 (Central European Summer Time)","2","78","0","1728292078039"
"1375","f","SpeechGestureMatch","../RequiredFiles/videos/NeinKopfNein_f.mp4","Ist der Ball in der blauen Box?","Green","Blue","F","negation","match","gesture","no","HeadShake","female","gesture-speech","1920","1080","chrome","60.89","Mac OS","26","male","right","Mon Oct 07 2024 10:42:40 GMT+0200 (Central European Summer Time)","2","79","0","1728292078039"
"800","f","SpeechGestureMatch","../RequiredFiles/videos/JaKopfJa_m.mp4","Ist der Ball in der blauen Box?","Green","Blue","J","affirmation","match","gesture","yes","HeadNod","male","gesture-speech","1920","1080","chrome","60.89","Mac OS","26","male","right","Mon Oct 07 2024 10:42:46 GMT+0200 (Central European Summer Time)","2","80","1","1728292078039"
"820","j","SpeechGestureMatch","../RequiredFiles/videos/JaKopfJa_m.mp4","Ist der Ball in der blauen Box?","Green","Blue","J","affirmation","match","gesture","yes","HeadNod","male","gesture-speech","1920","1080","chrome","60.89","Mac OS","26","male","right","Mon Oct 07 2024 10:42:52 GMT+0200 (Central European Summer Time)","2","81","0","1728292078039"
"944","f","SpeechGestureMatch","../RequiredFiles/videos/JaKopfJa_f.mp4","Ist der Ball in der grünen Box?","Green","Blue","F","affirmation","match","gesture","yes","HeadNod","female","gesture-speech","1920","1080","chrome","60.89","Mac OS","26","male","right","Mon Oct 07 2024 10:42:59 GMT+0200 (Central European Summer Time)","2","82","0","1728292078039"
"632","f","SpeechGestureMatch","../RequiredFiles/videos/JaKopfJa_m.mp4","Ist der Ball in der blauen Box?","Blue","Green","F","affirmation","match","gesture","yes","HeadNod","male","gesture-speech","1920","1080","chrome","60.89","Mac OS","26","male","right","Mon Oct 07 2024 10:43:05 GMT+0200 (Central European Summer Time)","2","83","0","1728292078039"
"925","j","SpeechGestureMatch","../RequiredFiles/videos/JaKopfNein_f_no_sound.mp4","Ist der Ball in der blauen Box?","Blue","Green","J","negation","na","gesture","na","HeadShake","female","gesture-speech","1920","1080","chrome","60.89","Mac OS","26","male","right","Mon Oct 07 2024 10:43:11 GMT+0200 (Central European Summer Time)","2","84","0","1728292078039"
"718","j","SpeechGestureMatch","../RequiredFiles/videos/JaKopfJa_f.mp4","Ist der Ball in der blauen Box?","Green","Blue","J","affirmation","match","gesture","yes","HeadNod","female","gesture-speech","1920","1080","chrome","60.89","Mac OS","26","male","right","Mon Oct 07 2024 10:43:18 GMT+0200 (Central European Summer Time)","2","85","0","1728292078039"
"1215","f","SpeechGestureMatch","../RequiredFiles/videos/JaKopfNein_f.mp4","Ist der Ball in der grünen Box?","Blue","Green","F","negation","mismatch","gesture","yes","HeadShake","female","gesture-speech","1920","1080","chrome","60.89","Mac OS","26","male","right","Mon Oct 07 2024 10:43:24 GMT+0200 (Central European Summer Time)","2","86","0","1728292078039"
"851","f","SpeechGestureMatch","../RequiredFiles/videos/JaKopfJa_m.mp4","Ist der Ball in der grünen Box?","Green","Blue","F","affirmation","match","gesture","yes","HeadNod","male","gesture-speech","1920","1080","chrome","60.89","Mac OS","26","male","right","Mon Oct 07 2024 10:43:31 GMT+0200 (Central European Summer Time)","2","87","0","1728292078039"
"1643","f","SpeechGestureMatch","../RequiredFiles/videos/NeinKopfNein_m.mp4","Ist der Ball in der blauen Box?","Green","Blue","F","negation","match","gesture","no","HeadShake","male","gesture-speech","1920","1080","chrome","60.89","Mac OS","26","male","right","Mon Oct 07 2024 10:43:38 GMT+0200 (Central European Summer Time)","2","88","0","1728292078039"
"1131","j","SpeechGestureMatch","../RequiredFiles/videos/JaKopfJa_f.mp4","Ist der Ball in der grünen Box?","Green","Blue","F","affirmation","match","gesture","yes","HeadNod","female","gesture-speech","1920","1080","chrome","60.89","Mac OS","26","male","right","Mon Oct 07 2024 10:43:44 GMT+0200 (Central European Summer Time)","2","89","1","1728292078039"
"886","f","SpeechGestureMatch","../RequiredFiles/videos/NeinKopfJa_m.mp4","Ist der Ball in der grünen Box?","Green","Blue","F","affirmation","mismatch","gesture","no","HeadNod","male","gesture-speech","1920","1080","chrome","60.89","Mac OS","26","male","right","Mon Oct 07 2024 10:43:51 GMT+0200 (Central European Summer Time)","2","90","0","1728292078039"
"1073","f","SpeechGestureMatch","../RequiredFiles/videos/JaKopfJa_m.mp4","Ist der Ball in der blauen Box?","Blue","Green","F","affirmation","match","gesture","yes","HeadNod","male","gesture-speech","1920","1080","chrome","60.89","Mac OS","26","male","right","Mon Oct 07 2024 10:43:57 GMT+0200 (Central European Summer Time)","2","91","0","1728292078039"
"1376","f","SpeechGestureMatch","../RequiredFiles/videos/NeinKopfNein_f.mp4","Ist der Ball in der grünen Box?","Green","Blue","J","negation","match","gesture","no","HeadShake","female","gesture-speech","1920","1080","chrome","60.89","Mac OS","26","male","right","Mon Oct 07 2024 10:44:04 GMT+0200 (Central European Summer Time)","2","92","1","1728292078039"
"842","j","SpeechGestureMatch","../RequiredFiles/videos/NeinKopfJa_m_no_sound.mp4","Ist der Ball in der blauen Box?","Green","Blue","J","affirmation","na","gesture","na","HeadNod","male","gesture-speech","1920","1080","chrome","60.89","Mac OS","26","male","right","Mon Oct 07 2024 10:44:11 GMT+0200 (Central European Summer Time)","2","93","0","1728292078039"
"1415","f","SpeechGestureMatch","../RequiredFiles/videos/NeinKopfNein_f.mp4","Ist der Ball in der blauen Box?","Blue","Green","J","negation","match","gesture","no","HeadShake","female","gesture-speech","1920","1080","chrome","60.89","Mac OS","26","male","right","Mon Oct 07 2024 10:44:18 GMT+0200 (Central European Summer Time)","2","94","1","1728292078039"
"1483","j","SpeechGestureMatch","../RequiredFiles/videos/NeinKopfNein_m.mp4","Ist der Ball in der grünen Box?","Green","Blue","J","negation","match","gesture","no","HeadShake","male","gesture-speech","1920","1080","chrome","60.89","Mac OS","26","male","right","Mon Oct 07 2024 10:44:25 GMT+0200 (Central European Summer Time)","2","95","0","1728292078039"
"999","j","SpeechGestureMatch","../RequiredFiles/videos/JaKopfJa_f.mp4","Ist der Ball in der grünen Box?","Blue","Green","J","affirmation","match","gesture","yes","HeadNod","female","gesture-speech","1920","1080","chrome","60.89","Mac OS","26","male","right","Mon Oct 07 2024 10:44:31 GMT+0200 (Central European Summer Time)","2","96","0","1728292078039"
"1766","f","SpeechGestureMatch","../RequiredFiles/videos/JaKopfNein_f.mp4","Ist der Ball in der grünen Box?","Green","Blue","F","affirmation","mismatch","speech","yes","HeadShake","female","gesture-speech","1920","1080","chrome","60.89","Mac OS","26","male","right","Mon Oct 07 2024 10:46:03 GMT+0200 (Central European Summer Time)","3","1","0","1728292078039"
"1370","j","SpeechGestureMatch","../RequiredFiles/videos/NeinKopfNein_m.mp4","Ist der Ball in der blauen Box?","Blue","Green","J","negation","match","speech","no","HeadShake","male","gesture-speech","1920","1080","chrome","60.89","Mac OS","26","male","right","Mon Oct 07 2024 10:46:09 GMT+0200 (Central European Summer Time)","3","2","0","1728292078039"
"38","j","SpeechGestureMatch","../RequiredFiles/videos/NeinKopfJa_m_no_gesture.mp4","Ist der Ball in der blauen Box?","Green","Blue","F","negation","na","speech","no","na","male","gesture-speech","1920","1080","chrome","60.89","Mac OS","26","male","right","Mon Oct 07 2024 10:46:15 GMT+0200 (Central European Summer Time)","3","3","1","1728292078039"
"919","j","SpeechGestureMatch","../RequiredFiles/videos/JaKopfJa_f.mp4","Ist der Ball in der grünen Box?","Blue","Green","J","affirmation","match","speech","yes","HeadNod","female","gesture-speech","1920","1080","chrome","60.89","Mac OS","26","male","right","Mon Oct 07 2024 10:46:21 GMT+0200 (Central European Summer Time)","3","4","0","1728292078039"
"1743","j","SpeechGestureMatch","../RequiredFiles/videos/JaKopfJa_m_no_gesture.mp4","Ist der Ball in der blauen Box?","Green","Blue","J","affirmation","na","speech","yes","na","male","gesture-speech","1920","1080","chrome","60.89","Mac OS","26","male","right","Mon Oct 07 2024 10:46:29 GMT+0200 (Central European Summer Time)","3","5","0","1728292078039"
"920","f","SpeechGestureMatch","../RequiredFiles/videos/NeinKopfJa_f.mp4","Ist der Ball in der grünen Box?","Blue","Green","F","negation","mismatch","speech","no","HeadNod","female","gesture-speech","1920","1080","chrome","60.89","Mac OS","26","male","right","Mon Oct 07 2024 10:46:35 GMT+0200 (Central European Summer Time)","3","6","0","1728292078039"
"1563","j","SpeechGestureMatch","../RequiredFiles/videos/NeinKopfNein_f.mp4","Ist der Ball in der grünen Box?","Green","Blue","J","negation","match","speech","no","HeadShake","female","gesture-speech","1920","1080","chrome","60.89","Mac OS","26","male","right","Mon Oct 07 2024 10:46:42 GMT+0200 (Central European Summer Time)","3","7","0","1728292078039"
"10786","j","SpeechGestureMatch","../RequiredFiles/videos/NeinKopfJa_f_no_gesture.mp4","Ist der Ball in der blauen Box?","Blue","Green","J","negation","na","speech","no","na","female","gesture-speech","1920","1080","chrome","60.89","Mac OS","26","male","right","Mon Oct 07 2024 10:46:59 GMT+0200 (Central European Summer Time)","3","8","0","1728292078039"
"1746","j","SpeechGestureMatch","../RequiredFiles/videos/NeinKopfNein_m_no_gesture.mp4","Ist der Ball in der blauen Box?","Green","Blue","F","negation","na","speech","no","na","male","gesture-speech","1920","1080","chrome","60.89","Mac OS","26","male","right","Mon Oct 07 2024 10:47:06 GMT+0200 (Central European Summer Time)","3","9","1","1728292078039"
"2352","j","SpeechGestureMatch","../RequiredFiles/videos/JaKopfNein_m_no_gesture.mp4","Ist der Ball in der blauen Box?","Green","Blue","J","affirmation","na","speech","yes","na","male","gesture-speech","1920","1080","chrome","60.89","Mac OS","26","male","right","Mon Oct 07 2024 10:47:14 GMT+0200 (Central European Summer Time)","3","10","0","1728292078039"
"968","j","SpeechGestureMatch","../RequiredFiles/videos/NeinKopfNein_m_no_gesture.mp4","Ist der Ball in der grünen Box?","Green","Blue","J","negation","na","speech","no","na","male","gesture-speech","1920","1080","chrome","60.89","Mac OS","26","male","right","Mon Oct 07 2024 10:47:20 GMT+0200 (Central European Summer Time)","3","11","0","1728292078039"
"1794","j","SpeechGestureMatch","../RequiredFiles/videos/JaKopfNein_f_no_gesture.mp4","Ist der Ball in der grünen Box?","Blue","Green","J","affirmation","na","speech","yes","na","female","gesture-speech","1920","1080","chrome","60.89","Mac OS","26","male","right","Mon Oct 07 2024 10:47:27 GMT+0200 (Central European Summer Time)","3","12","0","1728292078039"
"379","j","SpeechGestureMatch","../RequiredFiles/videos/NeinKopfJa_m_no_gesture.mp4","Ist der Ball in der blauen Box?","Blue","Green","J","negation","na","speech","no","na","male","gesture-speech","1920","1080","chrome","60.89","Mac OS","26","male","right","Mon Oct 07 2024 10:47:33 GMT+0200 (Central European Summer Time)","3","13","0","1728292078039"
"1176","f","SpeechGestureMatch","../RequiredFiles/videos/JaKopfNein_f_no_gesture.mp4","Ist der Ball in der grünen Box?","Green","Blue","F","affirmation","na","speech","yes","na","female","gesture-speech","1920","1080","chrome","60.89","Mac OS","26","male","right","Mon Oct 07 2024 10:47:40 GMT+0200 (Central European Summer Time)","3","14","0","1728292078039"
"2346","j","SpeechGestureMatch","../RequiredFiles/videos/NeinKopfNein_f.mp4","Ist der Ball in der blauen Box?","Green","Blue","F","negation","match","speech","no","HeadShake","female","gesture-speech","1920","1080","chrome","60.89","Mac OS","26","male","right","Mon Oct 07 2024 10:47:48 GMT+0200 (Central European Summer Time)","3","15","1","1728292078039"
"3811","j","SpeechGestureMatch","../RequiredFiles/videos/JaKopfJa_f_no_gesture.mp4","Ist der Ball in der grünen Box?","Green","Blue","F","affirmation","na","speech","yes","na","female","gesture-speech","1920","1080","chrome","60.89","Mac OS","26","male","right","Mon Oct 07 2024 10:47:57 GMT+0200 (Central European Summer Time)","3","16","1","1728292078039"
"1376","j","SpeechGestureMatch","../RequiredFiles/videos/NeinKopfNein_f.mp4","Ist der Ball in der grünen Box?","Blue","Green","F","negation","match","speech","no","HeadShake","female","gesture-speech","1920","1080","chrome","60.89","Mac OS","26","male","right","Mon Oct 07 2024 10:48:04 GMT+0200 (Central European Summer Time)","3","17","1","1728292078039"
"1208","j","SpeechGestureMatch","../RequiredFiles/videos/NeinKopfJa_m_no_gesture.mp4","Ist der Ball in der grünen Box?","Green","Blue","J","negation","na","speech","no","na","male","gesture-speech","1920","1080","chrome","60.89","Mac OS","26","male","right","Mon Oct 07 2024 10:48:11 GMT+0200 (Central European Summer Time)","3","18","0","1728292078039"
"1564","j","SpeechGestureMatch","../RequiredFiles/videos/NeinKopfJa_m.mp4","Ist der Ball in der grünen Box?","Blue","Green","F","negation","mismatch","speech","no","HeadNod","male","gesture-speech","1920","1080","chrome","60.89","Mac OS","26","male","right","Mon Oct 07 2024 10:48:18 GMT+0200 (Central European Summer Time)","3","19","1","1728292078039"
"1193","f","SpeechGestureMatch","../RequiredFiles/videos/JaKopfJa_m_no_gesture.mp4","Ist der Ball in der blauen Box?","Blue","Green","F","affirmation","na","speech","yes","na","male","gesture-speech","1920","1080","chrome","60.89","Mac OS","26","male","right","Mon Oct 07 2024 10:48:25 GMT+0200 (Central European Summer Time)","3","20","0","1728292078039"
"1858","f","SpeechGestureMatch","../RequiredFiles/videos/JaKopfNein_m.mp4","Ist der Ball in der blauen Box?","Blue","Green","F","affirmation","mismatch","speech","yes","HeadShake","male","gesture-speech","1920","1080","chrome","60.89","Mac OS","26","male","right","Mon Oct 07 2024 10:48:32 GMT+0200 (Central European Summer Time)","3","21","0","1728292078039"
"1703","j","SpeechGestureMatch","../RequiredFiles/videos/JaKopfNein_m.mp4","Ist der Ball in der blauen Box?","Green","Blue","J","affirmation","mismatch","speech","yes","HeadShake","male","gesture-speech","1920","1080","chrome","60.89","Mac OS","26","male","right","Mon Oct 07 2024 10:48:39 GMT+0200 (Central European Summer Time)","3","22","0","1728292078039"
"1376","j","SpeechGestureMatch","../RequiredFiles/videos/JaKopfJa_f.mp4","Ist der Ball in der blauen Box?","Green","Blue","J","affirmation","match","speech","yes","HeadNod","female","gesture-speech","1920","1080","chrome","60.89","Mac OS","26","male","right","Mon Oct 07 2024 10:48:46 GMT+0200 (Central European Summer Time)","3","23","0","1728292078039"
"934","j","SpeechGestureMatch","../RequiredFiles/videos/JaKopfJa_f.mp4","Ist der Ball in der grünen Box?","Green","Blue","F","affirmation","match","speech","yes","HeadNod","female","gesture-speech","1920","1080","chrome","60.89","Mac OS","26","male","right","Mon Oct 07 2024 10:48:53 GMT+0200 (Central European Summer Time)","3","24","1","1728292078039"
"620","f","SpeechGestureMatch","../RequiredFiles/videos/NeinKopfNein_m_no_gesture.mp4","Ist der Ball in der grünen Box?","Blue","Green","F","negation","na","speech","no","na","male","gesture-speech","1920","1080","chrome","60.89","Mac OS","26","male","right","Mon Oct 07 2024 10:48:59 GMT+0200 (Central European Summer Time)","3","25","0","1728292078039"
"805","f","SpeechGestureMatch","../RequiredFiles/videos/NeinKopfJa_m.mp4","Ist der Ball in der grünen Box?","Green","Blue","J","negation","mismatch","speech","no","HeadNod","male","gesture-speech","1920","1080","chrome","60.89","Mac OS","26","male","right","Mon Oct 07 2024 10:49:05 GMT+0200 (Central European Summer Time)","3","26","1","1728292078039"
"677","j","SpeechGestureMatch","../RequiredFiles/videos/NeinKopfJa_f.mp4","Ist der Ball in der grünen Box?","Blue","Green","F","negation","mismatch","speech","no","HeadNod","female","gesture-speech","1920","1080","chrome","60.89","Mac OS","26","male","right","Mon Oct 07 2024 10:49:11 GMT+0200 (Central European Summer Time)","3","27","1","1728292078039"
"843","j","SpeechGestureMatch","../RequiredFiles/videos/JaKopfNein_m_no_gesture.mp4","Ist der Ball in der grünen Box?","Blue","Green","J","affirmation","na","speech","yes","na","male","gesture-speech","1920","1080","chrome","60.89","Mac OS","26","male","right","Mon Oct 07 2024 10:49:18 GMT+0200 (Central European Summer Time)","3","28","0","1728292078039"
"1046","j","SpeechGestureMatch","../RequiredFiles/videos/JaKopfJa_m.mp4","Ist der Ball in der blauen Box?","Green","Blue","J","affirmation","match","speech","yes","HeadNod","male","gesture-speech","1920","1080","chrome","60.89","Mac OS","26","male","right","Mon Oct 07 2024 10:49:24 GMT+0200 (Central European Summer Time)","3","29","0","1728292078039"
"895","f","SpeechGestureMatch","../RequiredFiles/videos/NeinKopfNein_m_no_gesture.mp4","Ist der Ball in der blauen Box?","Blue","Green","J","negation","na","speech","no","na","male","gesture-speech","1920","1080","chrome","60.89","Mac OS","26","male","right","Mon Oct 07 2024 10:49:31 GMT+0200 (Central European Summer Time)","3","30","1","1728292078039"
"1151","f","SpeechGestureMatch","../RequiredFiles/videos/NeinKopfNein_m.mp4","Ist der Ball in der blauen Box?","Green","Blue","F","negation","match","speech","no","HeadShake","male","gesture-speech","1920","1080","chrome","60.89","Mac OS","26","male","right","Mon Oct 07 2024 10:49:37 GMT+0200 (Central European Summer Time)","3","31","0","1728292078039"
"1137","f","SpeechGestureMatch","../RequiredFiles/videos/NeinKopfJa_f.mp4","Ist der Ball in der blauen Box?","Green","Blue","F","negation","mismatch","speech","no","HeadNod","female","gesture-speech","1920","1080","chrome","60.89","Mac OS","26","male","right","Mon Oct 07 2024 10:49:44 GMT+0200 (Central European Summer Time)","3","32","0","1728292078039"
"1556","f","SpeechGestureMatch","../RequiredFiles/videos/JaKopfNein_f_no_gesture.mp4","Ist der Ball in der blauen Box?","Blue","Green","F","affirmation","na","speech","yes","na","female","gesture-speech","1920","1080","chrome","60.89","Mac OS","26","male","right","Mon Oct 07 2024 10:49:51 GMT+0200 (Central European Summer Time)","3","33","0","1728292078039"
"935","f","SpeechGestureMatch","../RequiredFiles/videos/JaKopfJa_m.mp4","Ist der Ball in der grünen Box?","Green","Blue","F","affirmation","match","speech","yes","HeadNod","male","gesture-speech","1920","1080","chrome","60.89","Mac OS","26","male","right","Mon Oct 07 2024 10:49:57 GMT+0200 (Central European Summer Time)","3","34","0","1728292078039"
"1113","j","SpeechGestureMatch","../RequiredFiles/videos/NeinKopfJa_f.mp4","Ist der Ball in der blauen Box?","Blue","Green","J","negation","mismatch","speech","no","HeadNod","female","gesture-speech","1920","1080","chrome","60.89","Mac OS","26","male","right","Mon Oct 07 2024 10:50:04 GMT+0200 (Central European Summer Time)","3","35","0","1728292078039"
"893","j","SpeechGestureMatch","../RequiredFiles/videos/JaKopfJa_f.mp4","Ist der Ball in der grünen Box?","Blue","Green","J","affirmation","match","speech","yes","HeadNod","female","gesture-speech","1920","1080","chrome","60.89","Mac OS","26","male","right","Mon Oct 07 2024 10:50:11 GMT+0200 (Central European Summer Time)","3","36","0","1728292078039"
"928","j","SpeechGestureMatch","../RequiredFiles/videos/JaKopfNein_m.mp4","Ist der Ball in der blauen Box?","Green","Blue","J","affirmation","mismatch","speech","yes","HeadShake","male","gesture-speech","1920","1080","chrome","60.89","Mac OS","26","male","right","Mon Oct 07 2024 10:50:17 GMT+0200 (Central European Summer Time)","3","37","0","1728292078039"
"1248","f","SpeechGestureMatch","../RequiredFiles/videos/JaKopfNein_f.mp4","Ist der Ball in der blauen Box?","Blue","Green","F","affirmation","mismatch","speech","yes","HeadShake","female","gesture-speech","1920","1080","chrome","60.89","Mac OS","26","male","right","Mon Oct 07 2024 10:50:24 GMT+0200 (Central European Summer Time)","3","38","0","1728292078039"
"1212","j","SpeechGestureMatch","../RequiredFiles/videos/NeinKopfJa_m.mp4","Ist der Ball in der blauen Box?","Blue","Green","J","negation","mismatch","speech","no","HeadNod","male","gesture-speech","1920","1080","chrome","60.89","Mac OS","26","male","right","Mon Oct 07 2024 10:50:30 GMT+0200 (Central European Summer Time)","3","39","0","1728292078039"
"1129","f","SpeechGestureMatch","../RequiredFiles/videos/JaKopfNein_m.mp4","Ist der Ball in der blauen Box?","Blue","Green","F","affirmation","mismatch","speech","yes","HeadShake","male","gesture-speech","1920","1080","chrome","60.89","Mac OS","26","male","right","Mon Oct 07 2024 10:50:37 GMT+0200 (Central European Summer Time)","3","40","0","1728292078039"
"859","f","SpeechGestureMatch","../RequiredFiles/videos/JaKopfNein_m.mp4","Ist der Ball in der grünen Box?","Green","Blue","F","affirmation","mismatch","speech","yes","HeadShake","male","gesture-speech","1920","1080","chrome","60.89","Mac OS","26","male","right","Mon Oct 07 2024 10:50:43 GMT+0200 (Central European Summer Time)","3","41","0","1728292078039"
"1279","f","SpeechGestureMatch","../RequiredFiles/videos/NeinKopfJa_m_no_gesture.mp4","Ist der Ball in der grünen Box?","Blue","Green","F","negation","na","speech","no","na","male","gesture-speech","1920","1080","chrome","60.89","Mac OS","26","male","right","Mon Oct 07 2024 10:50:50 GMT+0200 (Central European Summer Time)","3","42","0","1728292078039"
"762","j","SpeechGestureMatch","../RequiredFiles/videos/JaKopfNein_f_no_gesture.mp4","Ist der Ball in der blauen Box?","Green","Blue","J","affirmation","na","speech","yes","na","female","gesture-speech","1920","1080","chrome","60.89","Mac OS","26","male","right","Mon Oct 07 2024 10:50:57 GMT+0200 (Central European Summer Time)","3","43","0","1728292078039"
"961","f","SpeechGestureMatch","../RequiredFiles/videos/JaKopfJa_m.mp4","Ist der Ball in der blauen Box?","Blue","Green","F","affirmation","match","speech","yes","HeadNod","male","gesture-speech","1920","1080","chrome","60.89","Mac OS","26","male","right","Mon Oct 07 2024 10:51:03 GMT+0200 (Central European Summer Time)","3","44","0","1728292078039"
"1007","j","SpeechGestureMatch","../RequiredFiles/videos/NeinKopfNein_f.mp4","Ist der Ball in der blauen Box?","Blue","Green","J","negation","match","speech","no","HeadShake","female","gesture-speech","1920","1080","chrome","60.89","Mac OS","26","male","right","Mon Oct 07 2024 10:51:10 GMT+0200 (Central European Summer Time)","3","45","0","1728292078039"
"845","f","SpeechGestureMatch","../RequiredFiles/videos/JaKopfJa_f_no_gesture.mp4","Ist der Ball in der blauen Box?","Blue","Green","F","affirmation","na","speech","yes","na","female","gesture-speech","1920","1080","chrome","60.89","Mac OS","26","male","right","Mon Oct 07 2024 10:51:16 GMT+0200 (Central European Summer Time)","3","46","0","1728292078039"
"835","f","SpeechGestureMatch","../RequiredFiles/videos/NeinKopfNein_f.mp4","Ist der Ball in der grünen Box?","Green","Blue","J","negation","match","speech","no","HeadShake","female","gesture-speech","1920","1080","chrome","60.89","Mac OS","26","male","right","Mon Oct 07 2024 10:51:22 GMT+0200 (Central European Summer Time)","3","47","1","1728292078039"
"1331","j","SpeechGestureMatch","../RequiredFiles/videos/JaKopfJa_f.mp4","Ist der Ball in der blauen Box?","Green","Blue","J","affirmation","match","speech","yes","HeadNod","female","gesture-speech","1920","1080","chrome","60.89","Mac OS","26","male","right","Mon Oct 07 2024 10:51:29 GMT+0200 (Central European Summer Time)","3","48","0","1728292078039"
"893","f","SpeechGestureMatch","../RequiredFiles/videos/JaKopfJa_m_no_gesture.mp4","Ist der Ball in der grünen Box?","Green","Blue","F","affirmation","na","speech","yes","na","male","gesture-speech","1920","1080","chrome","60.89","Mac OS","26","male","right","Mon Oct 07 2024 10:51:36 GMT+0200 (Central European Summer Time)","3","49","0","1728292078039"
"878","f","SpeechGestureMatch","../RequiredFiles/videos/JaKopfJa_f.mp4","Ist der Ball in der grünen Box?","Green","Blue","F","affirmation","match","speech","yes","HeadNod","female","gesture-speech","1920","1080","chrome","60.89","Mac OS","26","male","right","Mon Oct 07 2024 10:51:42 GMT+0200 (Central European Summer Time)","3","50","0","1728292078039"
"911","f","SpeechGestureMatch","../RequiredFiles/videos/NeinKopfJa_f_no_gesture.mp4","Ist der Ball in der grünen Box?","Blue","Green","F","negation","na","speech","no","na","female","gesture-speech","1920","1080","chrome","60.89","Mac OS","26","male","right","Mon Oct 07 2024 10:51:48 GMT+0200 (Central European Summer Time)","3","51","0","1728292078039"
"1012","f","SpeechGestureMatch","../RequiredFiles/videos/JaKopfJa_f.mp4","Ist der Ball in der blauen Box?","Blue","Green","F","affirmation","match","speech","yes","HeadNod","female","gesture-speech","1920","1080","chrome","60.89","Mac OS","26","male","right","Mon Oct 07 2024 10:51:55 GMT+0200 (Central European Summer Time)","3","52","0","1728292078039"
"1797","j","SpeechGestureMatch","../RequiredFiles/videos/NeinKopfNein_f.mp4","Ist der Ball in der blauen Box?","Blue","Green","J","negation","match","speech","no","HeadShake","female","gesture-speech","1920","1080","chrome","60.89","Mac OS","26","male","right","Mon Oct 07 2024 10:52:02 GMT+0200 (Central European Summer Time)","3","53","0","1728292078039"
"1085","j","SpeechGestureMatch","../RequiredFiles/videos/JaKopfJa_m.mp4","Ist der Ball in der grünen Box?","Blue","Green","J","affirmation","match","speech","yes","HeadNod","male","gesture-speech","1920","1080","chrome","60.89","Mac OS","26","male","right","Mon Oct 07 2024 10:52:09 GMT+0200 (Central European Summer Time)","3","54","0","1728292078039"
"915","f","SpeechGestureMatch","../RequiredFiles/videos/JaKopfJa_f.mp4","Ist der Ball in der blauen Box?","Blue","Green","F","affirmation","match","speech","yes","HeadNod","female","gesture-speech","1920","1080","chrome","60.89","Mac OS","26","male","right","Mon Oct 07 2024 10:52:15 GMT+0200 (Central European Summer Time)","3","55","0","1728292078039"
"935","f","SpeechGestureMatch","../RequiredFiles/videos/JaKopfNein_m_no_gesture.mp4","Ist der Ball in der grünen Box?","Green","Blue","F","affirmation","na","speech","yes","na","male","gesture-speech","1920","1080","chrome","60.89","Mac OS","26","male","right","Mon Oct 07 2024 10:52:22 GMT+0200 (Central European Summer Time)","3","56","0","1728292078039"
"742","j","SpeechGestureMatch","../RequiredFiles/videos/JaKopfJa_f_no_gesture.mp4","Ist der Ball in der grünen Box?","Blue","Green","J","affirmation","na","speech","yes","na","female","gesture-speech","1920","1080","chrome","60.89","Mac OS","26","male","right","Mon Oct 07 2024 10:52:28 GMT+0200 (Central European Summer Time)","3","57","0","1728292078039"
"598","j","SpeechGestureMatch","../RequiredFiles/videos/JaKopfJa_m.mp4","Ist der Ball in der grünen Box?","Blue","Green","J","affirmation","match","speech","yes","HeadNod","male","gesture-speech","1920","1080","chrome","60.89","Mac OS","26","male","right","Mon Oct 07 2024 10:52:34 GMT+0200 (Central European Summer Time)","3","58","0","1728292078039"
"894","j","SpeechGestureMatch","../RequiredFiles/videos/NeinKopfJa_m.mp4","Ist der Ball in der blauen Box?","Blue","Green","J","negation","mismatch","speech","no","HeadNod","male","gesture-speech","1920","1080","chrome","60.89","Mac OS","26","male","right","Mon Oct 07 2024 10:52:41 GMT+0200 (Central European Summer Time)","3","59","0","1728292078039"
"687","j","SpeechGestureMatch","../RequiredFiles/videos/JaKopfJa_m.mp4","Ist der Ball in der grünen Box?","Green","Blue","F","affirmation","match","speech","yes","HeadNod","male","gesture-speech","1920","1080","chrome","60.89","Mac OS","26","male","right","Mon Oct 07 2024 10:52:47 GMT+0200 (Central European Summer Time)","3","60","1","1728292078039"
"1541","f","SpeechGestureMatch","../RequiredFiles/videos/NeinKopfNein_f.mp4","Ist der Ball in der grünen Box?","Blue","Green","F","negation","match","speech","no","HeadShake","female","gesture-speech","1920","1080","chrome","60.89","Mac OS","26","male","right","Mon Oct 07 2024 10:52:54 GMT+0200 (Central European Summer Time)","3","61","0","1728292078039"
"1019","j","SpeechGestureMatch","../RequiredFiles/videos/JaKopfJa_m_no_gesture.mp4","Ist der Ball in der grünen Box?","Blue","Green","J","affirmation","na","speech","yes","na","male","gesture-speech","1920","1080","chrome","60.89","Mac OS","26","male","right","Mon Oct 07 2024 10:53:00 GMT+0200 (Central European Summer Time)","3","62","0","1728292078039"
"918","j","SpeechGestureMatch","../RequiredFiles/videos/NeinKopfNein_m.mp4","Ist der Ball in der grünen Box?","Blue","Green","F","negation","match","speech","no","HeadShake","male","gesture-speech","1920","1080","chrome","60.89","Mac OS","26","male","right","Mon Oct 07 2024 10:53:07 GMT+0200 (Central European Summer Time)","3","63","1","1728292078039"
"1540","f","SpeechGestureMatch","../RequiredFiles/videos/NeinKopfJa_m.mp4","Ist der Ball in der blauen Box?","Green","Blue","F","negation","mismatch","speech","no","HeadNod","male","gesture-speech","1920","1080","chrome","60.89","Mac OS","26","male","right","Mon Oct 07 2024 10:53:14 GMT+0200 (Central European Summer Time)","3","64","0","1728292078039"
"1020","f","SpeechGestureMatch","../RequiredFiles/videos/JaKopfNein_f.mp4","Ist der Ball in der blauen Box?","Green","Blue","J","affirmation","mismatch","speech","yes","HeadShake","female","gesture-speech","1920","1080","chrome","60.89","Mac OS","26","male","right","Mon Oct 07 2024 10:53:20 GMT+0200 (Central European Summer Time)","3","65","1","1728292078039"
"1360","f","SpeechGestureMatch","../RequiredFiles/videos/NeinKopfNein_f_no_gesture.mp4","Ist der Ball in der blauen Box?","Blue","Green","J","negation","na","speech","no","na","female","gesture-speech","1920","1080","chrome","60.89","Mac OS","26","male","right","Mon Oct 07 2024 10:53:27 GMT+0200 (Central European Summer Time)","3","66","1","1728292078039"
"1353","j","SpeechGestureMatch","../RequiredFiles/videos/JaKopfNein_f.mp4","Ist der Ball in der grünen Box?","Blue","Green","J","affirmation","mismatch","speech","yes","HeadShake","female","gesture-speech","1920","1080","chrome","60.89","Mac OS","26","male","right","Mon Oct 07 2024 10:53:34 GMT+0200 (Central European Summer Time)","3","67","0","1728292078039"
"1207","f","SpeechGestureMatch","../RequiredFiles/videos/JaKopfNein_f.mp4","Ist der Ball in der blauen Box?","Blue","Green","F","affirmation","mismatch","speech","yes","HeadShake","female","gesture-speech","1920","1080","chrome","60.89","Mac OS","26","male","right","Mon Oct 07 2024 10:53:41 GMT+0200 (Central European Summer Time)","3","68","0","1728292078039"
"1045","j","SpeechGestureMatch","../RequiredFiles/videos/JaKopfNein_m.mp4","Ist der Ball in der grünen Box?","Blue","Green","J","affirmation","mismatch","speech","yes","HeadShake","male","gesture-speech","1920","1080","chrome","60.89","Mac OS","26","male","right","Mon Oct 07 2024 10:53:47 GMT+0200 (Central European Summer Time)","3","69","0","1728292078039"
"1353","j","SpeechGestureMatch","../RequiredFiles/videos/NeinKopfNein_m.mp4","Ist der Ball in der blauen Box?","Blue","Green","J","negation","match","speech","no","HeadShake","male","gesture-speech","1920","1080","chrome","60.89","Mac OS","26","male","right","Mon Oct 07 2024 10:53:54 GMT+0200 (Central European Summer Time)","3","70","0","1728292078039"
"1560","f","SpeechGestureMatch","../RequiredFiles/videos/NeinKopfNein_m.mp4","Ist der Ball in der grünen Box?","Green","Blue","J","negation","match","speech","no","HeadShake","male","gesture-speech","1920","1080","chrome","60.89","Mac OS","26","male","right","Mon Oct 07 2024 10:54:01 GMT+0200 (Central European Summer Time)","3","71","1","1728292078039"
"1244","f","SpeechGestureMatch","../RequiredFiles/videos/NeinKopfJa_f_no_gesture.mp4","Ist der Ball in der grünen Box?","Green","Blue","J","negation","na","speech","no","na","female","gesture-speech","1920","1080","chrome","60.89","Mac OS","26","male","right","Mon Oct 07 2024 10:54:08 GMT+0200 (Central European Summer Time)","3","72","1","1728292078039"
"1279","j","SpeechGestureMatch","../RequiredFiles/videos/JaKopfNein_m.mp4","Ist der Ball in der grünen Box?","Green","Blue","F","affirmation","mismatch","speech","yes","HeadShake","male","gesture-speech","1920","1080","chrome","60.89","Mac OS","26","male","right","Mon Oct 07 2024 10:54:15 GMT+0200 (Central European Summer Time)","3","73","1","1728292078039"
"1128","f","SpeechGestureMatch","../RequiredFiles/videos/NeinKopfJa_f_no_gesture.mp4","Ist der Ball in der blauen Box?","Green","Blue","F","negation","na","speech","no","na","female","gesture-speech","1920","1080","chrome","60.89","Mac OS","26","male","right","Mon Oct 07 2024 10:54:22 GMT+0200 (Central European Summer Time)","3","74","0","1728292078039"
"1864","j","SpeechGestureMatch","../RequiredFiles/videos/JaKopfNein_m.mp4","Ist der Ball in der grünen Box?","Blue","Green","J","affirmation","mismatch","speech","yes","HeadShake","male","gesture-speech","1920","1080","chrome","60.89","Mac OS","26","male","right","Mon Oct 07 2024 10:54:29 GMT+0200 (Central European Summer Time)","3","75","0","1728292078039"
"2330","f","SpeechGestureMatch","../RequiredFiles/videos/NeinKopfNein_m.mp4","Ist der Ball in der grünen Box?","Blue","Green","F","negation","match","speech","no","HeadShake","male","gesture-speech","1920","1080","chrome","60.89","Mac OS","26","male","right","Mon Oct 07 2024 10:54:37 GMT+0200 (Central European Summer Time)","3","76","0","1728292078039"
"877","f","SpeechGestureMatch","../RequiredFiles/videos/JaKopfNein_f.mp4","Ist der Ball in der grünen Box?","Blue","Green","J","affirmation","mismatch","speech","yes","HeadShake","female","gesture-speech","1920","1080","chrome","60.89","Mac OS","26","male","right","Mon Oct 07 2024 10:54:43 GMT+0200 (Central European Summer Time)","3","77","1","1728292078039"
"2179","j","SpeechGestureMatch","../RequiredFiles/videos/NeinKopfJa_f.mp4","Ist der Ball in der blauen Box?","Blue","Green","J","negation","mismatch","speech","no","HeadNod","female","gesture-speech","1920","1080","chrome","60.89","Mac OS","26","male","right","Mon Oct 07 2024 10:54:51 GMT+0200 (Central European Summer Time)","3","78","0","1728292078039"
"1074","f","SpeechGestureMatch","../RequiredFiles/videos/NeinKopfNein_f_no_gesture.mp4","Ist der Ball in der blauen Box?","Green","Blue","F","negation","na","speech","no","na","female","gesture-speech","1920","1080","chrome","60.89","Mac OS","26","male","right","Mon Oct 07 2024 10:54:57 GMT+0200 (Central European Summer Time)","3","79","0","1728292078039"
"1176","j","SpeechGestureMatch","../RequiredFiles/videos/NeinKopfJa_m.mp4","Ist der Ball in der grünen Box?","Green","Blue","J","negation","mismatch","speech","no","HeadNod","male","gesture-speech","1920","1080","chrome","60.89","Mac OS","26","male","right","Mon Oct 07 2024 10:55:04 GMT+0200 (Central European Summer Time)","3","80","0","1728292078039"
"1695","f","SpeechGestureMatch","../RequiredFiles/videos/NeinKopfNein_f.mp4","Ist der Ball in der blauen Box?","Green","Blue","F","negation","match","speech","no","HeadShake","female","gesture-speech","1920","1080","chrome","60.89","Mac OS","26","male","right","Mon Oct 07 2024 10:55:11 GMT+0200 (Central European Summer Time)","3","81","0","1728292078039"
"1064","j","SpeechGestureMatch","../RequiredFiles/videos/NeinKopfNein_m.mp4","Ist der Ball in der grünen Box?","Green","Blue","J","negation","match","speech","no","HeadShake","male","gesture-speech","1920","1080","chrome","60.89","Mac OS","26","male","right","Mon Oct 07 2024 10:55:18 GMT+0200 (Central European Summer Time)","3","82","0","1728292078039"
"1590","f","SpeechGestureMatch","../RequiredFiles/videos/NeinKopfNein_m.mp4","Ist der Ball in der blauen Box?","Green","Blue","F","negation","match","speech","no","HeadShake","male","gesture-speech","1920","1080","chrome","60.89","Mac OS","26","male","right","Mon Oct 07 2024 10:55:25 GMT+0200 (Central European Summer Time)","3","83","0","1728292078039"
"788","f","SpeechGestureMatch","../RequiredFiles/videos/NeinKopfJa_f.mp4","Ist der Ball in der blauen Box?","Green","Blue","F","negation","mismatch","speech","no","HeadNod","female","gesture-speech","1920","1080","chrome","60.89","Mac OS","26","male","right","Mon Oct 07 2024 10:55:31 GMT+0200 (Central European Summer Time)","3","84","0","1728292078039"
"1233","f","SpeechGestureMatch","../RequiredFiles/videos/NeinKopfJa_m.mp4","Ist der Ball in der grünen Box?","Blue","Green","F","negation","mismatch","speech","no","HeadNod","male","gesture-speech","1920","1080","chrome","60.89","Mac OS","26","male","right","Mon Oct 07 2024 10:55:38 GMT+0200 (Central European Summer Time)","3","85","0","1728292078039"
