"rt","response","stim","video","question","box_colour_left","box_colour_right","correct_key","polarity","matching","modality","verbal","gesture","speaker","order","width","height","browser","vsync_rate","os","age","gender","handedness","date","blockNum","trialNum","error","vpNum"
"839","f","SpeechGestureMatch","../RequiredFiles/videos/JaDaumenrunter_f_no_sound.mp4","Ist der Ball in der grünen Box?","Blue","Green","F","negation","na","gesture","na","ThumbDown","female","gesture-speech","1422","800","edge-chromium","60.87","Windows 10","22","male","right","Sun Sep 29 2024 17:12:20 GMT+0200 (Mitteleuropäische Sommerzeit)","1","1","0","1727625640376"
"530","f","SpeechGestureMatch","../RequiredFiles/videos/JaDaumenrunter_f_no_sound.mp4","Ist der Ball in der blauen Box?","Green","Blue","F","negation","na","gesture","na","ThumbDown","female","gesture-speech","1422","800","edge-chromium","60.87","Windows 10","22","male","right","Sun Sep 29 2024 17:12:26 GMT+0200 (Mitteleuropäische Sommerzeit)","1","2","0","1727625640376"
"571","f","SpeechGestureMatch","../RequiredFiles/videos/NeinDaumenhoch_f.mp4","Ist der Ball in der grünen Box?","Blue","Green","J","affirmation","mismatch","gesture","no","ThumbUp","female","gesture-speech","1422","800","edge-chromium","60.87","Windows 10","22","male","right","Sun Sep 29 2024 17:12:32 GMT+0200 (Mitteleuropäische Sommerzeit)","1","3","1","1727625640376"
"610","j","SpeechGestureMatch","../RequiredFiles/videos/JaDaumenhoch_m.mp4","Ist der Ball in der grünen Box?","Green","Blue","F","affirmation","match","gesture","yes","ThumbUp","male","gesture-speech","1422","800","edge-chromium","60.87","Windows 10","22","male","right","Sun Sep 29 2024 17:12:38 GMT+0200 (Mitteleuropäische Sommerzeit)","1","4","1","1727625640376"
"595","j","SpeechGestureMatch","../RequiredFiles/videos/JaDaumenhoch_m_no_sound.mp4","Ist der Ball in der grünen Box?","Blue","Green","J","affirmation","na","gesture","na","ThumbUp","male","gesture-speech","1422","800","edge-chromium","60.87","Windows 10","22","male","right","Sun Sep 29 2024 17:12:44 GMT+0200 (Mitteleuropäische Sommerzeit)","1","5","0","1727625640376"
"661","f","SpeechGestureMatch","../RequiredFiles/videos/JaDaumenrunter_m_no_sound.mp4","Ist der Ball in der blauen Box?","Green","Blue","F","negation","na","gesture","na","ThumbDown","male","gesture-speech","1422","800","edge-chromium","60.87","Windows 10","22","male","right","Sun Sep 29 2024 17:12:50 GMT+0200 (Mitteleuropäische Sommerzeit)","1","6","0","1727625640376"
"789","f","SpeechGestureMatch","../RequiredFiles/videos/NeinDaumenhoch_m_no_sound.mp4","Ist der Ball in der grünen Box?","Green","Blue","F","affirmation","na","gesture","na","ThumbUp","male","gesture-speech","1422","800","edge-chromium","60.87","Windows 10","22","male","right","Sun Sep 29 2024 17:12:57 GMT+0200 (Mitteleuropäische Sommerzeit)","1","7","0","1727625640376"
"627","j","SpeechGestureMatch","../RequiredFiles/videos/JaDaumenhoch_m_no_sound.mp4","Ist der Ball in der grünen Box?","Green","Blue","F","affirmation","na","gesture","na","ThumbUp","male","gesture-speech","1422","800","edge-chromium","60.87","Windows 10","22","male","right","Sun Sep 29 2024 17:13:03 GMT+0200 (Mitteleuropäische Sommerzeit)","1","8","1","1727625640376"
"827","j","SpeechGestureMatch","../RequiredFiles/videos/JaDaumenrunter_f.mp4","Ist der Ball in der blauen Box?","Blue","Green","J","negation","mismatch","gesture","yes","ThumbDown","female","gesture-speech","1422","800","edge-chromium","60.87","Windows 10","22","male","right","Sun Sep 29 2024 17:13:09 GMT+0200 (Mitteleuropäische Sommerzeit)","1","9","0","1727625640376"
"707","f","SpeechGestureMatch","../RequiredFiles/videos/NeinDaumenrunter_m.mp4","Ist der Ball in der blauen Box?","Green","Blue","F","negation","match","gesture","no","ThumbDown","male","gesture-speech","1422","800","edge-chromium","60.87","Windows 10","22","male","right","Sun Sep 29 2024 17:13:16 GMT+0200 (Mitteleuropäische Sommerzeit)","1","10","0","1727625640376"
"676","j","SpeechGestureMatch","../RequiredFiles/videos/NeinDaumenrunter_m.mp4","Ist der Ball in der grünen Box?","Blue","Green","F","negation","match","gesture","no","ThumbDown","male","gesture-speech","1422","800","edge-chromium","60.87","Windows 10","22","male","right","Sun Sep 29 2024 17:13:22 GMT+0200 (Mitteleuropäische Sommerzeit)","1","11","1","1727625640376"
"750","f","SpeechGestureMatch","../RequiredFiles/videos/JaDaumenrunter_f.mp4","Ist der Ball in der blauen Box?","Green","Blue","F","negation","mismatch","gesture","yes","ThumbDown","female","gesture-speech","1422","800","edge-chromium","60.87","Windows 10","22","male","right","Sun Sep 29 2024 17:13:28 GMT+0200 (Mitteleuropäische Sommerzeit)","1","12","0","1727625640376"
"639","f","SpeechGestureMatch","../RequiredFiles/videos/NeinDaumenhoch_m.mp4","Ist der Ball in der blauen Box?","Green","Blue","J","affirmation","mismatch","gesture","no","ThumbUp","male","gesture-speech","1422","800","edge-chromium","60.87","Windows 10","22","male","right","Sun Sep 29 2024 17:13:34 GMT+0200 (Mitteleuropäische Sommerzeit)","1","13","1","1727625640376"
"592","f","SpeechGestureMatch","../RequiredFiles/videos/NeinDaumenhoch_f.mp4","Ist der Ball in der grünen Box?","Green","Blue","F","affirmation","mismatch","gesture","no","ThumbUp","female","gesture-speech","1422","800","edge-chromium","60.87","Windows 10","22","male","right","Sun Sep 29 2024 17:13:40 GMT+0200 (Mitteleuropäische Sommerzeit)","1","14","0","1727625640376"
"570","f","SpeechGestureMatch","../RequiredFiles/videos/NeinDaumenhoch_m.mp4","Ist der Ball in der grünen Box?","Blue","Green","J","affirmation","mismatch","gesture","no","ThumbUp","male","gesture-speech","1422","800","edge-chromium","60.87","Windows 10","22","male","right","Sun Sep 29 2024 17:13:46 GMT+0200 (Mitteleuropäische Sommerzeit)","1","15","1","1727625640376"
"908","j","SpeechGestureMatch","../RequiredFiles/videos/JaDaumenrunter_m.mp4","Ist der Ball in der blauen Box?","Blue","Green","J","negation","mismatch","gesture","yes","ThumbDown","male","gesture-speech","1422","800","edge-chromium","60.87","Windows 10","22","male","right","Sun Sep 29 2024 17:13:53 GMT+0200 (Mitteleuropäische Sommerzeit)","1","16","0","1727625640376"
"610","f","SpeechGestureMatch","../RequiredFiles/videos/JaDaumenhoch_f.mp4","Ist der Ball in der grünen Box?","Green","Blue","F","affirmation","match","gesture","yes","ThumbUp","female","gesture-speech","1422","800","edge-chromium","60.87","Windows 10","22","male","right","Sun Sep 29 2024 17:13:59 GMT+0200 (Mitteleuropäische Sommerzeit)","1","17","0","1727625640376"
"725","f","SpeechGestureMatch","../RequiredFiles/videos/NeinDaumenrunter_f_no_sound.mp4","Ist der Ball in der grünen Box?","Blue","Green","F","negation","na","gesture","na","ThumbDown","female","gesture-speech","1422","800","edge-chromium","60.87","Windows 10","22","male","right","Sun Sep 29 2024 17:14:05 GMT+0200 (Mitteleuropäische Sommerzeit)","1","18","0","1727625640376"
"543","j","SpeechGestureMatch","../RequiredFiles/videos/JaDaumenhoch_m_no_sound.mp4","Ist der Ball in der blauen Box?","Green","Blue","J","affirmation","na","gesture","na","ThumbUp","male","gesture-speech","1422","800","edge-chromium","60.87","Windows 10","22","male","right","Sun Sep 29 2024 17:14:11 GMT+0200 (Mitteleuropäische Sommerzeit)","1","19","0","1727625640376"
"733","j","SpeechGestureMatch","../RequiredFiles/videos/NeinDaumenrunter_f.mp4","Ist der Ball in der blauen Box?","Blue","Green","J","negation","match","gesture","no","ThumbDown","female","gesture-speech","1422","800","edge-chromium","60.87","Windows 10","22","male","right","Sun Sep 29 2024 17:14:18 GMT+0200 (Mitteleuropäische Sommerzeit)","1","20","0","1727625640376"
"635","j","SpeechGestureMatch","../RequiredFiles/videos/NeinDaumenrunter_f.mp4","Ist der Ball in der grünen Box?","Green","Blue","J","negation","match","gesture","no","ThumbDown","female","gesture-speech","1422","800","edge-chromium","60.87","Windows 10","22","male","right","Sun Sep 29 2024 17:14:24 GMT+0200 (Mitteleuropäische Sommerzeit)","1","21","0","1727625640376"
"604","f","SpeechGestureMatch","../RequiredFiles/videos/NeinDaumenrunter_f.mp4","Ist der Ball in der grünen Box?","Blue","Green","F","negation","match","gesture","no","ThumbDown","female","gesture-speech","1422","800","edge-chromium","60.87","Windows 10","22","male","right","Sun Sep 29 2024 17:14:30 GMT+0200 (Mitteleuropäische Sommerzeit)","1","22","0","1727625640376"
"627","f","SpeechGestureMatch","../RequiredFiles/videos/NeinDaumenrunter_f.mp4","Ist der Ball in der grünen Box?","Blue","Green","F","negation","match","gesture","no","ThumbDown","female","gesture-speech","1422","800","edge-chromium","60.87","Windows 10","22","male","right","Sun Sep 29 2024 17:14:36 GMT+0200 (Mitteleuropäische Sommerzeit)","1","23","0","1727625640376"
"572","f","SpeechGestureMatch","../RequiredFiles/videos/JaDaumenhoch_m_no_sound.mp4","Ist der Ball in der blauen Box?","Blue","Green","F","affirmation","na","gesture","na","ThumbUp","male","gesture-speech","1422","800","edge-chromium","60.87","Windows 10","22","male","right","Sun Sep 29 2024 17:14:42 GMT+0200 (Mitteleuropäische Sommerzeit)","1","24","0","1727625640376"
"693","f","SpeechGestureMatch","../RequiredFiles/videos/NeinDaumenhoch_f.mp4","Ist der Ball in der blauen Box?","Green","Blue","J","affirmation","mismatch","gesture","no","ThumbUp","female","gesture-speech","1422","800","edge-chromium","60.87","Windows 10","22","male","right","Sun Sep 29 2024 17:14:49 GMT+0200 (Mitteleuropäische Sommerzeit)","1","25","1","1727625640376"
"611","f","SpeechGestureMatch","../RequiredFiles/videos/JaDaumenhoch_m.mp4","Ist der Ball in der grünen Box?","Green","Blue","F","affirmation","match","gesture","yes","ThumbUp","male","gesture-speech","1422","800","edge-chromium","60.87","Windows 10","22","male","right","Sun Sep 29 2024 17:14:55 GMT+0200 (Mitteleuropäische Sommerzeit)","1","26","0","1727625640376"
"769","j","SpeechGestureMatch","../RequiredFiles/videos/JaDaumenrunter_m.mp4","Ist der Ball in der grünen Box?","Blue","Green","F","negation","mismatch","gesture","yes","ThumbDown","male","gesture-speech","1422","800","edge-chromium","60.87","Windows 10","22","male","right","Sun Sep 29 2024 17:15:01 GMT+0200 (Mitteleuropäische Sommerzeit)","1","27","1","1727625640376"
"701","f","SpeechGestureMatch","../RequiredFiles/videos/NeinDaumenrunter_m_no_sound.mp4","Ist der Ball in der grünen Box?","Blue","Green","F","negation","na","gesture","na","ThumbDown","male","gesture-speech","1422","800","edge-chromium","60.87","Windows 10","22","male","right","Sun Sep 29 2024 17:15:07 GMT+0200 (Mitteleuropäische Sommerzeit)","1","28","0","1727625640376"
"730","j","SpeechGestureMatch","../RequiredFiles/videos/JaDaumenhoch_f.mp4","Ist der Ball in der blauen Box?","Green","Blue","J","affirmation","match","gesture","yes","ThumbUp","female","gesture-speech","1422","800","edge-chromium","60.87","Windows 10","22","male","right","Sun Sep 29 2024 17:15:14 GMT+0200 (Mitteleuropäische Sommerzeit)","1","29","0","1727625640376"
"733","f","SpeechGestureMatch","../RequiredFiles/videos/JaDaumenrunter_m.mp4","Ist der Ball in der blauen Box?","Green","Blue","F","negation","mismatch","gesture","yes","ThumbDown","male","gesture-speech","1422","800","edge-chromium","60.87","Windows 10","22","male","right","Sun Sep 29 2024 17:15:20 GMT+0200 (Mitteleuropäische Sommerzeit)","1","30","0","1727625640376"
"647","j","SpeechGestureMatch","../RequiredFiles/videos/NeinDaumenrunter_f_no_sound.mp4","Ist der Ball in der grünen Box?","Green","Blue","J","negation","na","gesture","na","ThumbDown","female","gesture-speech","1422","800","edge-chromium","60.87","Windows 10","22","male","right","Sun Sep 29 2024 17:15:26 GMT+0200 (Mitteleuropäische Sommerzeit)","1","31","0","1727625640376"
"629","j","SpeechGestureMatch","../RequiredFiles/videos/NeinDaumenhoch_f.mp4","Ist der Ball in der grünen Box?","Green","Blue","F","affirmation","mismatch","gesture","no","ThumbUp","female","gesture-speech","1422","800","edge-chromium","60.87","Windows 10","22","male","right","Sun Sep 29 2024 17:15:32 GMT+0200 (Mitteleuropäische Sommerzeit)","1","32","1","1727625640376"
"614","j","SpeechGestureMatch","../RequiredFiles/videos/NeinDaumenrunter_m.mp4","Ist der Ball in der blauen Box?","Blue","Green","J","negation","match","gesture","no","ThumbDown","male","gesture-speech","1422","800","edge-chromium","60.87","Windows 10","22","male","right","Sun Sep 29 2024 17:15:38 GMT+0200 (Mitteleuropäische Sommerzeit)","1","33","0","1727625640376"
"659","f","SpeechGestureMatch","../RequiredFiles/videos/JaDaumenrunter_m_no_sound.mp4","Ist der Ball in der grünen Box?","Blue","Green","F","negation","na","gesture","na","ThumbDown","male","gesture-speech","1422","800","edge-chromium","60.87","Windows 10","22","male","right","Sun Sep 29 2024 17:15:45 GMT+0200 (Mitteleuropäische Sommerzeit)","1","34","0","1727625640376"
"629","f","SpeechGestureMatch","../RequiredFiles/videos/JaDaumenrunter_f.mp4","Ist der Ball in der grünen Box?","Blue","Green","F","negation","mismatch","gesture","yes","ThumbDown","female","gesture-speech","1422","800","edge-chromium","60.87","Windows 10","22","male","right","Sun Sep 29 2024 17:15:51 GMT+0200 (Mitteleuropäische Sommerzeit)","1","35","0","1727625640376"
"644","f","SpeechGestureMatch","../RequiredFiles/videos/NeinDaumenrunter_f.mp4","Ist der Ball in der blauen Box?","Green","Blue","F","negation","match","gesture","no","ThumbDown","female","gesture-speech","1422","800","edge-chromium","60.87","Windows 10","22","male","right","Sun Sep 29 2024 17:15:57 GMT+0200 (Mitteleuropäische Sommerzeit)","1","36","0","1727625640376"
"640","j","SpeechGestureMatch","../RequiredFiles/videos/NeinDaumenrunter_m.mp4","Ist der Ball in der grünen Box?","Green","Blue","J","negation","match","gesture","no","ThumbDown","male","gesture-speech","1422","800","edge-chromium","60.87","Windows 10","22","male","right","Sun Sep 29 2024 17:16:03 GMT+0200 (Mitteleuropäische Sommerzeit)","1","37","0","1727625640376"
"670","f","SpeechGestureMatch","../RequiredFiles/videos/JaDaumenrunter_m.mp4","Ist der Ball in der grünen Box?","Blue","Green","F","negation","mismatch","gesture","yes","ThumbDown","male","gesture-speech","1422","800","edge-chromium","60.87","Windows 10","22","male","right","Sun Sep 29 2024 17:16:09 GMT+0200 (Mitteleuropäische Sommerzeit)","1","38","0","1727625640376"
"661","f","SpeechGestureMatch","../RequiredFiles/videos/JaDaumenhoch_f_no_sound.mp4","Ist der Ball in der grünen Box?","Green","Blue","F","affirmation","na","gesture","na","ThumbUp","female","gesture-speech","1422","800","edge-chromium","60.87","Windows 10","22","male","right","Sun Sep 29 2024 17:16:16 GMT+0200 (Mitteleuropäische Sommerzeit)","1","39","0","1727625640376"
"670","j","SpeechGestureMatch","../RequiredFiles/videos/NeinDaumenrunter_f.mp4","Ist der Ball in der blauen Box?","Blue","Green","J","negation","match","gesture","no","ThumbDown","female","gesture-speech","1422","800","edge-chromium","60.87","Windows 10","22","male","right","Sun Sep 29 2024 17:16:22 GMT+0200 (Mitteleuropäische Sommerzeit)","1","40","0","1727625640376"
"578","f","SpeechGestureMatch","../RequiredFiles/videos/JaDaumenhoch_f_no_sound.mp4","Ist der Ball in der blauen Box?","Green","Blue","J","affirmation","na","gesture","na","ThumbUp","female","gesture-speech","1422","800","edge-chromium","60.87","Windows 10","22","male","right","Sun Sep 29 2024 17:16:28 GMT+0200 (Mitteleuropäische Sommerzeit)","1","41","1","1727625640376"
"755","j","SpeechGestureMatch","../RequiredFiles/videos/JaDaumenhoch_m.mp4","Ist der Ball in der blauen Box?","Green","Blue","J","affirmation","match","gesture","yes","ThumbUp","male","gesture-speech","1422","800","edge-chromium","60.87","Windows 10","22","male","right","Sun Sep 29 2024 17:16:34 GMT+0200 (Mitteleuropäische Sommerzeit)","1","42","0","1727625640376"
"745","j","SpeechGestureMatch","../RequiredFiles/videos/NeinDaumenrunter_m_no_sound.mp4","Ist der Ball in der grünen Box?","Green","Blue","J","negation","na","gesture","na","ThumbDown","male","gesture-speech","1422","800","edge-chromium","60.87","Windows 10","22","male","right","Sun Sep 29 2024 17:16:41 GMT+0200 (Mitteleuropäische Sommerzeit)","1","43","0","1727625640376"
"716","j","SpeechGestureMatch","../RequiredFiles/videos/JaDaumenrunter_f_no_sound.mp4","Ist der Ball in der blauen Box?","Blue","Green","J","negation","na","gesture","na","ThumbDown","female","gesture-speech","1422","800","edge-chromium","60.87","Windows 10","22","male","right","Sun Sep 29 2024 17:16:47 GMT+0200 (Mitteleuropäische Sommerzeit)","1","44","0","1727625640376"
"653","j","SpeechGestureMatch","../RequiredFiles/videos/NeinDaumenhoch_m.mp4","Ist der Ball in der blauen Box?","Blue","Green","F","affirmation","mismatch","gesture","no","ThumbUp","male","gesture-speech","1422","800","edge-chromium","60.87","Windows 10","22","male","right","Sun Sep 29 2024 17:16:53 GMT+0200 (Mitteleuropäische Sommerzeit)","1","45","1","1727625640376"
"565","j","SpeechGestureMatch","../RequiredFiles/videos/JaDaumenhoch_m.mp4","Ist der Ball in der grünen Box?","Blue","Green","J","affirmation","match","gesture","yes","ThumbUp","male","gesture-speech","1422","800","edge-chromium","60.87","Windows 10","22","male","right","Sun Sep 29 2024 17:16:59 GMT+0200 (Mitteleuropäische Sommerzeit)","1","46","0","1727625640376"
"597","f","SpeechGestureMatch","../RequiredFiles/videos/NeinDaumenrunter_m.mp4","Ist der Ball in der grünen Box?","Blue","Green","F","negation","match","gesture","no","ThumbDown","male","gesture-speech","1422","800","edge-chromium","60.87","Windows 10","22","male","right","Sun Sep 29 2024 17:17:05 GMT+0200 (Mitteleuropäische Sommerzeit)","1","47","0","1727625640376"
"628","j","SpeechGestureMatch","../RequiredFiles/videos/JaDaumenhoch_m.mp4","Ist der Ball in der grünen Box?","Blue","Green","J","affirmation","match","gesture","yes","ThumbUp","male","gesture-speech","1422","800","edge-chromium","60.87","Windows 10","22","male","right","Sun Sep 29 2024 17:17:12 GMT+0200 (Mitteleuropäische Sommerzeit)","1","48","0","1727625640376"
"649","j","SpeechGestureMatch","../RequiredFiles/videos/NeinDaumenrunter_f.mp4","Ist der Ball in der grünen Box?","Green","Blue","J","negation","match","gesture","no","ThumbDown","female","gesture-speech","1422","800","edge-chromium","60.87","Windows 10","22","male","right","Sun Sep 29 2024 17:17:18 GMT+0200 (Mitteleuropäische Sommerzeit)","1","49","0","1727625640376"
"609","j","SpeechGestureMatch","../RequiredFiles/videos/NeinDaumenhoch_m.mp4","Ist der Ball in der grünen Box?","Green","Blue","F","affirmation","mismatch","gesture","no","ThumbUp","male","gesture-speech","1422","800","edge-chromium","60.87","Windows 10","22","male","right","Sun Sep 29 2024 17:17:24 GMT+0200 (Mitteleuropäische Sommerzeit)","1","50","1","1727625640376"
"612","j","SpeechGestureMatch","../RequiredFiles/videos/JaDaumenhoch_m.mp4","Ist der Ball in der blauen Box?","Green","Blue","J","affirmation","match","gesture","yes","ThumbUp","male","gesture-speech","1422","800","edge-chromium","60.87","Windows 10","22","male","right","Sun Sep 29 2024 17:17:30 GMT+0200 (Mitteleuropäische Sommerzeit)","1","51","0","1727625640376"
"691","f","SpeechGestureMatch","../RequiredFiles/videos/JaDaumenhoch_f_no_sound.mp4","Ist der Ball in der blauen Box?","Blue","Green","F","affirmation","na","gesture","na","ThumbUp","female","gesture-speech","1422","800","edge-chromium","60.87","Windows 10","22","male","right","Sun Sep 29 2024 17:17:36 GMT+0200 (Mitteleuropäische Sommerzeit)","1","52","0","1727625640376"
"654","j","SpeechGestureMatch","../RequiredFiles/videos/JaDaumenrunter_f.mp4","Ist der Ball in der grünen Box?","Green","Blue","J","negation","mismatch","gesture","yes","ThumbDown","female","gesture-speech","1422","800","edge-chromium","60.87","Windows 10","22","male","right","Sun Sep 29 2024 17:17:43 GMT+0200 (Mitteleuropäische Sommerzeit)","1","53","0","1727625640376"
"703","f","SpeechGestureMatch","../RequiredFiles/videos/NeinDaumenhoch_m_no_sound.mp4","Ist der Ball in der blauen Box?","Blue","Green","F","affirmation","na","gesture","na","ThumbUp","male","gesture-speech","1422","800","edge-chromium","60.87","Windows 10","22","male","right","Sun Sep 29 2024 17:17:49 GMT+0200 (Mitteleuropäische Sommerzeit)","1","54","0","1727625640376"
"605","j","SpeechGestureMatch","../RequiredFiles/videos/NeinDaumenrunter_f_no_sound.mp4","Ist der Ball in der blauen Box?","Blue","Green","J","negation","na","gesture","na","ThumbDown","female","gesture-speech","1422","800","edge-chromium","60.87","Windows 10","22","male","right","Sun Sep 29 2024 17:17:55 GMT+0200 (Mitteleuropäische Sommerzeit)","1","55","0","1727625640376"
"651","j","SpeechGestureMatch","../RequiredFiles/videos/JaDaumenhoch_f.mp4","Ist der Ball in der blauen Box?","Green","Blue","J","affirmation","match","gesture","yes","ThumbUp","female","gesture-speech","1422","800","edge-chromium","60.87","Windows 10","22","male","right","Sun Sep 29 2024 17:18:01 GMT+0200 (Mitteleuropäische Sommerzeit)","1","56","0","1727625640376"
"642","f","SpeechGestureMatch","../RequiredFiles/videos/JaDaumenhoch_f.mp4","Ist der Ball in der blauen Box?","Blue","Green","F","affirmation","match","gesture","yes","ThumbUp","female","gesture-speech","1422","800","edge-chromium","60.87","Windows 10","22","male","right","Sun Sep 29 2024 17:18:07 GMT+0200 (Mitteleuropäische Sommerzeit)","1","57","0","1727625640376"
"572","f","SpeechGestureMatch","../RequiredFiles/videos/NeinDaumenhoch_m.mp4","Ist der Ball in der grünen Box?","Green","Blue","F","affirmation","mismatch","gesture","no","ThumbUp","male","gesture-speech","1422","800","edge-chromium","60.87","Windows 10","22","male","right","Sun Sep 29 2024 17:18:13 GMT+0200 (Mitteleuropäische Sommerzeit)","1","58","0","1727625640376"
"582","j","SpeechGestureMatch","../RequiredFiles/videos/JaDaumenhoch_f.mp4","Ist der Ball in der grünen Box?","Blue","Green","J","affirmation","match","gesture","yes","ThumbUp","female","gesture-speech","1422","800","edge-chromium","60.87","Windows 10","22","male","right","Sun Sep 29 2024 17:18:20 GMT+0200 (Mitteleuropäische Sommerzeit)","1","59","0","1727625640376"
"605","j","SpeechGestureMatch","../RequiredFiles/videos/NeinDaumenrunter_m_no_sound.mp4","Ist der Ball in der blauen Box?","Blue","Green","J","negation","na","gesture","na","ThumbDown","male","gesture-speech","1422","800","edge-chromium","60.87","Windows 10","22","male","right","Sun Sep 29 2024 17:18:26 GMT+0200 (Mitteleuropäische Sommerzeit)","1","60","0","1727625640376"
"535","j","SpeechGestureMatch","../RequiredFiles/videos/NeinDaumenhoch_m_no_sound.mp4","Ist der Ball in der blauen Box?","Green","Blue","J","affirmation","na","gesture","na","ThumbUp","male","gesture-speech","1422","800","edge-chromium","60.87","Windows 10","22","male","right","Sun Sep 29 2024 17:18:32 GMT+0200 (Mitteleuropäische Sommerzeit)","1","61","0","1727625640376"
"853","f","SpeechGestureMatch","../RequiredFiles/videos/NeinDaumenrunter_f.mp4","Ist der Ball in der blauen Box?","Green","Blue","F","negation","match","gesture","no","ThumbDown","female","gesture-speech","1422","800","edge-chromium","60.87","Windows 10","22","male","right","Sun Sep 29 2024 17:18:38 GMT+0200 (Mitteleuropäische Sommerzeit)","1","62","0","1727625640376"
"678","j","SpeechGestureMatch","../RequiredFiles/videos/NeinDaumenrunter_m.mp4","Ist der Ball in der grünen Box?","Green","Blue","J","negation","match","gesture","no","ThumbDown","male","gesture-speech","1422","800","edge-chromium","60.87","Windows 10","22","male","right","Sun Sep 29 2024 17:18:44 GMT+0200 (Mitteleuropäische Sommerzeit)","1","63","0","1727625640376"
"807","f","SpeechGestureMatch","../RequiredFiles/videos/JaDaumenhoch_m.mp4","Ist der Ball in der blauen Box?","Blue","Green","F","affirmation","match","gesture","yes","ThumbUp","male","gesture-speech","1422","800","edge-chromium","60.87","Windows 10","22","male","right","Sun Sep 29 2024 17:18:51 GMT+0200 (Mitteleuropäische Sommerzeit)","1","64","0","1727625640376"
"748","f","SpeechGestureMatch","../RequiredFiles/videos/JaDaumenrunter_m.mp4","Ist der Ball in der blauen Box?","Green","Blue","F","negation","mismatch","gesture","yes","ThumbDown","male","gesture-speech","1422","800","edge-chromium","60.87","Windows 10","22","male","right","Sun Sep 29 2024 17:18:57 GMT+0200 (Mitteleuropäische Sommerzeit)","1","65","0","1727625640376"
"702","f","SpeechGestureMatch","../RequiredFiles/videos/JaDaumenrunter_f.mp4","Ist der Ball in der grünen Box?","Blue","Green","F","negation","mismatch","gesture","yes","ThumbDown","female","gesture-speech","1422","800","edge-chromium","60.87","Windows 10","22","male","right","Sun Sep 29 2024 17:19:03 GMT+0200 (Mitteleuropäische Sommerzeit)","1","66","0","1727625640376"
"656","f","SpeechGestureMatch","../RequiredFiles/videos/JaDaumenhoch_f.mp4","Ist der Ball in der blauen Box?","Blue","Green","F","affirmation","match","gesture","yes","ThumbUp","female","gesture-speech","1422","800","edge-chromium","60.87","Windows 10","22","male","right","Sun Sep 29 2024 17:19:10 GMT+0200 (Mitteleuropäische Sommerzeit)","1","67","0","1727625640376"
"631","j","SpeechGestureMatch","../RequiredFiles/videos/JaDaumenhoch_f_no_sound.mp4","Ist der Ball in der grünen Box?","Blue","Green","J","affirmation","na","gesture","na","ThumbUp","female","gesture-speech","1422","800","edge-chromium","60.87","Windows 10","22","male","right","Sun Sep 29 2024 17:19:16 GMT+0200 (Mitteleuropäische Sommerzeit)","1","68","0","1727625640376"
"641","j","SpeechGestureMatch","../RequiredFiles/videos/JaDaumenrunter_m_no_sound.mp4","Ist der Ball in der blauen Box?","Blue","Green","J","negation","na","gesture","na","ThumbDown","male","gesture-speech","1422","800","edge-chromium","60.87","Windows 10","22","male","right","Sun Sep 29 2024 17:19:22 GMT+0200 (Mitteleuropäische Sommerzeit)","1","69","0","1727625640376"
"657","j","SpeechGestureMatch","../RequiredFiles/videos/JaDaumenrunter_f.mp4","Ist der Ball in der grünen Box?","Green","Blue","J","negation","mismatch","gesture","yes","ThumbDown","female","gesture-speech","1422","800","edge-chromium","60.87","Windows 10","22","male","right","Sun Sep 29 2024 17:19:28 GMT+0200 (Mitteleuropäische Sommerzeit)","1","70","0","1727625640376"
"692","f","SpeechGestureMatch","../RequiredFiles/videos/JaDaumenhoch_m.mp4","Ist der Ball in der blauen Box?","Blue","Green","F","affirmation","match","gesture","yes","ThumbUp","male","gesture-speech","1422","800","edge-chromium","60.87","Windows 10","22","male","right","Sun Sep 29 2024 17:19:34 GMT+0200 (Mitteleuropäische Sommerzeit)","1","71","0","1727625640376"
"601","j","SpeechGestureMatch","../RequiredFiles/videos/NeinDaumenhoch_m_no_sound.mp4","Ist der Ball in der grünen Box?","Blue","Green","J","affirmation","na","gesture","na","ThumbUp","male","gesture-speech","1422","800","edge-chromium","60.87","Windows 10","22","male","right","Sun Sep 29 2024 17:19:41 GMT+0200 (Mitteleuropäische Sommerzeit)","1","72","0","1727625640376"
"670","j","SpeechGestureMatch","../RequiredFiles/videos/NeinDaumenhoch_f_no_sound.mp4","Ist der Ball in der grünen Box?","Blue","Green","J","affirmation","na","gesture","na","ThumbUp","female","gesture-speech","1422","800","edge-chromium","60.87","Windows 10","22","male","right","Sun Sep 29 2024 17:19:47 GMT+0200 (Mitteleuropäische Sommerzeit)","1","73","0","1727625640376"
"602","j","SpeechGestureMatch","../RequiredFiles/videos/JaDaumenrunter_f_no_sound.mp4","Ist der Ball in der grünen Box?","Green","Blue","J","negation","na","gesture","na","ThumbDown","female","gesture-speech","1422","800","edge-chromium","60.87","Windows 10","22","male","right","Sun Sep 29 2024 17:19:53 GMT+0200 (Mitteleuropäische Sommerzeit)","1","74","0","1727625640376"
"595","j","SpeechGestureMatch","../RequiredFiles/videos/JaDaumenrunter_m_no_sound.mp4","Ist der Ball in der grünen Box?","Green","Blue","J","negation","na","gesture","na","ThumbDown","male","gesture-speech","1422","800","edge-chromium","60.87","Windows 10","22","male","right","Sun Sep 29 2024 17:19:59 GMT+0200 (Mitteleuropäische Sommerzeit)","1","75","0","1727625640376"
"991","j","SpeechGestureMatch","../RequiredFiles/videos/JaDaumenrunter_m.mp4","Ist der Ball in der grünen Box?","Green","Blue","J","negation","mismatch","gesture","yes","ThumbDown","male","gesture-speech","1422","800","edge-chromium","60.87","Windows 10","22","male","right","Sun Sep 29 2024 17:20:06 GMT+0200 (Mitteleuropäische Sommerzeit)","1","76","0","1727625640376"
"659","f","SpeechGestureMatch","../RequiredFiles/videos/NeinDaumenhoch_f.mp4","Ist der Ball in der blauen Box?","Green","Blue","J","affirmation","mismatch","gesture","no","ThumbUp","female","gesture-speech","1422","800","edge-chromium","60.87","Windows 10","22","male","right","Sun Sep 29 2024 17:20:12 GMT+0200 (Mitteleuropäische Sommerzeit)","1","77","1","1727625640376"
"606","j","SpeechGestureMatch","../RequiredFiles/videos/NeinDaumenhoch_m.mp4","Ist der Ball in der blauen Box?","Green","Blue","J","affirmation","mismatch","gesture","no","ThumbUp","male","gesture-speech","1422","800","edge-chromium","60.87","Windows 10","22","male","right","Sun Sep 29 2024 17:20:18 GMT+0200 (Mitteleuropäische Sommerzeit)","1","78","0","1727625640376"
"641","f","SpeechGestureMatch","../RequiredFiles/videos/NeinDaumenhoch_f_no_sound.mp4","Ist der Ball in der grünen Box?","Green","Blue","F","affirmation","na","gesture","na","ThumbUp","female","gesture-speech","1422","800","edge-chromium","60.87","Windows 10","22","male","right","Sun Sep 29 2024 17:20:24 GMT+0200 (Mitteleuropäische Sommerzeit)","1","79","0","1727625640376"
"931","f","SpeechGestureMatch","../RequiredFiles/videos/NeinDaumenrunter_m.mp4","Ist der Ball in der blauen Box?","Green","Blue","F","negation","match","gesture","no","ThumbDown","male","gesture-speech","1422","800","edge-chromium","60.87","Windows 10","22","male","right","Sun Sep 29 2024 17:20:31 GMT+0200 (Mitteleuropäische Sommerzeit)","1","80","0","1727625640376"
"566","j","SpeechGestureMatch","../RequiredFiles/videos/NeinDaumenhoch_m.mp4","Ist der Ball in der grünen Box?","Blue","Green","J","affirmation","mismatch","gesture","no","ThumbUp","male","gesture-speech","1422","800","edge-chromium","60.87","Windows 10","22","male","right","Sun Sep 29 2024 17:20:37 GMT+0200 (Mitteleuropäische Sommerzeit)","1","81","0","1727625640376"
"706","f","SpeechGestureMatch","../RequiredFiles/videos/NeinDaumenhoch_f.mp4","Ist der Ball in der blauen Box?","Blue","Green","F","affirmation","mismatch","gesture","no","ThumbUp","female","gesture-speech","1422","800","edge-chromium","60.87","Windows 10","22","male","right","Sun Sep 29 2024 17:20:43 GMT+0200 (Mitteleuropäische Sommerzeit)","1","82","0","1727625640376"
"577","f","SpeechGestureMatch","../RequiredFiles/videos/JaDaumenhoch_f.mp4","Ist der Ball in der grünen Box?","Green","Blue","F","affirmation","match","gesture","yes","ThumbUp","female","gesture-speech","1422","800","edge-chromium","60.87","Windows 10","22","male","right","Sun Sep 29 2024 17:20:49 GMT+0200 (Mitteleuropäische Sommerzeit)","1","83","0","1727625640376"
"654","f","SpeechGestureMatch","../RequiredFiles/videos/JaDaumenrunter_f.mp4","Ist der Ball in der blauen Box?","Green","Blue","F","negation","mismatch","gesture","yes","ThumbDown","female","gesture-speech","1422","800","edge-chromium","60.87","Windows 10","22","male","right","Sun Sep 29 2024 17:20:55 GMT+0200 (Mitteleuropäische Sommerzeit)","1","84","0","1727625640376"
"674","j","SpeechGestureMatch","../RequiredFiles/videos/JaDaumenhoch_f.mp4","Ist der Ball in der grünen Box?","Blue","Green","J","affirmation","match","gesture","yes","ThumbUp","female","gesture-speech","1422","800","edge-chromium","60.87","Windows 10","22","male","right","Sun Sep 29 2024 17:21:02 GMT+0200 (Mitteleuropäische Sommerzeit)","1","85","0","1727625640376"
"686","f","SpeechGestureMatch","../RequiredFiles/videos/NeinDaumenrunter_m_no_sound.mp4","Ist der Ball in der blauen Box?","Green","Blue","F","negation","na","gesture","na","ThumbDown","male","gesture-speech","1422","800","edge-chromium","60.87","Windows 10","22","male","right","Sun Sep 29 2024 17:21:08 GMT+0200 (Mitteleuropäische Sommerzeit)","1","86","0","1727625640376"
"566","f","SpeechGestureMatch","../RequiredFiles/videos/NeinDaumenrunter_f_no_sound.mp4","Ist der Ball in der blauen Box?","Green","Blue","F","negation","na","gesture","na","ThumbDown","female","gesture-speech","1422","800","edge-chromium","60.87","Windows 10","22","male","right","Sun Sep 29 2024 17:21:14 GMT+0200 (Mitteleuropäische Sommerzeit)","1","87","0","1727625640376"
"570","f","SpeechGestureMatch","../RequiredFiles/videos/NeinDaumenhoch_f_no_sound.mp4","Ist der Ball in der blauen Box?","Green","Blue","J","affirmation","na","gesture","na","ThumbUp","female","gesture-speech","1422","800","edge-chromium","60.87","Windows 10","22","male","right","Sun Sep 29 2024 17:21:20 GMT+0200 (Mitteleuropäische Sommerzeit)","1","88","1","1727625640376"
"780","j","SpeechGestureMatch","../RequiredFiles/videos/JaDaumenrunter_m.mp4","Ist der Ball in der blauen Box?","Blue","Green","J","negation","mismatch","gesture","yes","ThumbDown","male","gesture-speech","1422","800","edge-chromium","60.87","Windows 10","22","male","right","Sun Sep 29 2024 17:21:26 GMT+0200 (Mitteleuropäische Sommerzeit)","1","89","0","1727625640376"
"641","j","SpeechGestureMatch","../RequiredFiles/videos/NeinDaumenhoch_f.mp4","Ist der Ball in der grünen Box?","Blue","Green","J","affirmation","mismatch","gesture","no","ThumbUp","female","gesture-speech","1422","800","edge-chromium","60.87","Windows 10","22","male","right","Sun Sep 29 2024 17:21:33 GMT+0200 (Mitteleuropäische Sommerzeit)","1","90","0","1727625640376"
"610","j","SpeechGestureMatch","../RequiredFiles/videos/JaDaumenrunter_m.mp4","Ist der Ball in der grünen Box?","Green","Blue","J","negation","mismatch","gesture","yes","ThumbDown","male","gesture-speech","1422","800","edge-chromium","60.87","Windows 10","22","male","right","Sun Sep 29 2024 17:21:39 GMT+0200 (Mitteleuropäische Sommerzeit)","1","91","0","1727625640376"
"618","f","SpeechGestureMatch","../RequiredFiles/videos/NeinDaumenhoch_m.mp4","Ist der Ball in der blauen Box?","Blue","Green","F","affirmation","mismatch","gesture","no","ThumbUp","male","gesture-speech","1422","800","edge-chromium","60.87","Windows 10","22","male","right","Sun Sep 29 2024 17:21:45 GMT+0200 (Mitteleuropäische Sommerzeit)","1","92","0","1727625640376"
"635","j","SpeechGestureMatch","../RequiredFiles/videos/NeinDaumenrunter_m.mp4","Ist der Ball in der blauen Box?","Blue","Green","J","negation","match","gesture","no","ThumbDown","male","gesture-speech","1422","800","edge-chromium","60.87","Windows 10","22","male","right","Sun Sep 29 2024 17:21:51 GMT+0200 (Mitteleuropäische Sommerzeit)","1","93","0","1727625640376"
"584","j","SpeechGestureMatch","../RequiredFiles/videos/JaDaumenrunter_f.mp4","Ist der Ball in der blauen Box?","Blue","Green","J","negation","mismatch","gesture","yes","ThumbDown","female","gesture-speech","1422","800","edge-chromium","60.87","Windows 10","22","male","right","Sun Sep 29 2024 17:21:57 GMT+0200 (Mitteleuropäische Sommerzeit)","1","94","0","1727625640376"
"587","j","SpeechGestureMatch","../RequiredFiles/videos/NeinDaumenhoch_f.mp4","Ist der Ball in der blauen Box?","Blue","Green","F","affirmation","mismatch","gesture","no","ThumbUp","female","gesture-speech","1422","800","edge-chromium","60.87","Windows 10","22","male","right","Sun Sep 29 2024 17:22:03 GMT+0200 (Mitteleuropäische Sommerzeit)","1","95","1","1727625640376"
"588","f","SpeechGestureMatch","../RequiredFiles/videos/NeinDaumenhoch_f_no_sound.mp4","Ist der Ball in der blauen Box?","Blue","Green","F","affirmation","na","gesture","na","ThumbUp","female","gesture-speech","1422","800","edge-chromium","60.87","Windows 10","22","male","right","Sun Sep 29 2024 17:22:09 GMT+0200 (Mitteleuropäische Sommerzeit)","1","96","0","1727625640376"
"632","j","SpeechGestureMatch","../RequiredFiles/videos/JaDaumenhoch_f_no_sound.mp4","Ist der Ball in der grünen Box?","Blue","Green","J","affirmation","na","gesture","na","ThumbUp","female","gesture-speech","1422","800","edge-chromium","60.87","Windows 10","22","male","right","Sun Sep 29 2024 17:24:10 GMT+0200 (Mitteleuropäische Sommerzeit)","2","1","0","1727625640376"
"641","f","SpeechGestureMatch","../RequiredFiles/videos/JaDaumenhoch_m.mp4","Ist der Ball in der blauen Box?","Blue","Green","F","affirmation","match","gesture","yes","ThumbUp","male","gesture-speech","1422","800","edge-chromium","60.87","Windows 10","22","male","right","Sun Sep 29 2024 17:24:16 GMT+0200 (Mitteleuropäische Sommerzeit)","2","2","0","1727625640376"
"538","f","SpeechGestureMatch","../RequiredFiles/videos/NeinDaumenhoch_m.mp4","Ist der Ball in der grünen Box?","Green","Blue","F","affirmation","mismatch","gesture","no","ThumbUp","male","gesture-speech","1422","800","edge-chromium","60.87","Windows 10","22","male","right","Sun Sep 29 2024 17:24:22 GMT+0200 (Mitteleuropäische Sommerzeit)","2","3","0","1727625640376"
"666","f","SpeechGestureMatch","../RequiredFiles/videos/NeinDaumenrunter_m.mp4","Ist der Ball in der blauen Box?","Green","Blue","F","negation","match","gesture","no","ThumbDown","male","gesture-speech","1422","800","edge-chromium","60.87","Windows 10","22","male","right","Sun Sep 29 2024 17:24:28 GMT+0200 (Mitteleuropäische Sommerzeit)","2","4","0","1727625640376"
"678","j","SpeechGestureMatch","../RequiredFiles/videos/NeinDaumenrunter_m.mp4","Ist der Ball in der grünen Box?","Green","Blue","J","negation","match","gesture","no","ThumbDown","male","gesture-speech","1422","800","edge-chromium","60.87","Windows 10","22","male","right","Sun Sep 29 2024 17:24:35 GMT+0200 (Mitteleuropäische Sommerzeit)","2","5","0","1727625640376"
"597","j","SpeechGestureMatch","../RequiredFiles/videos/NeinDaumenrunter_m.mp4","Ist der Ball in der blauen Box?","Blue","Green","J","negation","match","gesture","no","ThumbDown","male","gesture-speech","1422","800","edge-chromium","60.87","Windows 10","22","male","right","Sun Sep 29 2024 17:24:41 GMT+0200 (Mitteleuropäische Sommerzeit)","2","6","0","1727625640376"
"623","f","SpeechGestureMatch","../RequiredFiles/videos/JaDaumenrunter_m.mp4","Ist der Ball in der blauen Box?","Green","Blue","F","negation","mismatch","gesture","yes","ThumbDown","male","gesture-speech","1422","800","edge-chromium","60.87","Windows 10","22","male","right","Sun Sep 29 2024 17:24:47 GMT+0200 (Mitteleuropäische Sommerzeit)","2","7","0","1727625640376"
"565","j","SpeechGestureMatch","../RequiredFiles/videos/NeinDaumenrunter_f_no_sound.mp4","Ist der Ball in der blauen Box?","Blue","Green","J","negation","na","gesture","na","ThumbDown","female","gesture-speech","1422","800","edge-chromium","60.87","Windows 10","22","male","right","Sun Sep 29 2024 17:24:53 GMT+0200 (Mitteleuropäische Sommerzeit)","2","8","0","1727625640376"
"624","j","SpeechGestureMatch","../RequiredFiles/videos/NeinDaumenhoch_f.mp4","Ist der Ball in der blauen Box?","Blue","Green","F","affirmation","mismatch","gesture","no","ThumbUp","female","gesture-speech","1422","800","edge-chromium","60.87","Windows 10","22","male","right","Sun Sep 29 2024 17:24:59 GMT+0200 (Mitteleuropäische Sommerzeit)","2","9","1","1727625640376"
"613","f","SpeechGestureMatch","../RequiredFiles/videos/NeinDaumenhoch_m.mp4","Ist der Ball in der blauen Box?","Blue","Green","F","affirmation","mismatch","gesture","no","ThumbUp","male","gesture-speech","1422","800","edge-chromium","60.87","Windows 10","22","male","right","Sun Sep 29 2024 17:25:05 GMT+0200 (Mitteleuropäische Sommerzeit)","2","10","0","1727625640376"
"655","f","SpeechGestureMatch","../RequiredFiles/videos/NeinDaumenrunter_f.mp4","Ist der Ball in der grünen Box?","Blue","Green","F","negation","match","gesture","no","ThumbDown","female","gesture-speech","1422","800","edge-chromium","60.87","Windows 10","22","male","right","Sun Sep 29 2024 17:25:11 GMT+0200 (Mitteleuropäische Sommerzeit)","2","11","0","1727625640376"
"670","f","SpeechGestureMatch","../RequiredFiles/videos/NeinDaumenrunter_m.mp4","Ist der Ball in der grünen Box?","Blue","Green","F","negation","match","gesture","no","ThumbDown","male","gesture-speech","1422","800","edge-chromium","60.87","Windows 10","22","male","right","Sun Sep 29 2024 17:25:18 GMT+0200 (Mitteleuropäische Sommerzeit)","2","12","0","1727625640376"
"588","f","SpeechGestureMatch","../RequiredFiles/videos/JaDaumenrunter_f.mp4","Ist der Ball in der blauen Box?","Green","Blue","F","negation","mismatch","gesture","yes","ThumbDown","female","gesture-speech","1422","800","edge-chromium","60.87","Windows 10","22","male","right","Sun Sep 29 2024 17:25:24 GMT+0200 (Mitteleuropäische Sommerzeit)","2","13","0","1727625640376"
"590","f","SpeechGestureMatch","../RequiredFiles/videos/JaDaumenhoch_f.mp4","Ist der Ball in der blauen Box?","Green","Blue","J","affirmation","match","gesture","yes","ThumbUp","female","gesture-speech","1422","800","edge-chromium","60.87","Windows 10","22","male","right","Sun Sep 29 2024 17:25:30 GMT+0200 (Mitteleuropäische Sommerzeit)","2","14","1","1727625640376"
"661","f","SpeechGestureMatch","../RequiredFiles/videos/JaDaumenrunter_f_no_sound.mp4","Ist der Ball in der grünen Box?","Blue","Green","F","negation","na","gesture","na","ThumbDown","female","gesture-speech","1422","800","edge-chromium","60.87","Windows 10","22","male","right","Sun Sep 29 2024 17:25:36 GMT+0200 (Mitteleuropäische Sommerzeit)","2","15","0","1727625640376"
"595","f","SpeechGestureMatch","../RequiredFiles/videos/JaDaumenrunter_m_no_sound.mp4","Ist der Ball in der grünen Box?","Green","Blue","J","negation","na","gesture","na","ThumbDown","male","gesture-speech","1422","800","edge-chromium","60.87","Windows 10","22","male","right","Sun Sep 29 2024 17:25:42 GMT+0200 (Mitteleuropäische Sommerzeit)","2","16","1","1727625640376"
"812","f","SpeechGestureMatch","../RequiredFiles/videos/JaDaumenrunter_f.mp4","Ist der Ball in der grünen Box?","Blue","Green","F","negation","mismatch","gesture","yes","ThumbDown","female","gesture-speech","1422","800","edge-chromium","60.87","Windows 10","22","male","right","Sun Sep 29 2024 17:25:49 GMT+0200 (Mitteleuropäische Sommerzeit)","2","17","0","1727625640376"
"724","j","SpeechGestureMatch","../RequiredFiles/videos/NeinDaumenrunter_m.mp4","Ist der Ball in der blauen Box?","Blue","Green","J","negation","match","gesture","no","ThumbDown","male","gesture-speech","1422","800","edge-chromium","60.87","Windows 10","22","male","right","Sun Sep 29 2024 17:25:55 GMT+0200 (Mitteleuropäische Sommerzeit)","2","18","0","1727625640376"
"899","j","SpeechGestureMatch","../RequiredFiles/videos/NeinDaumenhoch_f.mp4","Ist der Ball in der blauen Box?","Green","Blue","J","affirmation","mismatch","gesture","no","ThumbUp","female","gesture-speech","1422","800","edge-chromium","60.87","Windows 10","22","male","right","Sun Sep 29 2024 17:26:01 GMT+0200 (Mitteleuropäische Sommerzeit)","2","19","0","1727625640376"
"786","j","SpeechGestureMatch","../RequiredFiles/videos/NeinDaumenhoch_m.mp4","Ist der Ball in der grünen Box?","Green","Blue","F","affirmation","mismatch","gesture","no","ThumbUp","male","gesture-speech","1422","800","edge-chromium","60.87","Windows 10","22","male","right","Sun Sep 29 2024 17:26:08 GMT+0200 (Mitteleuropäische Sommerzeit)","2","20","1","1727625640376"
"630","f","SpeechGestureMatch","../RequiredFiles/videos/JaDaumenhoch_f.mp4","Ist der Ball in der grünen Box?","Green","Blue","F","affirmation","match","gesture","yes","ThumbUp","female","gesture-speech","1422","800","edge-chromium","60.87","Windows 10","22","male","right","Sun Sep 29 2024 17:26:14 GMT+0200 (Mitteleuropäische Sommerzeit)","2","21","0","1727625640376"
"626","j","SpeechGestureMatch","../RequiredFiles/videos/JaDaumenrunter_m_no_sound.mp4","Ist der Ball in der blauen Box?","Blue","Green","J","negation","na","gesture","na","ThumbDown","male","gesture-speech","1422","800","edge-chromium","60.87","Windows 10","22","male","right","Sun Sep 29 2024 17:26:20 GMT+0200 (Mitteleuropäische Sommerzeit)","2","22","0","1727625640376"
"538","j","SpeechGestureMatch","../RequiredFiles/videos/JaDaumenhoch_m_no_sound.mp4","Ist der Ball in der grünen Box?","Blue","Green","J","affirmation","na","gesture","na","ThumbUp","male","gesture-speech","1422","800","edge-chromium","60.87","Windows 10","22","male","right","Sun Sep 29 2024 17:26:26 GMT+0200 (Mitteleuropäische Sommerzeit)","2","23","0","1727625640376"
"691","j","SpeechGestureMatch","../RequiredFiles/videos/NeinDaumenrunter_m.mp4","Ist der Ball in der grünen Box?","Green","Blue","J","negation","match","gesture","no","ThumbDown","male","gesture-speech","1422","800","edge-chromium","60.87","Windows 10","22","male","right","Sun Sep 29 2024 17:26:32 GMT+0200 (Mitteleuropäische Sommerzeit)","2","24","0","1727625640376"
"573","j","SpeechGestureMatch","../RequiredFiles/videos/NeinDaumenhoch_m_no_sound.mp4","Ist der Ball in der grünen Box?","Blue","Green","J","affirmation","na","gesture","na","ThumbUp","male","gesture-speech","1422","800","edge-chromium","60.87","Windows 10","22","male","right","Sun Sep 29 2024 17:26:38 GMT+0200 (Mitteleuropäische Sommerzeit)","2","25","0","1727625640376"
"783","f","SpeechGestureMatch","../RequiredFiles/videos/NeinDaumenrunter_f.mp4","Ist der Ball in der blauen Box?","Green","Blue","F","negation","match","gesture","no","ThumbDown","female","gesture-speech","1422","800","edge-chromium","60.87","Windows 10","22","male","right","Sun Sep 29 2024 17:26:45 GMT+0200 (Mitteleuropäische Sommerzeit)","2","26","0","1727625640376"
"556","f","SpeechGestureMatch","../RequiredFiles/videos/JaDaumenrunter_f.mp4","Ist der Ball in der blauen Box?","Green","Blue","F","negation","mismatch","gesture","yes","ThumbDown","female","gesture-speech","1422","800","edge-chromium","60.87","Windows 10","22","male","right","Sun Sep 29 2024 17:26:51 GMT+0200 (Mitteleuropäische Sommerzeit)","2","27","0","1727625640376"
"793","j","SpeechGestureMatch","../RequiredFiles/videos/JaDaumenrunter_f_no_sound.mp4","Ist der Ball in der blauen Box?","Blue","Green","J","negation","na","gesture","na","ThumbDown","female","gesture-speech","1422","800","edge-chromium","60.87","Windows 10","22","male","right","Sun Sep 29 2024 17:26:57 GMT+0200 (Mitteleuropäische Sommerzeit)","2","28","0","1727625640376"
"677","j","SpeechGestureMatch","../RequiredFiles/videos/JaDaumenhoch_f.mp4","Ist der Ball in der blauen Box?","Blue","Green","F","affirmation","match","gesture","yes","ThumbUp","female","gesture-speech","1422","800","edge-chromium","60.87","Windows 10","22","male","right","Sun Sep 29 2024 17:27:03 GMT+0200 (Mitteleuropäische Sommerzeit)","2","29","1","1727625640376"
"648","j","SpeechGestureMatch","../RequiredFiles/videos/JaDaumenrunter_f.mp4","Ist der Ball in der grünen Box?","Green","Blue","J","negation","mismatch","gesture","yes","ThumbDown","female","gesture-speech","1422","800","edge-chromium","60.87","Windows 10","22","male","right","Sun Sep 29 2024 17:27:10 GMT+0200 (Mitteleuropäische Sommerzeit)","2","30","0","1727625640376"
"569","f","SpeechGestureMatch","../RequiredFiles/videos/NeinDaumenrunter_m.mp4","Ist der Ball in der grünen Box?","Blue","Green","F","negation","match","gesture","no","ThumbDown","male","gesture-speech","1422","800","edge-chromium","60.87","Windows 10","22","male","right","Sun Sep 29 2024 17:27:16 GMT+0200 (Mitteleuropäische Sommerzeit)","2","31","0","1727625640376"
"587","f","SpeechGestureMatch","../RequiredFiles/videos/NeinDaumenhoch_f.mp4","Ist der Ball in der blauen Box?","Green","Blue","J","affirmation","mismatch","gesture","no","ThumbUp","female","gesture-speech","1422","800","edge-chromium","60.87","Windows 10","22","male","right","Sun Sep 29 2024 17:27:22 GMT+0200 (Mitteleuropäische Sommerzeit)","2","32","1","1727625640376"
"620","j","SpeechGestureMatch","../RequiredFiles/videos/NeinDaumenrunter_f.mp4","Ist der Ball in der blauen Box?","Blue","Green","J","negation","match","gesture","no","ThumbDown","female","gesture-speech","1422","800","edge-chromium","60.87","Windows 10","22","male","right","Sun Sep 29 2024 17:27:28 GMT+0200 (Mitteleuropäische Sommerzeit)","2","33","0","1727625640376"
"759","f","SpeechGestureMatch","../RequiredFiles/videos/NeinDaumenrunter_f.mp4","Ist der Ball in der grünen Box?","Blue","Green","F","negation","match","gesture","no","ThumbDown","female","gesture-speech","1422","800","edge-chromium","60.87","Windows 10","22","male","right","Sun Sep 29 2024 17:27:34 GMT+0200 (Mitteleuropäische Sommerzeit)","2","34","0","1727625640376"
"613","j","SpeechGestureMatch","../RequiredFiles/videos/NeinDaumenrunter_f.mp4","Ist der Ball in der grünen Box?","Green","Blue","J","negation","match","gesture","no","ThumbDown","female","gesture-speech","1422","800","edge-chromium","60.87","Windows 10","22","male","right","Sun Sep 29 2024 17:27:40 GMT+0200 (Mitteleuropäische Sommerzeit)","2","35","0","1727625640376"
"651","j","SpeechGestureMatch","../RequiredFiles/videos/JaDaumenhoch_f.mp4","Ist der Ball in der grünen Box?","Green","Blue","F","affirmation","match","gesture","yes","ThumbUp","female","gesture-speech","1422","800","edge-chromium","60.87","Windows 10","22","male","right","Sun Sep 29 2024 17:27:47 GMT+0200 (Mitteleuropäische Sommerzeit)","2","36","1","1727625640376"
"612","j","SpeechGestureMatch","../RequiredFiles/videos/JaDaumenhoch_m.mp4","Ist der Ball in der grünen Box?","Blue","Green","J","affirmation","match","gesture","yes","ThumbUp","male","gesture-speech","1422","800","edge-chromium","60.87","Windows 10","22","male","right","Sun Sep 29 2024 17:27:53 GMT+0200 (Mitteleuropäische Sommerzeit)","2","37","0","1727625640376"
"791","f","SpeechGestureMatch","../RequiredFiles/videos/JaDaumenrunter_m.mp4","Ist der Ball in der blauen Box?","Green","Blue","F","negation","mismatch","gesture","yes","ThumbDown","male","gesture-speech","1422","800","edge-chromium","60.87","Windows 10","22","male","right","Sun Sep 29 2024 17:27:59 GMT+0200 (Mitteleuropäische Sommerzeit)","2","38","0","1727625640376"
"648","j","SpeechGestureMatch","../RequiredFiles/videos/NeinDaumenhoch_f_no_sound.mp4","Ist der Ball in der blauen Box?","Green","Blue","J","affirmation","na","gesture","na","ThumbUp","female","gesture-speech","1422","800","edge-chromium","60.87","Windows 10","22","male","right","Sun Sep 29 2024 17:28:05 GMT+0200 (Mitteleuropäische Sommerzeit)","2","39","0","1727625640376"
"590","f","SpeechGestureMatch","../RequiredFiles/videos/JaDaumenrunter_m.mp4","Ist der Ball in der grünen Box?","Blue","Green","F","negation","mismatch","gesture","yes","ThumbDown","male","gesture-speech","1422","800","edge-chromium","60.87","Windows 10","22","male","right","Sun Sep 29 2024 17:28:11 GMT+0200 (Mitteleuropäische Sommerzeit)","2","40","0","1727625640376"
"603","j","SpeechGestureMatch","../RequiredFiles/videos/JaDaumenhoch_f_no_sound.mp4","Ist der Ball in der blauen Box?","Green","Blue","J","affirmation","na","gesture","na","ThumbUp","female","gesture-speech","1422","800","edge-chromium","60.87","Windows 10","22","male","right","Sun Sep 29 2024 17:28:18 GMT+0200 (Mitteleuropäische Sommerzeit)","2","41","0","1727625640376"
"590","f","SpeechGestureMatch","../RequiredFiles/videos/NeinDaumenrunter_m_no_sound.mp4","Ist der Ball in der blauen Box?","Green","Blue","F","negation","na","gesture","na","ThumbDown","male","gesture-speech","1422","800","edge-chromium","60.87","Windows 10","22","male","right","Sun Sep 29 2024 17:28:24 GMT+0200 (Mitteleuropäische Sommerzeit)","2","42","0","1727625640376"
"593","f","SpeechGestureMatch","../RequiredFiles/videos/NeinDaumenrunter_f.mp4","Ist der Ball in der blauen Box?","Green","Blue","F","negation","match","gesture","no","ThumbDown","female","gesture-speech","1422","800","edge-chromium","60.87","Windows 10","22","male","right","Sun Sep 29 2024 17:28:30 GMT+0200 (Mitteleuropäische Sommerzeit)","2","43","0","1727625640376"
"622","j","SpeechGestureMatch","../RequiredFiles/videos/NeinDaumenhoch_f.mp4","Ist der Ball in der grünen Box?","Green","Blue","F","affirmation","mismatch","gesture","no","ThumbUp","female","gesture-speech","1422","800","edge-chromium","60.87","Windows 10","22","male","right","Sun Sep 29 2024 17:28:36 GMT+0200 (Mitteleuropäische Sommerzeit)","2","44","1","1727625640376"
"590","f","SpeechGestureMatch","../RequiredFiles/videos/NeinDaumenhoch_f_no_sound.mp4","Ist der Ball in der grünen Box?","Green","Blue","F","affirmation","na","gesture","na","ThumbUp","female","gesture-speech","1422","800","edge-chromium","60.87","Windows 10","22","male","right","Sun Sep 29 2024 17:28:42 GMT+0200 (Mitteleuropäische Sommerzeit)","2","45","0","1727625640376"
"599","j","SpeechGestureMatch","../RequiredFiles/videos/JaDaumenhoch_f.mp4","Ist der Ball in der blauen Box?","Green","Blue","J","affirmation","match","gesture","yes","ThumbUp","female","gesture-speech","1422","800","edge-chromium","60.87","Windows 10","22","male","right","Sun Sep 29 2024 17:28:48 GMT+0200 (Mitteleuropäische Sommerzeit)","2","46","0","1727625640376"
"739","j","SpeechGestureMatch","../RequiredFiles/videos/NeinDaumenrunter_f_no_sound.mp4","Ist der Ball in der grünen Box?","Green","Blue","J","negation","na","gesture","na","ThumbDown","female","gesture-speech","1422","800","edge-chromium","60.87","Windows 10","22","male","right","Sun Sep 29 2024 17:28:55 GMT+0200 (Mitteleuropäische Sommerzeit)","2","47","0","1727625640376"
"599","j","SpeechGestureMatch","../RequiredFiles/videos/JaDaumenhoch_m.mp4","Ist der Ball in der grünen Box?","Green","Blue","F","affirmation","match","gesture","yes","ThumbUp","male","gesture-speech","1422","800","edge-chromium","60.87","Windows 10","22","male","right","Sun Sep 29 2024 17:29:01 GMT+0200 (Mitteleuropäische Sommerzeit)","2","48","1","1727625640376"
"773","j","SpeechGestureMatch","../RequiredFiles/videos/JaDaumenrunter_m.mp4","Ist der Ball in der blauen Box?","Blue","Green","J","negation","mismatch","gesture","yes","ThumbDown","male","gesture-speech","1422","800","edge-chromium","60.87","Windows 10","22","male","right","Sun Sep 29 2024 17:29:07 GMT+0200 (Mitteleuropäische Sommerzeit)","2","49","0","1727625640376"
"689","f","SpeechGestureMatch","../RequiredFiles/videos/JaDaumenrunter_m_no_sound.mp4","Ist der Ball in der blauen Box?","Green","Blue","F","negation","na","gesture","na","ThumbDown","male","gesture-speech","1422","800","edge-chromium","60.87","Windows 10","22","male","right","Sun Sep 29 2024 17:29:13 GMT+0200 (Mitteleuropäische Sommerzeit)","2","50","0","1727625640376"
"750","f","SpeechGestureMatch","../RequiredFiles/videos/JaDaumenrunter_m_no_sound.mp4","Ist der Ball in der grünen Box?","Blue","Green","F","negation","na","gesture","na","ThumbDown","male","gesture-speech","1422","800","edge-chromium","60.87","Windows 10","22","male","right","Sun Sep 29 2024 17:29:20 GMT+0200 (Mitteleuropäische Sommerzeit)","2","51","0","1727625640376"
"735","f","SpeechGestureMatch","../RequiredFiles/videos/JaDaumenrunter_m.mp4","Ist der Ball in der grünen Box?","Green","Blue","J","negation","mismatch","gesture","yes","ThumbDown","male","gesture-speech","1422","800","edge-chromium","60.87","Windows 10","22","male","right","Sun Sep 29 2024 17:29:26 GMT+0200 (Mitteleuropäische Sommerzeit)","2","52","1","1727625640376"
"600","f","SpeechGestureMatch","../RequiredFiles/videos/JaDaumenhoch_f_no_sound.mp4","Ist der Ball in der grünen Box?","Green","Blue","F","affirmation","na","gesture","na","ThumbUp","female","gesture-speech","1422","800","edge-chromium","60.87","Windows 10","22","male","right","Sun Sep 29 2024 17:29:32 GMT+0200 (Mitteleuropäische Sommerzeit)","2","53","0","1727625640376"
"598","j","SpeechGestureMatch","../RequiredFiles/videos/NeinDaumenrunter_m_no_sound.mp4","Ist der Ball in der grünen Box?","Green","Blue","J","negation","na","gesture","na","ThumbDown","male","gesture-speech","1422","800","edge-chromium","60.87","Windows 10","22","male","right","Sun Sep 29 2024 17:29:38 GMT+0200 (Mitteleuropäische Sommerzeit)","2","54","0","1727625640376"
"703","j","SpeechGestureMatch","../RequiredFiles/videos/JaDaumenhoch_m.mp4","Ist der Ball in der grünen Box?","Blue","Green","J","affirmation","match","gesture","yes","ThumbUp","male","gesture-speech","1422","800","edge-chromium","60.87","Windows 10","22","male","right","Sun Sep 29 2024 17:29:44 GMT+0200 (Mitteleuropäische Sommerzeit)","2","55","0","1727625640376"
"628","j","SpeechGestureMatch","../RequiredFiles/videos/NeinDaumenhoch_f.mp4","Ist der Ball in der grünen Box?","Blue","Green","J","affirmation","mismatch","gesture","no","ThumbUp","female","gesture-speech","1422","800","edge-chromium","60.87","Windows 10","22","male","right","Sun Sep 29 2024 17:29:51 GMT+0200 (Mitteleuropäische Sommerzeit)","2","56","0","1727625640376"
"765","j","SpeechGestureMatch","../RequiredFiles/videos/NeinDaumenhoch_m_no_sound.mp4","Ist der Ball in der grünen Box?","Green","Blue","F","affirmation","na","gesture","na","ThumbUp","male","gesture-speech","1422","800","edge-chromium","60.87","Windows 10","22","male","right","Sun Sep 29 2024 17:29:57 GMT+0200 (Mitteleuropäische Sommerzeit)","2","57","1","1727625640376"
"699","j","SpeechGestureMatch","../RequiredFiles/videos/JaDaumenhoch_m.mp4","Ist der Ball in der blauen Box?","Green","Blue","J","affirmation","match","gesture","yes","ThumbUp","male","gesture-speech","1422","800","edge-chromium","60.87","Windows 10","22","male","right","Sun Sep 29 2024 17:30:03 GMT+0200 (Mitteleuropäische Sommerzeit)","2","58","0","1727625640376"
"611","f","SpeechGestureMatch","../RequiredFiles/videos/JaDaumenrunter_m.mp4","Ist der Ball in der blauen Box?","Blue","Green","J","negation","mismatch","gesture","yes","ThumbDown","male","gesture-speech","1422","800","edge-chromium","60.87","Windows 10","22","male","right","Sun Sep 29 2024 17:30:09 GMT+0200 (Mitteleuropäische Sommerzeit)","2","59","1","1727625640376"
"704","j","SpeechGestureMatch","../RequiredFiles/videos/JaDaumenrunter_f.mp4","Ist der Ball in der grünen Box?","Green","Blue","J","negation","mismatch","gesture","yes","ThumbDown","female","gesture-speech","1422","800","edge-chromium","60.87","Windows 10","22","male","right","Sun Sep 29 2024 17:30:16 GMT+0200 (Mitteleuropäische Sommerzeit)","2","60","0","1727625640376"
"669","j","SpeechGestureMatch","../RequiredFiles/videos/NeinDaumenhoch_m.mp4","Ist der Ball in der grünen Box?","Blue","Green","J","affirmation","mismatch","gesture","no","ThumbUp","male","gesture-speech","1422","800","edge-chromium","60.87","Windows 10","22","male","right","Sun Sep 29 2024 17:30:22 GMT+0200 (Mitteleuropäische Sommerzeit)","2","61","0","1727625640376"
"628","f","SpeechGestureMatch","../RequiredFiles/videos/JaDaumenhoch_f_no_sound.mp4","Ist der Ball in der blauen Box?","Blue","Green","F","affirmation","na","gesture","na","ThumbUp","female","gesture-speech","1422","800","edge-chromium","60.87","Windows 10","22","male","right","Sun Sep 29 2024 17:30:28 GMT+0200 (Mitteleuropäische Sommerzeit)","2","62","0","1727625640376"
"627","j","SpeechGestureMatch","../RequiredFiles/videos/JaDaumenrunter_f.mp4","Ist der Ball in der blauen Box?","Blue","Green","J","negation","mismatch","gesture","yes","ThumbDown","female","gesture-speech","1422","800","edge-chromium","60.87","Windows 10","22","male","right","Sun Sep 29 2024 17:30:34 GMT+0200 (Mitteleuropäische Sommerzeit)","2","63","0","1727625640376"
"641","j","SpeechGestureMatch","../RequiredFiles/videos/NeinDaumenrunter_f.mp4","Ist der Ball in der grünen Box?","Green","Blue","J","negation","match","gesture","no","ThumbDown","female","gesture-speech","1422","800","edge-chromium","60.87","Windows 10","22","male","right","Sun Sep 29 2024 17:30:40 GMT+0200 (Mitteleuropäische Sommerzeit)","2","64","0","1727625640376"
"637","f","SpeechGestureMatch","../RequiredFiles/videos/JaDaumenhoch_m_no_sound.mp4","Ist der Ball in der grünen Box?","Green","Blue","F","affirmation","na","gesture","na","ThumbUp","male","gesture-speech","1422","800","edge-chromium","60.87","Windows 10","22","male","right","Sun Sep 29 2024 17:30:46 GMT+0200 (Mitteleuropäische Sommerzeit)","2","65","0","1727625640376"
"602","f","SpeechGestureMatch","../RequiredFiles/videos/NeinDaumenhoch_f_no_sound.mp4","Ist der Ball in der blauen Box?","Blue","Green","F","affirmation","na","gesture","na","ThumbUp","female","gesture-speech","1422","800","edge-chromium","60.87","Windows 10","22","male","right","Sun Sep 29 2024 17:30:53 GMT+0200 (Mitteleuropäische Sommerzeit)","2","66","0","1727625640376"
"775","f","SpeechGestureMatch","../RequiredFiles/videos/JaDaumenhoch_m.mp4","Ist der Ball in der blauen Box?","Blue","Green","F","affirmation","match","gesture","yes","ThumbUp","male","gesture-speech","1422","800","edge-chromium","60.87","Windows 10","22","male","right","Sun Sep 29 2024 17:30:59 GMT+0200 (Mitteleuropäische Sommerzeit)","2","67","0","1727625640376"
"633","f","SpeechGestureMatch","../RequiredFiles/videos/NeinDaumenrunter_f_no_sound.mp4","Ist der Ball in der blauen Box?","Green","Blue","F","negation","na","gesture","na","ThumbDown","female","gesture-speech","1422","800","edge-chromium","60.87","Windows 10","22","male","right","Sun Sep 29 2024 17:31:05 GMT+0200 (Mitteleuropäische Sommerzeit)","2","68","0","1727625640376"
"586","j","SpeechGestureMatch","../RequiredFiles/videos/JaDaumenhoch_m.mp4","Ist der Ball in der blauen Box?","Green","Blue","J","affirmation","match","gesture","yes","ThumbUp","male","gesture-speech","1422","800","edge-chromium","60.87","Windows 10","22","male","right","Sun Sep 29 2024 17:31:11 GMT+0200 (Mitteleuropäische Sommerzeit)","2","69","0","1727625640376"
"645","f","SpeechGestureMatch","../RequiredFiles/videos/NeinDaumenhoch_f.mp4","Ist der Ball in der grünen Box?","Blue","Green","J","affirmation","mismatch","gesture","no","ThumbUp","female","gesture-speech","1422","800","edge-chromium","60.87","Windows 10","22","male","right","Sun Sep 29 2024 17:31:17 GMT+0200 (Mitteleuropäische Sommerzeit)","2","70","1","1727625640376"
"697","f","SpeechGestureMatch","../RequiredFiles/videos/NeinDaumenrunter_m_no_sound.mp4","Ist der Ball in der grünen Box?","Blue","Green","F","negation","na","gesture","na","ThumbDown","male","gesture-speech","1422","800","edge-chromium","60.87","Windows 10","22","male","right","Sun Sep 29 2024 17:31:24 GMT+0200 (Mitteleuropäische Sommerzeit)","2","71","0","1727625640376"
"685","j","SpeechGestureMatch","../RequiredFiles/videos/JaDaumenhoch_f.mp4","Ist der Ball in der grünen Box?","Blue","Green","J","affirmation","match","gesture","yes","ThumbUp","female","gesture-speech","1422","800","edge-chromium","60.87","Windows 10","22","male","right","Sun Sep 29 2024 17:31:30 GMT+0200 (Mitteleuropäische Sommerzeit)","2","72","0","1727625640376"
"687","j","SpeechGestureMatch","../RequiredFiles/videos/NeinDaumenhoch_m.mp4","Ist der Ball in der blauen Box?","Green","Blue","J","affirmation","mismatch","gesture","no","ThumbUp","male","gesture-speech","1422","800","edge-chromium","60.87","Windows 10","22","male","right","Sun Sep 29 2024 17:31:36 GMT+0200 (Mitteleuropäische Sommerzeit)","2","73","0","1727625640376"
"623","f","SpeechGestureMatch","../RequiredFiles/videos/NeinDaumenhoch_f.mp4","Ist der Ball in der grünen Box?","Green","Blue","F","affirmation","mismatch","gesture","no","ThumbUp","female","gesture-speech","1422","800","edge-chromium","60.87","Windows 10","22","male","right","Sun Sep 29 2024 17:31:42 GMT+0200 (Mitteleuropäische Sommerzeit)","2","74","0","1727625640376"
"635","j","SpeechGestureMatch","../RequiredFiles/videos/JaDaumenhoch_f.mp4","Ist der Ball in der grünen Box?","Blue","Green","J","affirmation","match","gesture","yes","ThumbUp","female","gesture-speech","1422","800","edge-chromium","60.87","Windows 10","22","male","right","Sun Sep 29 2024 17:31:48 GMT+0200 (Mitteleuropäische Sommerzeit)","2","75","0","1727625640376"
"555","j","SpeechGestureMatch","../RequiredFiles/videos/NeinDaumenhoch_m.mp4","Ist der Ball in der blauen Box?","Green","Blue","J","affirmation","mismatch","gesture","no","ThumbUp","male","gesture-speech","1422","800","edge-chromium","60.87","Windows 10","22","male","right","Sun Sep 29 2024 17:31:55 GMT+0200 (Mitteleuropäische Sommerzeit)","2","76","0","1727625640376"
"677","j","SpeechGestureMatch","../RequiredFiles/videos/NeinDaumenrunter_f.mp4","Ist der Ball in der blauen Box?","Blue","Green","J","negation","match","gesture","no","ThumbDown","female","gesture-speech","1422","800","edge-chromium","60.87","Windows 10","22","male","right","Sun Sep 29 2024 17:32:01 GMT+0200 (Mitteleuropäische Sommerzeit)","2","77","0","1727625640376"
"614","f","SpeechGestureMatch","../RequiredFiles/videos/JaDaumenhoch_f.mp4","Ist der Ball in der blauen Box?","Blue","Green","F","affirmation","match","gesture","yes","ThumbUp","female","gesture-speech","1422","800","edge-chromium","60.87","Windows 10","22","male","right","Sun Sep 29 2024 17:32:07 GMT+0200 (Mitteleuropäische Sommerzeit)","2","78","0","1727625640376"
"800","j","SpeechGestureMatch","../RequiredFiles/videos/JaDaumenrunter_m.mp4","Ist der Ball in der grünen Box?","Green","Blue","J","negation","mismatch","gesture","yes","ThumbDown","male","gesture-speech","1422","800","edge-chromium","60.87","Windows 10","22","male","right","Sun Sep 29 2024 17:32:13 GMT+0200 (Mitteleuropäische Sommerzeit)","2","79","0","1727625640376"
"746","j","SpeechGestureMatch","../RequiredFiles/videos/JaDaumenrunter_f_no_sound.mp4","Ist der Ball in der grünen Box?","Green","Blue","J","negation","na","gesture","na","ThumbDown","female","gesture-speech","1422","800","edge-chromium","60.87","Windows 10","22","male","right","Sun Sep 29 2024 17:32:20 GMT+0200 (Mitteleuropäische Sommerzeit)","2","80","0","1727625640376"
"697","f","SpeechGestureMatch","../RequiredFiles/videos/NeinDaumenrunter_m_no_sound.mp4","Ist der Ball in der blauen Box?","Blue","Green","J","negation","na","gesture","na","ThumbDown","male","gesture-speech","1422","800","edge-chromium","60.87","Windows 10","22","male","right","Sun Sep 29 2024 17:32:26 GMT+0200 (Mitteleuropäische Sommerzeit)","2","81","1","1727625640376"
"712","f","SpeechGestureMatch","../RequiredFiles/videos/NeinDaumenrunter_f_no_sound.mp4","Ist der Ball in der grünen Box?","Blue","Green","F","negation","na","gesture","na","ThumbDown","female","gesture-speech","1422","800","edge-chromium","60.87","Windows 10","22","male","right","Sun Sep 29 2024 17:32:32 GMT+0200 (Mitteleuropäische Sommerzeit)","2","82","0","1727625640376"
"689","j","SpeechGestureMatch","../RequiredFiles/videos/NeinDaumenhoch_m.mp4","Ist der Ball in der grünen Box?","Blue","Green","J","affirmation","mismatch","gesture","no","ThumbUp","male","gesture-speech","1422","800","edge-chromium","60.87","Windows 10","22","male","right","Sun Sep 29 2024 17:32:38 GMT+0200 (Mitteleuropäische Sommerzeit)","2","83","0","1727625640376"
"629","j","SpeechGestureMatch","../RequiredFiles/videos/NeinDaumenhoch_m_no_sound.mp4","Ist der Ball in der blauen Box?","Green","Blue","J","affirmation","na","gesture","na","ThumbUp","male","gesture-speech","1422","800","edge-chromium","60.87","Windows 10","22","male","right","Sun Sep 29 2024 17:32:44 GMT+0200 (Mitteleuropäische Sommerzeit)","2","84","0","1727625640376"
"625","f","SpeechGestureMatch","../RequiredFiles/videos/NeinDaumenhoch_m_no_sound.mp4","Ist der Ball in der blauen Box?","Blue","Green","F","affirmation","na","gesture","na","ThumbUp","male","gesture-speech","1422","800","edge-chromium","60.87","Windows 10","22","male","right","Sun Sep 29 2024 17:32:51 GMT+0200 (Mitteleuropäische Sommerzeit)","2","85","0","1727625640376"
"579","f","SpeechGestureMatch","../RequiredFiles/videos/JaDaumenhoch_m_no_sound.mp4","Ist der Ball in der blauen Box?","Blue","Green","F","affirmation","na","gesture","na","ThumbUp","male","gesture-speech","1422","800","edge-chromium","60.87","Windows 10","22","male","right","Sun Sep 29 2024 17:32:57 GMT+0200 (Mitteleuropäische Sommerzeit)","2","86","0","1727625640376"
"786","f","SpeechGestureMatch","../RequiredFiles/videos/NeinDaumenhoch_f.mp4","Ist der Ball in der blauen Box?","Blue","Green","F","affirmation","mismatch","gesture","no","ThumbUp","female","gesture-speech","1422","800","edge-chromium","60.87","Windows 10","22","male","right","Sun Sep 29 2024 17:33:03 GMT+0200 (Mitteleuropäische Sommerzeit)","2","87","0","1727625640376"
"611","j","SpeechGestureMatch","../RequiredFiles/videos/JaDaumenrunter_m.mp4","Ist der Ball in der grünen Box?","Blue","Green","F","negation","mismatch","gesture","yes","ThumbDown","male","gesture-speech","1422","800","edge-chromium","60.87","Windows 10","22","male","right","Sun Sep 29 2024 17:33:09 GMT+0200 (Mitteleuropäische Sommerzeit)","2","88","1","1727625640376"
"630","j","SpeechGestureMatch","../RequiredFiles/videos/NeinDaumenhoch_f_no_sound.mp4","Ist der Ball in der grünen Box?","Blue","Green","J","affirmation","na","gesture","na","ThumbUp","female","gesture-speech","1422","800","edge-chromium","60.87","Windows 10","22","male","right","Sun Sep 29 2024 17:33:15 GMT+0200 (Mitteleuropäische Sommerzeit)","2","89","0","1727625640376"
"784","f","SpeechGestureMatch","../RequiredFiles/videos/JaDaumenhoch_m.mp4","Ist der Ball in der grünen Box?","Green","Blue","F","affirmation","match","gesture","yes","ThumbUp","male","gesture-speech","1422","800","edge-chromium","60.87","Windows 10","22","male","right","Sun Sep 29 2024 17:33:22 GMT+0200 (Mitteleuropäische Sommerzeit)","2","90","0","1727625640376"
"601","j","SpeechGestureMatch","../RequiredFiles/videos/JaDaumenhoch_m_no_sound.mp4","Ist der Ball in der blauen Box?","Green","Blue","J","affirmation","na","gesture","na","ThumbUp","male","gesture-speech","1422","800","edge-chromium","60.87","Windows 10","22","male","right","Sun Sep 29 2024 17:33:28 GMT+0200 (Mitteleuropäische Sommerzeit)","2","91","0","1727625640376"
"872","j","SpeechGestureMatch","../RequiredFiles/videos/JaDaumenrunter_f.mp4","Ist der Ball in der blauen Box?","Blue","Green","J","negation","mismatch","gesture","yes","ThumbDown","female","gesture-speech","1422","800","edge-chromium","60.87","Windows 10","22","male","right","Sun Sep 29 2024 17:33:34 GMT+0200 (Mitteleuropäische Sommerzeit)","2","92","0","1727625640376"
"662","f","SpeechGestureMatch","../RequiredFiles/videos/NeinDaumenrunter_m.mp4","Ist der Ball in der blauen Box?","Green","Blue","F","negation","match","gesture","no","ThumbDown","male","gesture-speech","1422","800","edge-chromium","60.87","Windows 10","22","male","right","Sun Sep 29 2024 17:33:41 GMT+0200 (Mitteleuropäische Sommerzeit)","2","93","0","1727625640376"
"669","f","SpeechGestureMatch","../RequiredFiles/videos/JaDaumenrunter_f.mp4","Ist der Ball in der grünen Box?","Blue","Green","F","negation","mismatch","gesture","yes","ThumbDown","female","gesture-speech","1422","800","edge-chromium","60.87","Windows 10","22","male","right","Sun Sep 29 2024 17:33:47 GMT+0200 (Mitteleuropäische Sommerzeit)","2","94","0","1727625640376"
"653","j","SpeechGestureMatch","../RequiredFiles/videos/NeinDaumenhoch_m.mp4","Ist der Ball in der blauen Box?","Blue","Green","F","affirmation","mismatch","gesture","no","ThumbUp","male","gesture-speech","1422","800","edge-chromium","60.87","Windows 10","22","male","right","Sun Sep 29 2024 17:33:53 GMT+0200 (Mitteleuropäische Sommerzeit)","2","95","1","1727625640376"
"649","f","SpeechGestureMatch","../RequiredFiles/videos/JaDaumenrunter_f_no_sound.mp4","Ist der Ball in der blauen Box?","Green","Blue","F","negation","na","gesture","na","ThumbDown","female","gesture-speech","1422","800","edge-chromium","60.87","Windows 10","22","male","right","Sun Sep 29 2024 17:33:59 GMT+0200 (Mitteleuropäische Sommerzeit)","2","96","0","1727625640376"
"809","j","SpeechGestureMatch","../RequiredFiles/videos/JaDaumenrunter_m.mp4","Ist der Ball in der blauen Box?","Green","Blue","J","affirmation","mismatch","speech","yes","ThumbDown","male","gesture-speech","1422","800","edge-chromium","60.87","Windows 10","22","male","right","Sun Sep 29 2024 17:38:08 GMT+0200 (Mitteleuropäische Sommerzeit)","3","1","0","1727625640376"
"676","f","SpeechGestureMatch","../RequiredFiles/videos/NeinDaumenrunter_m.mp4","Ist der Ball in der grünen Box?","Blue","Green","F","negation","match","speech","no","ThumbDown","male","gesture-speech","1422","800","edge-chromium","60.87","Windows 10","22","male","right","Sun Sep 29 2024 17:38:14 GMT+0200 (Mitteleuropäische Sommerzeit)","3","2","0","1727625640376"
"740","j","SpeechGestureMatch","../RequiredFiles/videos/NeinDaumenrunter_f.mp4","Ist der Ball in der grünen Box?","Green","Blue","J","negation","match","speech","no","ThumbDown","female","gesture-speech","1422","800","edge-chromium","60.87","Windows 10","22","male","right","Sun Sep 29 2024 17:38:20 GMT+0200 (Mitteleuropäische Sommerzeit)","3","3","0","1727625640376"
"756","j","SpeechGestureMatch","../RequiredFiles/videos/NeinDaumenhoch_f.mp4","Ist der Ball in der grünen Box?","Green","Blue","J","negation","mismatch","speech","no","ThumbUp","female","gesture-speech","1422","800","edge-chromium","60.87","Windows 10","22","male","right","Sun Sep 29 2024 17:38:27 GMT+0200 (Mitteleuropäische Sommerzeit)","3","4","0","1727625640376"
"727","j","SpeechGestureMatch","../RequiredFiles/videos/NeinDaumenhoch_f.mp4","Ist der Ball in der blauen Box?","Blue","Green","J","negation","mismatch","speech","no","ThumbUp","female","gesture-speech","1422","800","edge-chromium","60.87","Windows 10","22","male","right","Sun Sep 29 2024 17:38:33 GMT+0200 (Mitteleuropäische Sommerzeit)","3","5","0","1727625640376"
"652","f","SpeechGestureMatch","../RequiredFiles/videos/NeinDaumenrunter_m.mp4","Ist der Ball in der blauen Box?","Green","Blue","F","negation","match","speech","no","ThumbDown","male","gesture-speech","1422","800","edge-chromium","60.87","Windows 10","22","male","right","Sun Sep 29 2024 17:38:39 GMT+0200 (Mitteleuropäische Sommerzeit)","3","6","0","1727625640376"
"574","j","SpeechGestureMatch","../RequiredFiles/videos/JaDaumenhoch_m.mp4","Ist der Ball in der blauen Box?","Blue","Green","F","affirmation","match","speech","yes","ThumbUp","male","gesture-speech","1422","800","edge-chromium","60.87","Windows 10","22","male","right","Sun Sep 29 2024 17:38:45 GMT+0200 (Mitteleuropäische Sommerzeit)","3","7","1","1727625640376"
"719","j","SpeechGestureMatch","../RequiredFiles/videos/JaDaumenhoch_m.mp4","Ist der Ball in der blauen Box?","Green","Blue","J","affirmation","match","speech","yes","ThumbUp","male","gesture-speech","1422","800","edge-chromium","60.87","Windows 10","22","male","right","Sun Sep 29 2024 17:38:51 GMT+0200 (Mitteleuropäische Sommerzeit)","3","8","0","1727625640376"
"579","j","SpeechGestureMatch","../RequiredFiles/videos/JaDaumenrunter_m.mp4","Ist der Ball in der blauen Box?","Blue","Green","F","affirmation","mismatch","speech","yes","ThumbDown","male","gesture-speech","1422","800","edge-chromium","60.87","Windows 10","22","male","right","Sun Sep 29 2024 17:38:58 GMT+0200 (Mitteleuropäische Sommerzeit)","3","9","1","1727625640376"
"659","f","SpeechGestureMatch","../RequiredFiles/videos/JaDaumenhoch_m_no_gesture.mp4","Ist der Ball in der grünen Box?","Green","Blue","F","affirmation","na","speech","yes","na","male","gesture-speech","1422","800","edge-chromium","60.87","Windows 10","22","male","right","Sun Sep 29 2024 17:39:04 GMT+0200 (Mitteleuropäische Sommerzeit)","3","10","0","1727625640376"
"742","f","SpeechGestureMatch","../RequiredFiles/videos/NeinDaumenrunter_f.mp4","Ist der Ball in der grünen Box?","Blue","Green","F","negation","match","speech","no","ThumbDown","female","gesture-speech","1422","800","edge-chromium","60.87","Windows 10","22","male","right","Sun Sep 29 2024 17:39:10 GMT+0200 (Mitteleuropäische Sommerzeit)","3","11","0","1727625640376"
"610","f","SpeechGestureMatch","../RequiredFiles/videos/JaDaumenrunter_f.mp4","Ist der Ball in der blauen Box?","Green","Blue","J","affirmation","mismatch","speech","yes","ThumbDown","female","gesture-speech","1422","800","edge-chromium","60.87","Windows 10","22","male","right","Sun Sep 29 2024 17:39:16 GMT+0200 (Mitteleuropäische Sommerzeit)","3","12","1","1727625640376"
"690","f","SpeechGestureMatch","../RequiredFiles/videos/JaDaumenhoch_f.mp4","Ist der Ball in der blauen Box?","Blue","Green","F","affirmation","match","speech","yes","ThumbUp","female","gesture-speech","1422","800","edge-chromium","60.87","Windows 10","22","male","right","Sun Sep 29 2024 17:39:23 GMT+0200 (Mitteleuropäische Sommerzeit)","3","13","0","1727625640376"
"650","j","SpeechGestureMatch","../RequiredFiles/videos/JaDaumenrunter_f.mp4","Ist der Ball in der grünen Box?","Blue","Green","J","affirmation","mismatch","speech","yes","ThumbDown","female","gesture-speech","1422","800","edge-chromium","60.87","Windows 10","22","male","right","Sun Sep 29 2024 17:39:29 GMT+0200 (Mitteleuropäische Sommerzeit)","3","14","0","1727625640376"
"578","j","SpeechGestureMatch","../RequiredFiles/videos/JaDaumenhoch_m_no_gesture.mp4","Ist der Ball in der blauen Box?","Green","Blue","J","affirmation","na","speech","yes","na","male","gesture-speech","1422","800","edge-chromium","60.87","Windows 10","22","male","right","Sun Sep 29 2024 17:39:35 GMT+0200 (Mitteleuropäische Sommerzeit)","3","15","0","1727625640376"
"737","f","SpeechGestureMatch","../RequiredFiles/videos/NeinDaumenhoch_f.mp4","Ist der Ball in der blauen Box?","Green","Blue","F","negation","mismatch","speech","no","ThumbUp","female","gesture-speech","1422","800","edge-chromium","60.87","Windows 10","22","male","right","Sun Sep 29 2024 17:39:41 GMT+0200 (Mitteleuropäische Sommerzeit)","3","16","0","1727625640376"
"661","j","SpeechGestureMatch","../RequiredFiles/videos/NeinDaumenrunter_m.mp4","Ist der Ball in der blauen Box?","Blue","Green","J","negation","match","speech","no","ThumbDown","male","gesture-speech","1422","800","edge-chromium","60.87","Windows 10","22","male","right","Sun Sep 29 2024 17:39:47 GMT+0200 (Mitteleuropäische Sommerzeit)","3","17","0","1727625640376"
"722","j","SpeechGestureMatch","../RequiredFiles/videos/JaDaumenrunter_m.mp4","Ist der Ball in der grünen Box?","Blue","Green","J","affirmation","mismatch","speech","yes","ThumbDown","male","gesture-speech","1422","800","edge-chromium","60.87","Windows 10","22","male","right","Sun Sep 29 2024 17:39:54 GMT+0200 (Mitteleuropäische Sommerzeit)","3","18","0","1727625640376"
"765","f","SpeechGestureMatch","../RequiredFiles/videos/JaDaumenrunter_f_no_gesture.mp4","Ist der Ball in der grünen Box?","Green","Blue","F","affirmation","na","speech","yes","na","female","gesture-speech","1422","800","edge-chromium","60.87","Windows 10","22","male","right","Sun Sep 29 2024 17:40:00 GMT+0200 (Mitteleuropäische Sommerzeit)","3","19","0","1727625640376"
"618","f","SpeechGestureMatch","../RequiredFiles/videos/JaDaumenhoch_m_no_gesture.mp4","Ist der Ball in der blauen Box?","Blue","Green","F","affirmation","na","speech","yes","na","male","gesture-speech","1422","800","edge-chromium","60.87","Windows 10","22","male","right","Sun Sep 29 2024 17:40:06 GMT+0200 (Mitteleuropäische Sommerzeit)","3","20","0","1727625640376"
"657","f","SpeechGestureMatch","../RequiredFiles/videos/NeinDaumenhoch_f_no_gesture.mp4","Ist der Ball in der grünen Box?","Blue","Green","F","negation","na","speech","no","na","female","gesture-speech","1422","800","edge-chromium","60.87","Windows 10","22","male","right","Sun Sep 29 2024 17:40:12 GMT+0200 (Mitteleuropäische Sommerzeit)","3","21","0","1727625640376"
"588","f","SpeechGestureMatch","../RequiredFiles/videos/NeinDaumenhoch_m.mp4","Ist der Ball in der grünen Box?","Green","Blue","J","negation","mismatch","speech","no","ThumbUp","male","gesture-speech","1422","800","edge-chromium","60.87","Windows 10","22","male","right","Sun Sep 29 2024 17:40:18 GMT+0200 (Mitteleuropäische Sommerzeit)","3","22","1","1727625640376"
"643","f","SpeechGestureMatch","../RequiredFiles/videos/JaDaumenrunter_m_no_gesture.mp4","Ist der Ball in der blauen Box?","Blue","Green","F","affirmation","na","speech","yes","na","male","gesture-speech","1422","800","edge-chromium","60.87","Windows 10","22","male","right","Sun Sep 29 2024 17:40:25 GMT+0200 (Mitteleuropäische Sommerzeit)","3","23","0","1727625640376"
"686","j","SpeechGestureMatch","../RequiredFiles/videos/JaDaumenrunter_f_no_gesture.mp4","Ist der Ball in der blauen Box?","Green","Blue","J","affirmation","na","speech","yes","na","female","gesture-speech","1422","800","edge-chromium","60.87","Windows 10","22","male","right","Sun Sep 29 2024 17:40:31 GMT+0200 (Mitteleuropäische Sommerzeit)","3","24","0","1727625640376"
"723","f","SpeechGestureMatch","../RequiredFiles/videos/NeinDaumenrunter_f.mp4","Ist der Ball in der blauen Box?","Green","Blue","F","negation","match","speech","no","ThumbDown","female","gesture-speech","1422","800","edge-chromium","60.87","Windows 10","22","male","right","Sun Sep 29 2024 17:40:37 GMT+0200 (Mitteleuropäische Sommerzeit)","3","25","0","1727625640376"
"681","j","SpeechGestureMatch","../RequiredFiles/videos/JaDaumenhoch_f.mp4","Ist der Ball in der grünen Box?","Blue","Green","J","affirmation","match","speech","yes","ThumbUp","female","gesture-speech","1422","800","edge-chromium","60.87","Windows 10","22","male","right","Sun Sep 29 2024 17:40:43 GMT+0200 (Mitteleuropäische Sommerzeit)","3","26","0","1727625640376"
"721","f","SpeechGestureMatch","../RequiredFiles/videos/NeinDaumenhoch_f.mp4","Ist der Ball in der blauen Box?","Green","Blue","F","negation","mismatch","speech","no","ThumbUp","female","gesture-speech","1422","800","edge-chromium","60.87","Windows 10","22","male","right","Sun Sep 29 2024 17:40:50 GMT+0200 (Mitteleuropäische Sommerzeit)","3","27","0","1727625640376"
"1850","j","SpeechGestureMatch","../RequiredFiles/videos/NeinDaumenrunter_f_no_gesture.mp4","Ist der Ball in der grünen Box?","Green","Blue","J","negation","na","speech","no","na","female","gesture-speech","1422","800","edge-chromium","60.87","Windows 10","22","male","right","Sun Sep 29 2024 17:40:57 GMT+0200 (Mitteleuropäische Sommerzeit)","3","28","0","1727625640376"
"583","j","SpeechGestureMatch","../RequiredFiles/videos/NeinDaumenrunter_m.mp4","Ist der Ball in der blauen Box?","Green","Blue","F","negation","match","speech","no","ThumbDown","male","gesture-speech","1422","800","edge-chromium","60.87","Windows 10","22","male","right","Sun Sep 29 2024 17:41:03 GMT+0200 (Mitteleuropäische Sommerzeit)","3","29","1","1727625640376"
"680","f","SpeechGestureMatch","../RequiredFiles/videos/NeinDaumenrunter_f.mp4","Ist der Ball in der grünen Box?","Blue","Green","F","negation","match","speech","no","ThumbDown","female","gesture-speech","1422","800","edge-chromium","60.87","Windows 10","22","male","right","Sun Sep 29 2024 17:41:09 GMT+0200 (Mitteleuropäische Sommerzeit)","3","30","0","1727625640376"
"741","f","SpeechGestureMatch","../RequiredFiles/videos/JaDaumenrunter_f.mp4","Ist der Ball in der blauen Box?","Green","Blue","J","affirmation","mismatch","speech","yes","ThumbDown","female","gesture-speech","1422","800","edge-chromium","60.87","Windows 10","22","male","right","Sun Sep 29 2024 17:41:16 GMT+0200 (Mitteleuropäische Sommerzeit)","3","31","1","1727625640376"
"700","f","SpeechGestureMatch","../RequiredFiles/videos/NeinDaumenrunter_f_no_gesture.mp4","Ist der Ball in der blauen Box?","Green","Blue","F","negation","na","speech","no","na","female","gesture-speech","1422","800","edge-chromium","60.87","Windows 10","22","male","right","Sun Sep 29 2024 17:41:22 GMT+0200 (Mitteleuropäische Sommerzeit)","3","32","0","1727625640376"
"565","j","SpeechGestureMatch","../RequiredFiles/videos/JaDaumenhoch_m.mp4","Ist der Ball in der grünen Box?","Blue","Green","J","affirmation","match","speech","yes","ThumbUp","male","gesture-speech","1422","800","edge-chromium","60.87","Windows 10","22","male","right","Sun Sep 29 2024 17:41:28 GMT+0200 (Mitteleuropäische Sommerzeit)","3","33","0","1727625640376"
"835","f","SpeechGestureMatch","../RequiredFiles/videos/JaDaumenhoch_f.mp4","Ist der Ball in der grünen Box?","Green","Blue","F","affirmation","match","speech","yes","ThumbUp","female","gesture-speech","1422","800","edge-chromium","60.87","Windows 10","22","male","right","Sun Sep 29 2024 17:41:34 GMT+0200 (Mitteleuropäische Sommerzeit)","3","34","0","1727625640376"
"602","f","SpeechGestureMatch","../RequiredFiles/videos/JaDaumenhoch_f.mp4","Ist der Ball in der grünen Box?","Green","Blue","F","affirmation","match","speech","yes","ThumbUp","female","gesture-speech","1422","800","edge-chromium","60.87","Windows 10","22","male","right","Sun Sep 29 2024 17:41:40 GMT+0200 (Mitteleuropäische Sommerzeit)","3","35","0","1727625640376"
"719","f","SpeechGestureMatch","../RequiredFiles/videos/JaDaumenrunter_f_no_gesture.mp4","Ist der Ball in der blauen Box?","Blue","Green","F","affirmation","na","speech","yes","na","female","gesture-speech","1422","800","edge-chromium","60.87","Windows 10","22","male","right","Sun Sep 29 2024 17:41:47 GMT+0200 (Mitteleuropäische Sommerzeit)","3","36","0","1727625640376"
"731","f","SpeechGestureMatch","../RequiredFiles/videos/NeinDaumenhoch_f_no_gesture.mp4","Ist der Ball in der blauen Box?","Green","Blue","F","negation","na","speech","no","na","female","gesture-speech","1422","800","edge-chromium","60.87","Windows 10","22","male","right","Sun Sep 29 2024 17:41:53 GMT+0200 (Mitteleuropäische Sommerzeit)","3","37","0","1727625640376"
"633","j","SpeechGestureMatch","../RequiredFiles/videos/JaDaumenhoch_f_no_gesture.mp4","Ist der Ball in der blauen Box?","Green","Blue","J","affirmation","na","speech","yes","na","female","gesture-speech","1422","800","edge-chromium","60.87","Windows 10","22","male","right","Sun Sep 29 2024 17:41:59 GMT+0200 (Mitteleuropäische Sommerzeit)","3","38","0","1727625640376"
"652","f","SpeechGestureMatch","../RequiredFiles/videos/NeinDaumenrunter_f_no_gesture.mp4","Ist der Ball in der grünen Box?","Blue","Green","F","negation","na","speech","no","na","female","gesture-speech","1422","800","edge-chromium","60.87","Windows 10","22","male","right","Sun Sep 29 2024 17:42:05 GMT+0200 (Mitteleuropäische Sommerzeit)","3","39","0","1727625640376"
"648","f","SpeechGestureMatch","../RequiredFiles/videos/JaDaumenhoch_f.mp4","Ist der Ball in der blauen Box?","Blue","Green","F","affirmation","match","speech","yes","ThumbUp","female","gesture-speech","1422","800","edge-chromium","60.87","Windows 10","22","male","right","Sun Sep 29 2024 17:42:12 GMT+0200 (Mitteleuropäische Sommerzeit)","3","40","0","1727625640376"
"639","j","SpeechGestureMatch","../RequiredFiles/videos/NeinDaumenrunter_f.mp4","Ist der Ball in der blauen Box?","Blue","Green","J","negation","match","speech","no","ThumbDown","female","gesture-speech","1422","800","edge-chromium","60.87","Windows 10","22","male","right","Sun Sep 29 2024 17:42:18 GMT+0200 (Mitteleuropäische Sommerzeit)","3","41","0","1727625640376"
"631","j","SpeechGestureMatch","../RequiredFiles/videos/NeinDaumenhoch_m.mp4","Ist der Ball in der blauen Box?","Blue","Green","J","negation","mismatch","speech","no","ThumbUp","male","gesture-speech","1422","800","edge-chromium","60.87","Windows 10","22","male","right","Sun Sep 29 2024 17:42:24 GMT+0200 (Mitteleuropäische Sommerzeit)","3","42","0","1727625640376"
"544","f","SpeechGestureMatch","../RequiredFiles/videos/NeinDaumenrunter_m.mp4","Ist der Ball in der grünen Box?","Blue","Green","F","negation","match","speech","no","ThumbDown","male","gesture-speech","1422","800","edge-chromium","60.87","Windows 10","22","male","right","Sun Sep 29 2024 17:42:30 GMT+0200 (Mitteleuropäische Sommerzeit)","3","43","0","1727625640376"
"553","f","SpeechGestureMatch","../RequiredFiles/videos/NeinDaumenrunter_m_no_gesture.mp4","Ist der Ball in der blauen Box?","Green","Blue","F","negation","na","speech","no","na","male","gesture-speech","1422","800","edge-chromium","60.87","Windows 10","22","male","right","Sun Sep 29 2024 17:42:36 GMT+0200 (Mitteleuropäische Sommerzeit)","3","44","0","1727625640376"
"553","j","SpeechGestureMatch","../RequiredFiles/videos/JaDaumenhoch_m.mp4","Ist der Ball in der grünen Box?","Green","Blue","F","affirmation","match","speech","yes","ThumbUp","male","gesture-speech","1422","800","edge-chromium","60.87","Windows 10","22","male","right","Sun Sep 29 2024 17:42:42 GMT+0200 (Mitteleuropäische Sommerzeit)","3","45","1","1727625640376"
"521","j","SpeechGestureMatch","../RequiredFiles/videos/NeinDaumenhoch_f.mp4","Ist der Ball in der grünen Box?","Green","Blue","J","negation","mismatch","speech","no","ThumbUp","female","gesture-speech","1422","800","edge-chromium","60.87","Windows 10","22","male","right","Sun Sep 29 2024 17:42:48 GMT+0200 (Mitteleuropäische Sommerzeit)","3","46","0","1727625640376"
"517","f","SpeechGestureMatch","../RequiredFiles/videos/JaDaumenhoch_f.mp4","Ist der Ball in der grünen Box?","Blue","Green","J","affirmation","match","speech","yes","ThumbUp","female","gesture-speech","1422","800","edge-chromium","60.87","Windows 10","22","male","right","Sun Sep 29 2024 17:42:54 GMT+0200 (Mitteleuropäische Sommerzeit)","3","47","1","1727625640376"
"601","f","SpeechGestureMatch","../RequiredFiles/videos/NeinDaumenhoch_f.mp4","Ist der Ball in der grünen Box?","Blue","Green","F","negation","mismatch","speech","no","ThumbUp","female","gesture-speech","1422","800","edge-chromium","60.87","Windows 10","22","male","right","Sun Sep 29 2024 17:43:01 GMT+0200 (Mitteleuropäische Sommerzeit)","3","48","0","1727625640376"
"676","f","SpeechGestureMatch","../RequiredFiles/videos/NeinDaumenhoch_m.mp4","Ist der Ball in der grünen Box?","Blue","Green","F","negation","mismatch","speech","no","ThumbUp","male","gesture-speech","1422","800","edge-chromium","60.87","Windows 10","22","male","right","Sun Sep 29 2024 17:43:07 GMT+0200 (Mitteleuropäische Sommerzeit)","3","49","0","1727625640376"
"773","f","SpeechGestureMatch","../RequiredFiles/videos/NeinDaumenrunter_m_no_gesture.mp4","Ist der Ball in der grünen Box?","Blue","Green","F","negation","na","speech","no","na","male","gesture-speech","1422","800","edge-chromium","60.87","Windows 10","22","male","right","Sun Sep 29 2024 17:43:13 GMT+0200 (Mitteleuropäische Sommerzeit)","3","50","0","1727625640376"
"542","j","SpeechGestureMatch","../RequiredFiles/videos/NeinDaumenrunter_m_no_gesture.mp4","Ist der Ball in der blauen Box?","Blue","Green","J","negation","na","speech","no","na","male","gesture-speech","1422","800","edge-chromium","60.87","Windows 10","22","male","right","Sun Sep 29 2024 17:43:19 GMT+0200 (Mitteleuropäische Sommerzeit)","3","51","0","1727625640376"
"700","j","SpeechGestureMatch","../RequiredFiles/videos/NeinDaumenhoch_f_no_gesture.mp4","Ist der Ball in der blauen Box?","Blue","Green","J","negation","na","speech","no","na","female","gesture-speech","1422","800","edge-chromium","60.87","Windows 10","22","male","right","Sun Sep 29 2024 17:43:25 GMT+0200 (Mitteleuropäische Sommerzeit)","3","52","0","1727625640376"
"549","f","SpeechGestureMatch","../RequiredFiles/videos/JaDaumenrunter_m_no_gesture.mp4","Ist der Ball in der grünen Box?","Blue","Green","J","affirmation","na","speech","yes","na","male","gesture-speech","1422","800","edge-chromium","60.87","Windows 10","22","male","right","Sun Sep 29 2024 17:43:32 GMT+0200 (Mitteleuropäische Sommerzeit)","3","53","1","1727625640376"
"703","f","SpeechGestureMatch","../RequiredFiles/videos/NeinDaumenrunter_m_no_gesture.mp4","Ist der Ball in der grünen Box?","Green","Blue","J","negation","na","speech","no","na","male","gesture-speech","1422","800","edge-chromium","60.87","Windows 10","22","male","right","Sun Sep 29 2024 17:43:38 GMT+0200 (Mitteleuropäische Sommerzeit)","3","54","1","1727625640376"
"897","j","SpeechGestureMatch","../RequiredFiles/videos/JaDaumenhoch_m_no_gesture.mp4","Ist der Ball in der grünen Box?","Blue","Green","J","affirmation","na","speech","yes","na","male","gesture-speech","1422","800","edge-chromium","60.87","Windows 10","22","male","right","Sun Sep 29 2024 17:43:44 GMT+0200 (Mitteleuropäische Sommerzeit)","3","55","0","1727625640376"
"703","f","SpeechGestureMatch","../RequiredFiles/videos/NeinDaumenhoch_m.mp4","Ist der Ball in der blauen Box?","Green","Blue","F","negation","mismatch","speech","no","ThumbUp","male","gesture-speech","1422","800","edge-chromium","60.87","Windows 10","22","male","right","Sun Sep 29 2024 17:43:50 GMT+0200 (Mitteleuropäische Sommerzeit)","3","56","0","1727625640376"
"726","j","SpeechGestureMatch","../RequiredFiles/videos/NeinDaumenhoch_f.mp4","Ist der Ball in der blauen Box?","Blue","Green","J","negation","mismatch","speech","no","ThumbUp","female","gesture-speech","1422","800","edge-chromium","60.87","Windows 10","22","male","right","Sun Sep 29 2024 17:43:57 GMT+0200 (Mitteleuropäische Sommerzeit)","3","57","0","1727625640376"
"626","f","SpeechGestureMatch","../RequiredFiles/videos/NeinDaumenhoch_m.mp4","Ist der Ball in der grünen Box?","Blue","Green","F","negation","mismatch","speech","no","ThumbUp","male","gesture-speech","1422","800","edge-chromium","60.87","Windows 10","22","male","right","Sun Sep 29 2024 17:44:03 GMT+0200 (Mitteleuropäische Sommerzeit)","3","58","0","1727625640376"
"622","j","SpeechGestureMatch","../RequiredFiles/videos/NeinDaumenrunter_m.mp4","Ist der Ball in der grünen Box?","Green","Blue","J","negation","match","speech","no","ThumbDown","male","gesture-speech","1422","800","edge-chromium","60.87","Windows 10","22","male","right","Sun Sep 29 2024 17:44:09 GMT+0200 (Mitteleuropäische Sommerzeit)","3","59","0","1727625640376"
"738","f","SpeechGestureMatch","../RequiredFiles/videos/JaDaumenhoch_f_no_gesture.mp4","Ist der Ball in der grünen Box?","Blue","Green","J","affirmation","na","speech","yes","na","female","gesture-speech","1422","800","edge-chromium","60.87","Windows 10","22","male","right","Sun Sep 29 2024 17:44:15 GMT+0200 (Mitteleuropäische Sommerzeit)","3","60","1","1727625640376"
"1571","f","SpeechGestureMatch","../RequiredFiles/videos/NeinDaumenhoch_m_no_gesture.mp4","Ist der Ball in der grünen Box?","Blue","Green","F","negation","na","speech","no","na","male","gesture-speech","1422","800","edge-chromium","60.87","Windows 10","22","male","right","Sun Sep 29 2024 17:44:22 GMT+0200 (Mitteleuropäische Sommerzeit)","3","61","0","1727625640376"
"557","j","SpeechGestureMatch","../RequiredFiles/videos/JaDaumenhoch_f_no_gesture.mp4","Ist der Ball in der grünen Box?","Green","Blue","F","affirmation","na","speech","yes","na","female","gesture-speech","1422","800","edge-chromium","60.87","Windows 10","22","male","right","Sun Sep 29 2024 17:44:29 GMT+0200 (Mitteleuropäische Sommerzeit)","3","62","1","1727625640376"
"792","j","SpeechGestureMatch","../RequiredFiles/videos/JaDaumenhoch_m.mp4","Ist der Ball in der blauen Box?","Green","Blue","J","affirmation","match","speech","yes","ThumbUp","male","gesture-speech","1422","800","edge-chromium","60.87","Windows 10","22","male","right","Sun Sep 29 2024 17:44:35 GMT+0200 (Mitteleuropäische Sommerzeit)","3","63","0","1727625640376"
"570","f","SpeechGestureMatch","../RequiredFiles/videos/JaDaumenrunter_m.mp4","Ist der Ball in der grünen Box?","Green","Blue","F","affirmation","mismatch","speech","yes","ThumbDown","male","gesture-speech","1422","800","edge-chromium","60.87","Windows 10","22","male","right","Sun Sep 29 2024 17:44:41 GMT+0200 (Mitteleuropäische Sommerzeit)","3","64","0","1727625640376"
"629","j","SpeechGestureMatch","../RequiredFiles/videos/NeinDaumenrunter_f.mp4","Ist der Ball in der blauen Box?","Green","Blue","F","negation","match","speech","no","ThumbDown","female","gesture-speech","1422","800","edge-chromium","60.87","Windows 10","22","male","right","Sun Sep 29 2024 17:44:47 GMT+0200 (Mitteleuropäische Sommerzeit)","3","65","1","1727625640376"
"680","j","SpeechGestureMatch","../RequiredFiles/videos/NeinDaumenrunter_f_no_gesture.mp4","Ist der Ball in der blauen Box?","Blue","Green","J","negation","na","speech","no","na","female","gesture-speech","1422","800","edge-chromium","60.87","Windows 10","22","male","right","Sun Sep 29 2024 17:44:53 GMT+0200 (Mitteleuropäische Sommerzeit)","3","66","0","1727625640376"
"730","f","SpeechGestureMatch","../RequiredFiles/videos/JaDaumenhoch_f_no_gesture.mp4","Ist der Ball in der blauen Box?","Blue","Green","F","affirmation","na","speech","yes","na","female","gesture-speech","1422","800","edge-chromium","60.87","Windows 10","22","male","right","Sun Sep 29 2024 17:45:00 GMT+0200 (Mitteleuropäische Sommerzeit)","3","67","0","1727625640376"
"633","f","SpeechGestureMatch","../RequiredFiles/videos/JaDaumenhoch_m.mp4","Ist der Ball in der blauen Box?","Blue","Green","F","affirmation","match","speech","yes","ThumbUp","male","gesture-speech","1422","800","edge-chromium","60.87","Windows 10","22","male","right","Sun Sep 29 2024 17:45:06 GMT+0200 (Mitteleuropäische Sommerzeit)","3","68","0","1727625640376"
"819","f","SpeechGestureMatch","../RequiredFiles/videos/JaDaumenrunter_m_no_gesture.mp4","Ist der Ball in der grünen Box?","Green","Blue","F","affirmation","na","speech","yes","na","male","gesture-speech","1422","800","edge-chromium","60.87","Windows 10","22","male","right","Sun Sep 29 2024 17:45:12 GMT+0200 (Mitteleuropäische Sommerzeit)","3","69","0","1727625640376"
"588","j","SpeechGestureMatch","../RequiredFiles/videos/JaDaumenhoch_m.mp4","Ist der Ball in der grünen Box?","Green","Blue","F","affirmation","match","speech","yes","ThumbUp","male","gesture-speech","1422","800","edge-chromium","60.87","Windows 10","22","male","right","Sun Sep 29 2024 17:45:18 GMT+0200 (Mitteleuropäische Sommerzeit)","3","70","1","1727625640376"
"617","f","SpeechGestureMatch","../RequiredFiles/videos/NeinDaumenhoch_f.mp4","Ist der Ball in der grünen Box?","Blue","Green","F","negation","mismatch","speech","no","ThumbUp","female","gesture-speech","1422","800","edge-chromium","60.87","Windows 10","22","male","right","Sun Sep 29 2024 17:45:25 GMT+0200 (Mitteleuropäische Sommerzeit)","3","71","0","1727625640376"
"508","j","SpeechGestureMatch","../RequiredFiles/videos/NeinDaumenrunter_f.mp4","Ist der Ball in der grünen Box?","Green","Blue","J","negation","match","speech","no","ThumbDown","female","gesture-speech","1422","800","edge-chromium","60.87","Windows 10","22","male","right","Sun Sep 29 2024 17:45:31 GMT+0200 (Mitteleuropäische Sommerzeit)","3","72","0","1727625640376"
"633","f","SpeechGestureMatch","../RequiredFiles/videos/JaDaumenrunter_m.mp4","Ist der Ball in der grünen Box?","Blue","Green","J","affirmation","mismatch","speech","yes","ThumbDown","male","gesture-speech","1422","800","edge-chromium","60.87","Windows 10","22","male","right","Sun Sep 29 2024 17:45:37 GMT+0200 (Mitteleuropäische Sommerzeit)","3","73","1","1727625640376"
"610","j","SpeechGestureMatch","../RequiredFiles/videos/JaDaumenhoch_f.mp4","Ist der Ball in der blauen Box?","Green","Blue","J","affirmation","match","speech","yes","ThumbUp","female","gesture-speech","1422","800","edge-chromium","60.87","Windows 10","22","male","right","Sun Sep 29 2024 17:45:43 GMT+0200 (Mitteleuropäische Sommerzeit)","3","74","0","1727625640376"
"737","f","SpeechGestureMatch","../RequiredFiles/videos/JaDaumenrunter_m.mp4","Ist der Ball in der grünen Box?","Green","Blue","F","affirmation","mismatch","speech","yes","ThumbDown","male","gesture-speech","1422","800","edge-chromium","60.87","Windows 10","22","male","right","Sun Sep 29 2024 17:45:49 GMT+0200 (Mitteleuropäische Sommerzeit)","3","75","0","1727625640376"
