"rt","response","stim","video","question","box_colour_left","box_colour_right","correct_key","polarity","matching","modality","verbal","gesture","speaker","order","width","height","browser","vsync_rate","os","age","gender","handedness","date","blockNum","trialNum","error","vpNum"
"1131","j","SpeechGestureMatch","../RequiredFiles/videos/JaKopfJa_m.mp4","Ist der Ball in der blauen Box?","Green","Blue","J","affirmation","match","gesture","yes","ThumbUp","male","gesture-speech","1920","1200","firefox","61.35","Linux","26","male","right","Thu Aug 29 2024 09:26:16 GMT+0200 (Central European Summer Time)","1","1","0","1724918814468"
"1114","j","SpeechGestureMatch","../RequiredFiles/videos/NeinKopfJa_f.mp4","Ist der Ball in der blauen Box?","Green","Blue","J","affirmation","mismatch","gesture","no","ThumbUp","female","gesture-speech","1920","1200","firefox","61.35","Linux","26","male","right","Thu Aug 29 2024 09:26:23 GMT+0200 (Central European Summer Time)","1","2","0","1724918814468"
"1608","j","SpeechGestureMatch","../RequiredFiles/videos/NeinKopfNein_f.mp4","Ist der Ball in der blauen Box?","Blue","Green","J","negation","match","gesture","no","ThumbDown","female","gesture-speech","1920","1200","firefox","61.35","Linux","26","male","right","Thu Aug 29 2024 09:26:30 GMT+0200 (Central European Summer Time)","1","3","0","1724918814468"
"948","f","SpeechGestureMatch","../RequiredFiles/videos/NeinKopfNein_f.mp4","Ist der Ball in der grünen Box?","Green","Blue","J","negation","match","gesture","no","ThumbDown","female","gesture-speech","1920","1200","firefox","61.35","Linux","26","male","right","Thu Aug 29 2024 09:26:36 GMT+0200 (Central European Summer Time)","1","4","1","1724918814468"
"972","f","SpeechGestureMatch","../RequiredFiles/videos/JaKopfJa_f.mp4","Ist der Ball in der blauen Box?","Blue","Green","F","affirmation","match","gesture","yes","ThumbUp","female","gesture-speech","1920","1200","firefox","61.35","Linux","26","male","right","Thu Aug 29 2024 09:26:43 GMT+0200 (Central European Summer Time)","1","5","0","1724918814468"
"1127","f","SpeechGestureMatch","../RequiredFiles/videos/NeinKopfNein_m.mp4","Ist der Ball in der grünen Box?","Blue","Green","F","negation","match","gesture","no","ThumbDown","male","gesture-speech","1920","1200","firefox","61.35","Linux","26","male","right","Thu Aug 29 2024 09:26:50 GMT+0200 (Central European Summer Time)","1","6","0","1724918814468"
"1726","j","SpeechGestureMatch","../RequiredFiles/videos/JaKopfNein_f.mp4","Ist der Ball in der grünen Box?","Blue","Green","F","negation","mismatch","gesture","yes","ThumbDown","female","gesture-speech","1920","1200","firefox","61.35","Linux","26","male","right","Thu Aug 29 2024 09:26:57 GMT+0200 (Central European Summer Time)","1","7","1","1724918814468"
"1351","f","SpeechGestureMatch","../RequiredFiles/videos/JaKopfNein_m.mp4","Ist der Ball in der grünen Box?","Blue","Green","F","negation","mismatch","gesture","yes","ThumbDown","male","gesture-speech","1920","1200","firefox","61.35","Linux","26","male","right","Thu Aug 29 2024 09:27:04 GMT+0200 (Central European Summer Time)","1","8","0","1724918814468"
"1658","j","SpeechGestureMatch","../RequiredFiles/videos/NeinKopfJa_m.mp4","Ist der Ball in der blauen Box?","Blue","Green","F","affirmation","mismatch","gesture","no","ThumbUp","male","gesture-speech","1920","1200","firefox","61.35","Linux","26","male","right","Thu Aug 29 2024 09:27:11 GMT+0200 (Central European Summer Time)","1","9","1","1724918814468"
"1304","f","SpeechGestureMatch","../RequiredFiles/videos/JaKopfJa_f.mp4","Ist der Ball in der grünen Box?","Green","Blue","F","affirmation","match","gesture","yes","ThumbUp","female","gesture-speech","1920","1200","firefox","61.35","Linux","26","male","right","Thu Aug 29 2024 09:27:18 GMT+0200 (Central European Summer Time)","1","10","0","1724918814468"
"4642","f","SpeechGestureMatch","../RequiredFiles/videos/NeinKopfJa_f.mp4","Ist der Ball in der grünen Box?","Green","Blue","F","affirmation","mismatch","gesture","no","ThumbUp","female","gesture-speech","1920","1200","firefox","61.35","Linux","26","male","right","Thu Aug 29 2024 09:27:28 GMT+0200 (Central European Summer Time)","1","11","0","1724918814468"
"1079","j","SpeechGestureMatch","../RequiredFiles/videos/NeinKopfNein_m.mp4","Ist der Ball in der blauen Box?","Blue","Green","J","negation","match","gesture","no","ThumbDown","male","gesture-speech","1920","1200","firefox","61.35","Linux","26","male","right","Thu Aug 29 2024 09:27:34 GMT+0200 (Central European Summer Time)","1","12","0","1724918814468"
"1169","f","SpeechGestureMatch","../RequiredFiles/videos/JaKopfJa_m.mp4","Ist der Ball in der grünen Box?","Blue","Green","J","affirmation","match","gesture","yes","ThumbUp","male","gesture-speech","1920","1200","firefox","61.35","Linux","26","male","right","Thu Aug 29 2024 09:27:41 GMT+0200 (Central European Summer Time)","1","13","1","1724918814468"
"1483","f","SpeechGestureMatch","../RequiredFiles/videos/NeinKopfJa_m.mp4","Ist der Ball in der grünen Box?","Green","Blue","F","affirmation","mismatch","gesture","no","ThumbUp","male","gesture-speech","1920","1200","firefox","61.35","Linux","26","male","right","Thu Aug 29 2024 09:27:48 GMT+0200 (Central European Summer Time)","1","14","0","1724918814468"
"1155","f","SpeechGestureMatch","../RequiredFiles/videos/NeinKopfNein_f.mp4","Ist der Ball in der grünen Box?","Blue","Green","F","negation","match","gesture","no","ThumbDown","female","gesture-speech","1920","1200","firefox","61.35","Linux","26","male","right","Thu Aug 29 2024 09:27:55 GMT+0200 (Central European Summer Time)","1","15","0","1724918814468"
"1302","j","SpeechGestureMatch","../RequiredFiles/videos/NeinKopfNein_m.mp4","Ist der Ball in der blauen Box?","Green","Blue","F","negation","match","gesture","no","ThumbDown","male","gesture-speech","1920","1200","firefox","61.35","Linux","26","male","right","Thu Aug 29 2024 09:28:02 GMT+0200 (Central European Summer Time)","1","16","1","1724918814468"
"1057","j","SpeechGestureMatch","../RequiredFiles/videos/NeinKopfJa_m.mp4","Ist der Ball in der blauen Box?","Green","Blue","J","affirmation","mismatch","gesture","no","ThumbUp","male","gesture-speech","1920","1200","firefox","61.35","Linux","26","male","right","Thu Aug 29 2024 09:28:08 GMT+0200 (Central European Summer Time)","1","17","0","1724918814468"
"1346","j","SpeechGestureMatch","../RequiredFiles/videos/NeinKopfNein_f.mp4","Ist der Ball in der blauen Box?","Blue","Green","J","negation","match","gesture","no","ThumbDown","female","gesture-speech","1920","1200","firefox","61.35","Linux","26","male","right","Thu Aug 29 2024 09:28:15 GMT+0200 (Central European Summer Time)","1","18","0","1724918814468"
"948","j","SpeechGestureMatch","../RequiredFiles/videos/NeinKopfJa_f.mp4","Ist der Ball in der grünen Box?","Blue","Green","J","affirmation","mismatch","gesture","no","ThumbUp","female","gesture-speech","1920","1200","firefox","61.35","Linux","26","male","right","Thu Aug 29 2024 09:28:22 GMT+0200 (Central European Summer Time)","1","19","0","1724918814468"
"959","f","SpeechGestureMatch","../RequiredFiles/videos/JaKopfJa_f.mp4","Ist der Ball in der grünen Box?","Green","Blue","F","affirmation","match","gesture","yes","ThumbUp","female","gesture-speech","1920","1200","firefox","61.35","Linux","26","male","right","Thu Aug 29 2024 09:28:28 GMT+0200 (Central European Summer Time)","1","20","0","1724918814468"
"1339","f","SpeechGestureMatch","../RequiredFiles/videos/JaKopfNein_m.mp4","Ist der Ball in der grünen Box?","Green","Blue","J","negation","mismatch","gesture","yes","ThumbDown","male","gesture-speech","1920","1200","firefox","61.35","Linux","26","male","right","Thu Aug 29 2024 09:28:35 GMT+0200 (Central European Summer Time)","1","21","1","1724918814468"
"851","j","SpeechGestureMatch","../RequiredFiles/videos/JaKopfJa_f.mp4","Ist der Ball in der blauen Box?","Green","Blue","J","affirmation","match","gesture","yes","ThumbUp","female","gesture-speech","1920","1200","firefox","61.35","Linux","26","male","right","Thu Aug 29 2024 09:28:42 GMT+0200 (Central European Summer Time)","1","22","0","1724918814468"
"1098","f","SpeechGestureMatch","../RequiredFiles/videos/JaKopfNein_m.mp4","Ist der Ball in der blauen Box?","Blue","Green","J","negation","mismatch","gesture","yes","ThumbDown","male","gesture-speech","1920","1200","firefox","61.35","Linux","26","male","right","Thu Aug 29 2024 09:28:48 GMT+0200 (Central European Summer Time)","1","23","1","1724918814468"
"1264","j","SpeechGestureMatch","../RequiredFiles/videos/NeinKopfJa_f.mp4","Ist der Ball in der blauen Box?","Green","Blue","J","affirmation","mismatch","gesture","no","ThumbUp","female","gesture-speech","1920","1200","firefox","61.35","Linux","26","male","right","Thu Aug 29 2024 09:28:55 GMT+0200 (Central European Summer Time)","1","24","0","1724918814468"
"1626","f","SpeechGestureMatch","../RequiredFiles/videos/NeinKopfNein_m.mp4","Ist der Ball in der blauen Box?","Blue","Green","J","negation","match","gesture","no","ThumbDown","male","gesture-speech","1920","1200","firefox","61.35","Linux","26","male","right","Thu Aug 29 2024 09:29:02 GMT+0200 (Central European Summer Time)","1","25","1","1724918814468"
"1255","f","SpeechGestureMatch","../RequiredFiles/videos/JaKopfJa_m.mp4","Ist der Ball in der blauen Box?","Blue","Green","F","affirmation","match","gesture","yes","ThumbUp","male","gesture-speech","1920","1200","firefox","61.35","Linux","26","male","right","Thu Aug 29 2024 09:29:09 GMT+0200 (Central European Summer Time)","1","26","0","1724918814468"
"1274","j","SpeechGestureMatch","../RequiredFiles/videos/NeinKopfNein_f.mp4","Ist der Ball in der grünen Box?","Green","Blue","J","negation","match","gesture","no","ThumbDown","female","gesture-speech","1920","1200","firefox","61.35","Linux","26","male","right","Thu Aug 29 2024 09:29:16 GMT+0200 (Central European Summer Time)","1","27","0","1724918814468"
"1210","j","SpeechGestureMatch","../RequiredFiles/videos/JaKopfJa_m.mp4","Ist der Ball in der grünen Box?","Green","Blue","F","affirmation","match","gesture","yes","ThumbUp","male","gesture-speech","1920","1200","firefox","61.35","Linux","26","male","right","Thu Aug 29 2024 09:29:23 GMT+0200 (Central European Summer Time)","1","28","1","1724918814468"
"1112","j","SpeechGestureMatch","../RequiredFiles/videos/JaKopfNein_f.mp4","Ist der Ball in der blauen Box?","Blue","Green","J","negation","mismatch","gesture","yes","ThumbDown","female","gesture-speech","1920","1200","firefox","61.35","Linux","26","male","right","Thu Aug 29 2024 09:29:29 GMT+0200 (Central European Summer Time)","1","29","0","1724918814468"
"1465","f","SpeechGestureMatch","../RequiredFiles/videos/NeinKopfJa_m.mp4","Ist der Ball in der grünen Box?","Blue","Green","J","affirmation","mismatch","gesture","no","ThumbUp","male","gesture-speech","1920","1200","firefox","61.35","Linux","26","male","right","Thu Aug 29 2024 09:29:36 GMT+0200 (Central European Summer Time)","1","30","1","1724918814468"
"2003","f","SpeechGestureMatch","../RequiredFiles/videos/NeinKopfJa_f.mp4","Ist der Ball in der grünen Box?","Blue","Green","J","affirmation","mismatch","gesture","no","ThumbUp","female","gesture-speech","1920","1200","firefox","61.35","Linux","26","male","right","Thu Aug 29 2024 09:29:44 GMT+0200 (Central European Summer Time)","1","31","1","1724918814468"
"2807","j","SpeechGestureMatch","../RequiredFiles/videos/NeinKopfJa_m.mp4","Ist der Ball in der grünen Box?","Blue","Green","J","affirmation","mismatch","gesture","no","ThumbUp","male","gesture-speech","1920","1200","firefox","61.35","Linux","26","male","right","Thu Aug 29 2024 09:29:52 GMT+0200 (Central European Summer Time)","1","32","0","1724918814468"
"1096","j","SpeechGestureMatch","../RequiredFiles/videos/JaKopfNein_f.mp4","Ist der Ball in der grünen Box?","Green","Blue","J","negation","mismatch","gesture","yes","ThumbDown","female","gesture-speech","1920","1200","firefox","61.35","Linux","26","male","right","Thu Aug 29 2024 09:29:59 GMT+0200 (Central European Summer Time)","1","33","0","1724918814468"
"2209","f","SpeechGestureMatch","../RequiredFiles/videos/JaKopfNein_m.mp4","Ist der Ball in der grünen Box?","Green","Blue","J","negation","mismatch","gesture","yes","ThumbDown","male","gesture-speech","1920","1200","firefox","61.35","Linux","26","male","right","Thu Aug 29 2024 09:30:07 GMT+0200 (Central European Summer Time)","1","34","1","1724918814468"
"1474","f","SpeechGestureMatch","../RequiredFiles/videos/JaKopfNein_m.mp4","Ist der Ball in der blauen Box?","Blue","Green","J","negation","mismatch","gesture","yes","ThumbDown","male","gesture-speech","1920","1200","firefox","61.35","Linux","26","male","right","Thu Aug 29 2024 09:30:14 GMT+0200 (Central European Summer Time)","1","35","1","1724918814468"
"1431","f","SpeechGestureMatch","../RequiredFiles/videos/JaKopfJa_m.mp4","Ist der Ball in der blauen Box?","Blue","Green","F","affirmation","match","gesture","yes","ThumbUp","male","gesture-speech","1920","1200","firefox","61.35","Linux","26","male","right","Thu Aug 29 2024 09:30:21 GMT+0200 (Central European Summer Time)","1","36","0","1724918814468"
"1193","j","SpeechGestureMatch","../RequiredFiles/videos/JaKopfNein_m.mp4","Ist der Ball in der blauen Box?","Green","Blue","F","negation","mismatch","gesture","yes","ThumbDown","male","gesture-speech","1920","1200","firefox","61.35","Linux","26","male","right","Thu Aug 29 2024 09:30:27 GMT+0200 (Central European Summer Time)","1","37","1","1724918814468"
"1344","f","SpeechGestureMatch","../RequiredFiles/videos/NeinKopfJa_m.mp4","Ist der Ball in der grünen Box?","Green","Blue","F","affirmation","mismatch","gesture","no","ThumbUp","male","gesture-speech","1920","1200","firefox","61.35","Linux","26","male","right","Thu Aug 29 2024 09:30:34 GMT+0200 (Central European Summer Time)","1","38","0","1724918814468"
"1361","j","SpeechGestureMatch","../RequiredFiles/videos/JaKopfNein_m.mp4","Ist der Ball in der blauen Box?","Green","Blue","F","negation","mismatch","gesture","yes","ThumbDown","male","gesture-speech","1920","1200","firefox","61.35","Linux","26","male","right","Thu Aug 29 2024 09:30:41 GMT+0200 (Central European Summer Time)","1","39","1","1724918814468"
"2061","f","SpeechGestureMatch","../RequiredFiles/videos/JaKopfNein_m.mp4","Ist der Ball in der grünen Box?","Blue","Green","F","negation","mismatch","gesture","yes","ThumbDown","male","gesture-speech","1920","1200","firefox","61.35","Linux","26","male","right","Thu Aug 29 2024 09:30:49 GMT+0200 (Central European Summer Time)","1","40","0","1724918814468"
"1192","j","SpeechGestureMatch","../RequiredFiles/videos/JaKopfJa_f.mp4","Ist der Ball in der grünen Box?","Blue","Green","J","affirmation","match","gesture","yes","ThumbUp","female","gesture-speech","1920","1200","firefox","61.35","Linux","26","male","right","Thu Aug 29 2024 09:30:55 GMT+0200 (Central European Summer Time)","1","41","0","1724918814468"
"1839","f","SpeechGestureMatch","../RequiredFiles/videos/NeinKopfJa_f.mp4","Ist der Ball in der grünen Box?","Green","Blue","F","affirmation","mismatch","gesture","no","ThumbUp","female","gesture-speech","1920","1200","firefox","61.35","Linux","26","male","right","Thu Aug 29 2024 09:31:03 GMT+0200 (Central European Summer Time)","1","42","0","1724918814468"
"2014","f","SpeechGestureMatch","../RequiredFiles/videos/NeinKopfJa_f.mp4","Ist der Ball in der blauen Box?","Blue","Green","F","affirmation","mismatch","gesture","no","ThumbUp","female","gesture-speech","1920","1200","firefox","61.35","Linux","26","male","right","Thu Aug 29 2024 09:31:10 GMT+0200 (Central European Summer Time)","1","43","0","1724918814468"
"1346","f","SpeechGestureMatch","../RequiredFiles/videos/JaKopfJa_m.mp4","Ist der Ball in der grünen Box?","Green","Blue","F","affirmation","match","gesture","yes","ThumbUp","male","gesture-speech","1920","1200","firefox","61.35","Linux","26","male","right","Thu Aug 29 2024 09:31:17 GMT+0200 (Central European Summer Time)","1","44","0","1724918814468"
"2027","f","SpeechGestureMatch","../RequiredFiles/videos/JaKopfNein_f.mp4","Ist der Ball in der blauen Box?","Green","Blue","F","negation","mismatch","gesture","yes","ThumbDown","female","gesture-speech","1920","1200","firefox","61.35","Linux","26","male","right","Thu Aug 29 2024 09:31:25 GMT+0200 (Central European Summer Time)","1","45","0","1724918814468"
"2618","j","SpeechGestureMatch","../RequiredFiles/videos/NeinKopfNein_m.mp4","Ist der Ball in der grünen Box?","Green","Blue","J","negation","match","gesture","no","ThumbDown","male","gesture-speech","1920","1200","firefox","61.35","Linux","26","male","right","Thu Aug 29 2024 09:31:33 GMT+0200 (Central European Summer Time)","1","46","0","1724918814468"
"2095","j","SpeechGestureMatch","../RequiredFiles/videos/JaKopfNein_f.mp4","Ist der Ball in der blauen Box?","Green","Blue","F","negation","mismatch","gesture","yes","ThumbDown","female","gesture-speech","1920","1200","firefox","61.35","Linux","26","male","right","Thu Aug 29 2024 09:31:41 GMT+0200 (Central European Summer Time)","1","47","1","1724918814468"
"3224","j","SpeechGestureMatch","../RequiredFiles/videos/NeinKopfJa_m.mp4","Ist der Ball in der blauen Box?","Blue","Green","F","affirmation","mismatch","gesture","no","ThumbUp","male","gesture-speech","1920","1200","firefox","61.35","Linux","26","male","right","Thu Aug 29 2024 09:31:49 GMT+0200 (Central European Summer Time)","1","48","1","1724918814468"
"1244","f","SpeechGestureMatch","../RequiredFiles/videos/NeinKopfNein_m.mp4","Ist der Ball in der grünen Box?","Green","Blue","J","negation","match","gesture","no","ThumbDown","male","gesture-speech","1920","1200","firefox","61.35","Linux","26","male","right","Thu Aug 29 2024 09:31:56 GMT+0200 (Central European Summer Time)","1","49","1","1724918814468"
"1568","f","SpeechGestureMatch","../RequiredFiles/videos/NeinKopfNein_m.mp4","Ist der Ball in der grünen Box?","Blue","Green","F","negation","match","gesture","no","ThumbDown","male","gesture-speech","1920","1200","firefox","61.35","Linux","26","male","right","Thu Aug 29 2024 09:32:03 GMT+0200 (Central European Summer Time)","1","50","0","1724918814468"
"1479","f","SpeechGestureMatch","../RequiredFiles/videos/JaKopfNein_f.mp4","Ist der Ball in der grünen Box?","Green","Blue","J","negation","mismatch","gesture","yes","ThumbDown","female","gesture-speech","1920","1200","firefox","61.35","Linux","26","male","right","Thu Aug 29 2024 09:32:10 GMT+0200 (Central European Summer Time)","1","51","1","1724918814468"
"1899","j","SpeechGestureMatch","../RequiredFiles/videos/NeinKopfNein_f.mp4","Ist der Ball in der blauen Box?","Green","Blue","F","negation","match","gesture","no","ThumbDown","female","gesture-speech","1920","1200","firefox","61.35","Linux","26","male","right","Thu Aug 29 2024 09:32:18 GMT+0200 (Central European Summer Time)","1","52","1","1724918814468"
"1188","j","SpeechGestureMatch","../RequiredFiles/videos/NeinKopfNein_f.mp4","Ist der Ball in der blauen Box?","Green","Blue","F","negation","match","gesture","no","ThumbDown","female","gesture-speech","1920","1200","firefox","61.35","Linux","26","male","right","Thu Aug 29 2024 09:32:24 GMT+0200 (Central European Summer Time)","1","53","1","1724918814468"
"1490","j","SpeechGestureMatch","../RequiredFiles/videos/JaKopfJa_f.mp4","Ist der Ball in der blauen Box?","Green","Blue","J","affirmation","match","gesture","yes","ThumbUp","female","gesture-speech","1920","1200","firefox","61.35","Linux","26","male","right","Thu Aug 29 2024 09:32:31 GMT+0200 (Central European Summer Time)","1","54","0","1724918814468"
"3747","j","SpeechGestureMatch","../RequiredFiles/videos/NeinKopfNein_f.mp4","Ist der Ball in der grünen Box?","Blue","Green","F","negation","match","gesture","no","ThumbDown","female","gesture-speech","1920","1200","firefox","61.35","Linux","26","male","right","Thu Aug 29 2024 09:32:41 GMT+0200 (Central European Summer Time)","1","55","1","1724918814468"
"1176","j","SpeechGestureMatch","../RequiredFiles/videos/JaKopfJa_m.mp4","Ist der Ball in der blauen Box?","Green","Blue","J","affirmation","match","gesture","yes","ThumbUp","male","gesture-speech","1920","1200","firefox","61.35","Linux","26","male","right","Thu Aug 29 2024 09:32:47 GMT+0200 (Central European Summer Time)","1","56","0","1724918814468"
"1345","f","SpeechGestureMatch","../RequiredFiles/videos/NeinKopfNein_m.mp4","Ist der Ball in der blauen Box?","Green","Blue","F","negation","match","gesture","no","ThumbDown","male","gesture-speech","1920","1200","firefox","61.35","Linux","26","male","right","Thu Aug 29 2024 09:32:54 GMT+0200 (Central European Summer Time)","1","57","0","1724918814468"
"1041","f","SpeechGestureMatch","../RequiredFiles/videos/NeinKopfJa_f.mp4","Ist der Ball in der blauen Box?","Blue","Green","F","affirmation","mismatch","gesture","no","ThumbUp","female","gesture-speech","1920","1200","firefox","61.35","Linux","26","male","right","Thu Aug 29 2024 09:33:01 GMT+0200 (Central European Summer Time)","1","58","0","1724918814468"
"932","j","SpeechGestureMatch","../RequiredFiles/videos/NeinKopfJa_m.mp4","Ist der Ball in der blauen Box?","Green","Blue","J","affirmation","mismatch","gesture","no","ThumbUp","male","gesture-speech","1920","1200","firefox","61.35","Linux","26","male","right","Thu Aug 29 2024 09:33:08 GMT+0200 (Central European Summer Time)","1","59","0","1724918814468"
"1776","j","SpeechGestureMatch","../RequiredFiles/videos/JaKopfNein_f.mp4","Ist der Ball in der grünen Box?","Blue","Green","F","negation","mismatch","gesture","yes","ThumbDown","female","gesture-speech","1920","1200","firefox","61.35","Linux","26","male","right","Thu Aug 29 2024 09:33:15 GMT+0200 (Central European Summer Time)","1","60","1","1724918814468"
"895","f","SpeechGestureMatch","../RequiredFiles/videos/JaKopfJa_m.mp4","Ist der Ball in der grünen Box?","Blue","Green","J","affirmation","match","gesture","yes","ThumbUp","male","gesture-speech","1920","1200","firefox","61.35","Linux","26","male","right","Thu Aug 29 2024 09:33:21 GMT+0200 (Central European Summer Time)","1","61","1","1724918814468"
"833","j","SpeechGestureMatch","../RequiredFiles/videos/JaKopfJa_f.mp4","Ist der Ball in der grünen Box?","Blue","Green","J","affirmation","match","gesture","yes","ThumbUp","female","gesture-speech","1920","1200","firefox","61.35","Linux","26","male","right","Thu Aug 29 2024 09:33:28 GMT+0200 (Central European Summer Time)","1","62","0","1724918814468"
"1101","f","SpeechGestureMatch","../RequiredFiles/videos/JaKopfNein_f.mp4","Ist der Ball in der blauen Box?","Blue","Green","J","negation","mismatch","gesture","yes","ThumbDown","female","gesture-speech","1920","1200","firefox","61.35","Linux","26","male","right","Thu Aug 29 2024 09:33:35 GMT+0200 (Central European Summer Time)","1","63","1","1724918814468"
"1240","f","SpeechGestureMatch","../RequiredFiles/videos/JaKopfJa_f.mp4","Ist der Ball in der blauen Box?","Blue","Green","F","affirmation","match","gesture","yes","ThumbUp","female","gesture-speech","1920","1200","firefox","61.35","Linux","26","male","right","Thu Aug 29 2024 09:33:41 GMT+0200 (Central European Summer Time)","1","64","0","1724918814468"
"1318","f","SpeechGestureMatch","../RequiredFiles/videos/NeinKopfNein_m.mp4","Ist der Ball in der blauen Box?","Green","Blue","F","negation","match","gesture","no","ThumbDown","male","gesture-speech","1920","1200","firefox","61.35","Linux","26","male","right","Thu Aug 29 2024 09:35:15 GMT+0200 (Central European Summer Time)","2","1","0","1724918814468"
"1039","j","SpeechGestureMatch","../RequiredFiles/videos/NeinKopfJa_f.mp4","Ist der Ball in der blauen Box?","Blue","Green","F","affirmation","mismatch","gesture","no","ThumbUp","female","gesture-speech","1920","1200","firefox","61.35","Linux","26","male","right","Thu Aug 29 2024 09:35:21 GMT+0200 (Central European Summer Time)","2","2","1","1724918814468"
"2030","j","SpeechGestureMatch","../RequiredFiles/videos/NeinKopfNein_m.mp4","Ist der Ball in der grünen Box?","Green","Blue","J","negation","match","gesture","no","ThumbDown","male","gesture-speech","1920","1200","firefox","61.35","Linux","26","male","right","Thu Aug 29 2024 09:35:29 GMT+0200 (Central European Summer Time)","2","3","0","1724918814468"
"826","f","SpeechGestureMatch","../RequiredFiles/videos/JaKopfNein_f.mp4","Ist der Ball in der grünen Box?","Blue","Green","F","negation","mismatch","gesture","yes","ThumbDown","female","gesture-speech","1920","1200","firefox","61.35","Linux","26","male","right","Thu Aug 29 2024 09:35:35 GMT+0200 (Central European Summer Time)","2","4","0","1724918814468"
"693","f","SpeechGestureMatch","../RequiredFiles/videos/JaKopfJa_f.mp4","Ist der Ball in der grünen Box?","Green","Blue","F","affirmation","match","gesture","yes","ThumbUp","female","gesture-speech","1920","1200","firefox","61.35","Linux","26","male","right","Thu Aug 29 2024 09:35:41 GMT+0200 (Central European Summer Time)","2","5","0","1724918814468"
"854","f","SpeechGestureMatch","../RequiredFiles/videos/JaKopfNein_f.mp4","Ist der Ball in der blauen Box?","Green","Blue","F","negation","mismatch","gesture","yes","ThumbDown","female","gesture-speech","1920","1200","firefox","61.35","Linux","26","male","right","Thu Aug 29 2024 09:35:48 GMT+0200 (Central European Summer Time)","2","6","0","1724918814468"
"1318","j","SpeechGestureMatch","../RequiredFiles/videos/JaKopfNein_f.mp4","Ist der Ball in der grünen Box?","Green","Blue","J","negation","mismatch","gesture","yes","ThumbDown","female","gesture-speech","1920","1200","firefox","61.35","Linux","26","male","right","Thu Aug 29 2024 09:35:54 GMT+0200 (Central European Summer Time)","2","7","0","1724918814468"
"934","f","SpeechGestureMatch","../RequiredFiles/videos/NeinKopfJa_m.mp4","Ist der Ball in der blauen Box?","Green","Blue","J","affirmation","mismatch","gesture","no","ThumbUp","male","gesture-speech","1920","1200","firefox","61.35","Linux","26","male","right","Thu Aug 29 2024 09:36:01 GMT+0200 (Central European Summer Time)","2","8","1","1724918814468"
"931","j","SpeechGestureMatch","../RequiredFiles/videos/JaKopfJa_m.mp4","Ist der Ball in der grünen Box?","Blue","Green","J","affirmation","match","gesture","yes","ThumbUp","male","gesture-speech","1920","1200","firefox","61.35","Linux","26","male","right","Thu Aug 29 2024 09:36:08 GMT+0200 (Central European Summer Time)","2","9","0","1724918814468"
"809","j","SpeechGestureMatch","../RequiredFiles/videos/JaKopfJa_f.mp4","Ist der Ball in der grünen Box?","Blue","Green","J","affirmation","match","gesture","yes","ThumbUp","female","gesture-speech","1920","1200","firefox","61.35","Linux","26","male","right","Thu Aug 29 2024 09:36:14 GMT+0200 (Central European Summer Time)","2","10","0","1724918814468"
"1220","f","SpeechGestureMatch","../RequiredFiles/videos/JaKopfNein_m.mp4","Ist der Ball in der grünen Box?","Green","Blue","J","negation","mismatch","gesture","yes","ThumbDown","male","gesture-speech","1920","1200","firefox","61.35","Linux","26","male","right","Thu Aug 29 2024 09:36:21 GMT+0200 (Central European Summer Time)","2","11","1","1724918814468"
"1375","j","SpeechGestureMatch","../RequiredFiles/videos/JaKopfNein_m.mp4","Ist der Ball in der blauen Box?","Blue","Green","J","negation","mismatch","gesture","yes","ThumbDown","male","gesture-speech","1920","1200","firefox","61.35","Linux","26","male","right","Thu Aug 29 2024 09:36:28 GMT+0200 (Central European Summer Time)","2","12","0","1724918814468"
"925","f","SpeechGestureMatch","../RequiredFiles/videos/NeinKopfJa_f.mp4","Ist der Ball in der grünen Box?","Green","Blue","F","affirmation","mismatch","gesture","no","ThumbUp","female","gesture-speech","1920","1200","firefox","61.35","Linux","26","male","right","Thu Aug 29 2024 09:36:34 GMT+0200 (Central European Summer Time)","2","13","0","1724918814468"
"916","j","SpeechGestureMatch","../RequiredFiles/videos/NeinKopfNein_m.mp4","Ist der Ball in der grünen Box?","Blue","Green","F","negation","match","gesture","no","ThumbDown","male","gesture-speech","1920","1200","firefox","61.35","Linux","26","male","right","Thu Aug 29 2024 09:36:41 GMT+0200 (Central European Summer Time)","2","14","1","1724918814468"
"1072","f","SpeechGestureMatch","../RequiredFiles/videos/NeinKopfJa_f.mp4","Ist der Ball in der blauen Box?","Green","Blue","J","affirmation","mismatch","gesture","no","ThumbUp","female","gesture-speech","1920","1200","firefox","61.35","Linux","26","male","right","Thu Aug 29 2024 09:36:47 GMT+0200 (Central European Summer Time)","2","15","1","1724918814468"
"810","j","SpeechGestureMatch","../RequiredFiles/videos/NeinKopfJa_m.mp4","Ist der Ball in der grünen Box?","Blue","Green","J","affirmation","mismatch","gesture","no","ThumbUp","male","gesture-speech","1920","1200","firefox","61.35","Linux","26","male","right","Thu Aug 29 2024 09:36:54 GMT+0200 (Central European Summer Time)","2","16","0","1724918814468"
"855","j","SpeechGestureMatch","../RequiredFiles/videos/JaKopfNein_m.mp4","Ist der Ball in der blauen Box?","Green","Blue","F","negation","mismatch","gesture","yes","ThumbDown","male","gesture-speech","1920","1200","firefox","61.35","Linux","26","male","right","Thu Aug 29 2024 09:37:00 GMT+0200 (Central European Summer Time)","2","17","1","1724918814468"
"1312","f","SpeechGestureMatch","../RequiredFiles/videos/JaKopfJa_f.mp4","Ist der Ball in der blauen Box?","Blue","Green","F","affirmation","match","gesture","yes","ThumbUp","female","gesture-speech","1920","1200","firefox","61.35","Linux","26","male","right","Thu Aug 29 2024 09:37:07 GMT+0200 (Central European Summer Time)","2","18","0","1724918814468"
"793","j","SpeechGestureMatch","../RequiredFiles/videos/NeinKopfNein_m.mp4","Ist der Ball in der blauen Box?","Green","Blue","F","negation","match","gesture","no","ThumbDown","male","gesture-speech","1920","1200","firefox","61.35","Linux","26","male","right","Thu Aug 29 2024 09:37:13 GMT+0200 (Central European Summer Time)","2","19","1","1724918814468"
"716","j","SpeechGestureMatch","../RequiredFiles/videos/JaKopfJa_m.mp4","Ist der Ball in der blauen Box?","Green","Blue","J","affirmation","match","gesture","yes","ThumbUp","male","gesture-speech","1920","1200","firefox","61.35","Linux","26","male","right","Thu Aug 29 2024 09:37:20 GMT+0200 (Central European Summer Time)","2","20","0","1724918814468"
"849","j","SpeechGestureMatch","../RequiredFiles/videos/JaKopfJa_f.mp4","Ist der Ball in der blauen Box?","Blue","Green","F","affirmation","match","gesture","yes","ThumbUp","female","gesture-speech","1920","1200","firefox","61.35","Linux","26","male","right","Thu Aug 29 2024 09:37:26 GMT+0200 (Central European Summer Time)","2","21","1","1724918814468"
"999","f","SpeechGestureMatch","../RequiredFiles/videos/JaKopfNein_m.mp4","Ist der Ball in der grünen Box?","Blue","Green","F","negation","mismatch","gesture","yes","ThumbDown","male","gesture-speech","1920","1200","firefox","61.35","Linux","26","male","right","Thu Aug 29 2024 09:37:32 GMT+0200 (Central European Summer Time)","2","22","0","1724918814468"
"930","f","SpeechGestureMatch","../RequiredFiles/videos/NeinKopfNein_m.mp4","Ist der Ball in der blauen Box?","Blue","Green","J","negation","match","gesture","no","ThumbDown","male","gesture-speech","1920","1200","firefox","61.35","Linux","26","male","right","Thu Aug 29 2024 09:37:39 GMT+0200 (Central European Summer Time)","2","23","1","1724918814468"
"767","j","SpeechGestureMatch","../RequiredFiles/videos/NeinKopfJa_f.mp4","Ist der Ball in der grünen Box?","Blue","Green","J","affirmation","mismatch","gesture","no","ThumbUp","female","gesture-speech","1920","1200","firefox","61.35","Linux","26","male","right","Thu Aug 29 2024 09:37:45 GMT+0200 (Central European Summer Time)","2","24","0","1724918814468"
"786","f","SpeechGestureMatch","../RequiredFiles/videos/JaKopfJa_m.mp4","Ist der Ball in der grünen Box?","Green","Blue","F","affirmation","match","gesture","yes","ThumbUp","male","gesture-speech","1920","1200","firefox","61.35","Linux","26","male","right","Thu Aug 29 2024 09:37:51 GMT+0200 (Central European Summer Time)","2","25","0","1724918814468"
"772","f","SpeechGestureMatch","../RequiredFiles/videos/NeinKopfJa_m.mp4","Ist der Ball in der grünen Box?","Blue","Green","J","affirmation","mismatch","gesture","no","ThumbUp","male","gesture-speech","1920","1200","firefox","61.35","Linux","26","male","right","Thu Aug 29 2024 09:37:58 GMT+0200 (Central European Summer Time)","2","26","1","1724918814468"
"798","f","SpeechGestureMatch","../RequiredFiles/videos/JaKopfJa_f.mp4","Ist der Ball in der blauen Box?","Green","Blue","J","affirmation","match","gesture","yes","ThumbUp","female","gesture-speech","1920","1200","firefox","61.35","Linux","26","male","right","Thu Aug 29 2024 09:38:04 GMT+0200 (Central European Summer Time)","2","27","1","1724918814468"
"2920","f","SpeechGestureMatch","../RequiredFiles/videos/NeinKopfNein_m.mp4","Ist der Ball in der blauen Box?","Blue","Green","J","negation","match","gesture","no","ThumbDown","male","gesture-speech","1920","1200","firefox","61.35","Linux","26","male","right","Thu Aug 29 2024 09:38:13 GMT+0200 (Central European Summer Time)","2","28","1","1724918814468"
"1222","j","SpeechGestureMatch","../RequiredFiles/videos/NeinKopfNein_m.mp4","Ist der Ball in der grünen Box?","Green","Blue","J","negation","match","gesture","no","ThumbDown","male","gesture-speech","1920","1200","firefox","61.35","Linux","26","male","right","Thu Aug 29 2024 09:38:19 GMT+0200 (Central European Summer Time)","2","29","0","1724918814468"
"1071","j","SpeechGestureMatch","../RequiredFiles/videos/NeinKopfJa_f.mp4","Ist der Ball in der grünen Box?","Green","Blue","F","affirmation","mismatch","gesture","no","ThumbUp","female","gesture-speech","1920","1200","firefox","61.35","Linux","26","male","right","Thu Aug 29 2024 09:38:26 GMT+0200 (Central European Summer Time)","2","30","1","1724918814468"
"944","f","SpeechGestureMatch","../RequiredFiles/videos/JaKopfJa_m.mp4","Ist der Ball in der blauen Box?","Green","Blue","J","affirmation","match","gesture","yes","ThumbUp","male","gesture-speech","1920","1200","firefox","61.35","Linux","26","male","right","Thu Aug 29 2024 09:38:32 GMT+0200 (Central European Summer Time)","2","31","1","1724918814468"
"1575","f","SpeechGestureMatch","../RequiredFiles/videos/NeinKopfNein_f.mp4","Ist der Ball in der blauen Box?","Blue","Green","J","negation","match","gesture","no","ThumbDown","female","gesture-speech","1920","1200","firefox","61.35","Linux","26","male","right","Thu Aug 29 2024 09:38:39 GMT+0200 (Central European Summer Time)","2","32","1","1724918814468"
"1584","j","SpeechGestureMatch","../RequiredFiles/videos/JaKopfNein_m.mp4","Ist der Ball in der grünen Box?","Green","Blue","J","negation","mismatch","gesture","yes","ThumbDown","male","gesture-speech","1920","1200","firefox","61.35","Linux","26","male","right","Thu Aug 29 2024 09:38:47 GMT+0200 (Central European Summer Time)","2","33","0","1724918814468"
"1232","f","SpeechGestureMatch","../RequiredFiles/videos/JaKopfNein_m.mp4","Ist der Ball in der blauen Box?","Green","Blue","F","negation","mismatch","gesture","yes","ThumbDown","male","gesture-speech","1920","1200","firefox","61.35","Linux","26","male","right","Thu Aug 29 2024 09:38:53 GMT+0200 (Central European Summer Time)","2","34","0","1724918814468"
"1250","j","SpeechGestureMatch","../RequiredFiles/videos/NeinKopfJa_f.mp4","Ist der Ball in der grünen Box?","Blue","Green","J","affirmation","mismatch","gesture","no","ThumbUp","female","gesture-speech","1920","1200","firefox","61.35","Linux","26","male","right","Thu Aug 29 2024 09:39:00 GMT+0200 (Central European Summer Time)","2","35","0","1724918814468"
"1093","f","SpeechGestureMatch","../RequiredFiles/videos/JaKopfNein_m.mp4","Ist der Ball in der grünen Box?","Blue","Green","F","negation","mismatch","gesture","yes","ThumbDown","male","gesture-speech","1920","1200","firefox","61.35","Linux","26","male","right","Thu Aug 29 2024 09:39:07 GMT+0200 (Central European Summer Time)","2","36","0","1724918814468"
"815","f","SpeechGestureMatch","../RequiredFiles/videos/JaKopfJa_f.mp4","Ist der Ball in der blauen Box?","Green","Blue","J","affirmation","match","gesture","yes","ThumbUp","female","gesture-speech","1920","1200","firefox","61.35","Linux","26","male","right","Thu Aug 29 2024 09:39:13 GMT+0200 (Central European Summer Time)","2","37","1","1724918814468"
"1203","f","SpeechGestureMatch","../RequiredFiles/videos/NeinKopfNein_f.mp4","Ist der Ball in der grünen Box?","Blue","Green","F","negation","match","gesture","no","ThumbDown","female","gesture-speech","1920","1200","firefox","61.35","Linux","26","male","right","Thu Aug 29 2024 09:39:20 GMT+0200 (Central European Summer Time)","2","38","0","1724918814468"
"943","j","SpeechGestureMatch","../RequiredFiles/videos/NeinKopfNein_f.mp4","Ist der Ball in der grünen Box?","Green","Blue","J","negation","match","gesture","no","ThumbDown","female","gesture-speech","1920","1200","firefox","61.35","Linux","26","male","right","Thu Aug 29 2024 09:39:26 GMT+0200 (Central European Summer Time)","2","39","0","1724918814468"
"816","f","SpeechGestureMatch","../RequiredFiles/videos/JaKopfNein_f.mp4","Ist der Ball in der blauen Box?","Green","Blue","F","negation","mismatch","gesture","yes","ThumbDown","female","gesture-speech","1920","1200","firefox","61.35","Linux","26","male","right","Thu Aug 29 2024 09:39:33 GMT+0200 (Central European Summer Time)","2","40","0","1724918814468"
"1184","j","SpeechGestureMatch","../RequiredFiles/videos/NeinKopfJa_f.mp4","Ist der Ball in der blauen Box?","Blue","Green","F","affirmation","mismatch","gesture","no","ThumbUp","female","gesture-speech","1920","1200","firefox","61.35","Linux","26","male","right","Thu Aug 29 2024 09:39:39 GMT+0200 (Central European Summer Time)","2","41","1","1724918814468"
"1072","f","SpeechGestureMatch","../RequiredFiles/videos/JaKopfJa_m.mp4","Ist der Ball in der blauen Box?","Blue","Green","F","affirmation","match","gesture","yes","ThumbUp","male","gesture-speech","1920","1200","firefox","61.35","Linux","26","male","right","Thu Aug 29 2024 09:39:46 GMT+0200 (Central European Summer Time)","2","42","0","1724918814468"
"1081","f","SpeechGestureMatch","../RequiredFiles/videos/NeinKopfJa_f.mp4","Ist der Ball in der blauen Box?","Green","Blue","J","affirmation","mismatch","gesture","no","ThumbUp","female","gesture-speech","1920","1200","firefox","61.35","Linux","26","male","right","Thu Aug 29 2024 09:39:53 GMT+0200 (Central European Summer Time)","2","43","1","1724918814468"
"8656","f","SpeechGestureMatch","../RequiredFiles/videos/NeinKopfNein_f.mp4","Ist der Ball in der blauen Box?","Green","Blue","F","negation","match","gesture","no","ThumbDown","female","gesture-speech","1920","1200","firefox","61.35","Linux","26","male","right","Thu Aug 29 2024 09:40:07 GMT+0200 (Central European Summer Time)","2","44","0","1724918814468"
"1114","f","SpeechGestureMatch","../RequiredFiles/videos/JaKopfJa_m.mp4","Ist der Ball in der grünen Box?","Green","Blue","F","affirmation","match","gesture","yes","ThumbUp","male","gesture-speech","1920","1200","firefox","61.35","Linux","26","male","right","Thu Aug 29 2024 09:40:13 GMT+0200 (Central European Summer Time)","2","45","0","1724918814468"
"843","f","SpeechGestureMatch","../RequiredFiles/videos/NeinKopfJa_m.mp4","Ist der Ball in der grünen Box?","Green","Blue","F","affirmation","mismatch","gesture","no","ThumbUp","male","gesture-speech","1920","1200","firefox","61.35","Linux","26","male","right","Thu Aug 29 2024 09:40:20 GMT+0200 (Central European Summer Time)","2","46","0","1724918814468"
"773","f","SpeechGestureMatch","../RequiredFiles/videos/JaKopfJa_f.mp4","Ist der Ball in der grünen Box?","Blue","Green","J","affirmation","match","gesture","yes","ThumbUp","female","gesture-speech","1920","1200","firefox","61.35","Linux","26","male","right","Thu Aug 29 2024 09:40:26 GMT+0200 (Central European Summer Time)","2","47","1","1724918814468"
"720","f","SpeechGestureMatch","../RequiredFiles/videos/JaKopfJa_f.mp4","Ist der Ball in der grünen Box?","Green","Blue","F","affirmation","match","gesture","yes","ThumbUp","female","gesture-speech","1920","1200","firefox","61.35","Linux","26","male","right","Thu Aug 29 2024 09:40:32 GMT+0200 (Central European Summer Time)","2","48","0","1724918814468"
"737","j","SpeechGestureMatch","../RequiredFiles/videos/JaKopfJa_m.mp4","Ist der Ball in der grünen Box?","Blue","Green","J","affirmation","match","gesture","yes","ThumbUp","male","gesture-speech","1920","1200","firefox","61.35","Linux","26","male","right","Thu Aug 29 2024 09:40:38 GMT+0200 (Central European Summer Time)","2","49","0","1724918814468"
"1041","f","SpeechGestureMatch","../RequiredFiles/videos/NeinKopfJa_m.mp4","Ist der Ball in der blauen Box?","Blue","Green","F","affirmation","mismatch","gesture","no","ThumbUp","male","gesture-speech","1920","1200","firefox","61.35","Linux","26","male","right","Thu Aug 29 2024 09:40:45 GMT+0200 (Central European Summer Time)","2","50","0","1724918814468"
"894","j","SpeechGestureMatch","../RequiredFiles/videos/JaKopfNein_m.mp4","Ist der Ball in der blauen Box?","Blue","Green","J","negation","mismatch","gesture","yes","ThumbDown","male","gesture-speech","1920","1200","firefox","61.35","Linux","26","male","right","Thu Aug 29 2024 09:40:51 GMT+0200 (Central European Summer Time)","2","51","0","1724918814468"
"926","j","SpeechGestureMatch","../RequiredFiles/videos/NeinKopfJa_m.mp4","Ist der Ball in der blauen Box?","Green","Blue","J","affirmation","mismatch","gesture","no","ThumbUp","male","gesture-speech","1920","1200","firefox","61.35","Linux","26","male","right","Thu Aug 29 2024 09:40:58 GMT+0200 (Central European Summer Time)","2","52","0","1724918814468"
"1136","j","SpeechGestureMatch","../RequiredFiles/videos/NeinKopfNein_m.mp4","Ist der Ball in der grünen Box?","Blue","Green","F","negation","match","gesture","no","ThumbDown","male","gesture-speech","1920","1200","firefox","61.35","Linux","26","male","right","Thu Aug 29 2024 09:41:05 GMT+0200 (Central European Summer Time)","2","53","1","1724918814468"
"1130","j","SpeechGestureMatch","../RequiredFiles/videos/NeinKopfNein_f.mp4","Ist der Ball in der grünen Box?","Green","Blue","J","negation","match","gesture","no","ThumbDown","female","gesture-speech","1920","1200","firefox","61.35","Linux","26","male","right","Thu Aug 29 2024 09:41:11 GMT+0200 (Central European Summer Time)","2","54","0","1724918814468"
"1081","j","SpeechGestureMatch","../RequiredFiles/videos/NeinKopfNein_f.mp4","Ist der Ball in der grünen Box?","Blue","Green","F","negation","match","gesture","no","ThumbDown","female","gesture-speech","1920","1200","firefox","61.35","Linux","26","male","right","Thu Aug 29 2024 09:41:18 GMT+0200 (Central European Summer Time)","2","55","1","1724918814468"
"1017","f","SpeechGestureMatch","../RequiredFiles/videos/JaKopfNein_f.mp4","Ist der Ball in der grünen Box?","Blue","Green","F","negation","mismatch","gesture","yes","ThumbDown","female","gesture-speech","1920","1200","firefox","61.35","Linux","26","male","right","Thu Aug 29 2024 09:41:25 GMT+0200 (Central European Summer Time)","2","56","0","1724918814468"
"943","f","SpeechGestureMatch","../RequiredFiles/videos/NeinKopfJa_m.mp4","Ist der Ball in der blauen Box?","Blue","Green","F","affirmation","mismatch","gesture","no","ThumbUp","male","gesture-speech","1920","1200","firefox","61.35","Linux","26","male","right","Thu Aug 29 2024 09:41:31 GMT+0200 (Central European Summer Time)","2","57","0","1724918814468"
"736","j","SpeechGestureMatch","../RequiredFiles/videos/JaKopfNein_f.mp4","Ist der Ball in der blauen Box?","Blue","Green","J","negation","mismatch","gesture","yes","ThumbDown","female","gesture-speech","1920","1200","firefox","61.35","Linux","26","male","right","Thu Aug 29 2024 09:41:37 GMT+0200 (Central European Summer Time)","2","58","0","1724918814468"
"1163","j","SpeechGestureMatch","../RequiredFiles/videos/JaKopfNein_f.mp4","Ist der Ball in der blauen Box?","Blue","Green","J","negation","mismatch","gesture","yes","ThumbDown","female","gesture-speech","1920","1200","firefox","61.35","Linux","26","male","right","Thu Aug 29 2024 09:41:44 GMT+0200 (Central European Summer Time)","2","59","0","1724918814468"
"776","f","SpeechGestureMatch","../RequiredFiles/videos/JaKopfNein_f.mp4","Ist der Ball in der grünen Box?","Green","Blue","J","negation","mismatch","gesture","yes","ThumbDown","female","gesture-speech","1920","1200","firefox","61.35","Linux","26","male","right","Thu Aug 29 2024 09:41:50 GMT+0200 (Central European Summer Time)","2","60","1","1724918814468"
"1359","j","SpeechGestureMatch","../RequiredFiles/videos/NeinKopfNein_f.mp4","Ist der Ball in der blauen Box?","Blue","Green","J","negation","match","gesture","no","ThumbDown","female","gesture-speech","1920","1200","firefox","61.35","Linux","26","male","right","Thu Aug 29 2024 09:41:57 GMT+0200 (Central European Summer Time)","2","61","0","1724918814468"
"1069","f","SpeechGestureMatch","../RequiredFiles/videos/NeinKopfNein_f.mp4","Ist der Ball in der blauen Box?","Green","Blue","F","negation","match","gesture","no","ThumbDown","female","gesture-speech","1920","1200","firefox","61.35","Linux","26","male","right","Thu Aug 29 2024 09:42:04 GMT+0200 (Central European Summer Time)","2","62","0","1724918814468"
"941","j","SpeechGestureMatch","../RequiredFiles/videos/JaKopfJa_m.mp4","Ist der Ball in der blauen Box?","Blue","Green","F","affirmation","match","gesture","yes","ThumbUp","male","gesture-speech","1920","1200","firefox","61.35","Linux","26","male","right","Thu Aug 29 2024 09:42:10 GMT+0200 (Central European Summer Time)","2","63","1","1724918814468"
"865","f","SpeechGestureMatch","../RequiredFiles/videos/NeinKopfJa_m.mp4","Ist der Ball in der grünen Box?","Green","Blue","F","affirmation","mismatch","gesture","no","ThumbUp","male","gesture-speech","1920","1200","firefox","61.35","Linux","26","male","right","Thu Aug 29 2024 09:42:17 GMT+0200 (Central European Summer Time)","2","64","0","1724918814468"
"689","j","SpeechGestureMatch","../RequiredFiles/videos/JaKopfJa_m.mp4","Ist der Ball in der blauen Box?","Green","Blue","J","affirmation","match","speech","yes","ThumbUp","male","gesture-speech","1920","1200","firefox","61.35","Linux","26","male","right","Thu Aug 29 2024 09:52:29 GMT+0200 (Central European Summer Time)","3","1","0","1724918814468"
"839","f","SpeechGestureMatch","../RequiredFiles/videos/NeinKopfNein_f.mp4","Ist der Ball in der grünen Box?","Green","Blue","J","negation","match","speech","no","ThumbDown","female","gesture-speech","1920","1200","firefox","61.35","Linux","26","male","right","Thu Aug 29 2024 09:52:35 GMT+0200 (Central European Summer Time)","3","2","1","1724918814468"
"854","j","SpeechGestureMatch","../RequiredFiles/videos/JaKopfNein_m.mp4","Ist der Ball in der grünen Box?","Green","Blue","F","affirmation","mismatch","speech","yes","ThumbDown","male","gesture-speech","1920","1200","firefox","61.35","Linux","26","male","right","Thu Aug 29 2024 09:52:41 GMT+0200 (Central European Summer Time)","3","3","1","1724918814468"
"961","j","SpeechGestureMatch","../RequiredFiles/videos/NeinKopfNein_f.mp4","Ist der Ball in der grünen Box?","Green","Blue","J","negation","match","speech","no","ThumbDown","female","gesture-speech","1920","1200","firefox","61.35","Linux","26","male","right","Thu Aug 29 2024 09:52:48 GMT+0200 (Central European Summer Time)","3","4","0","1724918814468"
"913","j","SpeechGestureMatch","../RequiredFiles/videos/NeinKopfNein_m.mp4","Ist der Ball in der blauen Box?","Blue","Green","J","negation","match","speech","no","ThumbDown","male","gesture-speech","1920","1200","firefox","61.35","Linux","26","male","right","Thu Aug 29 2024 09:52:55 GMT+0200 (Central European Summer Time)","3","5","0","1724918814468"
"758","f","SpeechGestureMatch","../RequiredFiles/videos/JaKopfNein_f.mp4","Ist der Ball in der blauen Box?","Blue","Green","F","affirmation","mismatch","speech","yes","ThumbDown","female","gesture-speech","1920","1200","firefox","61.35","Linux","26","male","right","Thu Aug 29 2024 09:53:01 GMT+0200 (Central European Summer Time)","3","6","0","1724918814468"
"969","j","SpeechGestureMatch","../RequiredFiles/videos/NeinKopfJa_m.mp4","Ist der Ball in der grünen Box?","Green","Blue","J","negation","mismatch","speech","no","ThumbUp","male","gesture-speech","1920","1200","firefox","61.35","Linux","26","male","right","Thu Aug 29 2024 09:53:07 GMT+0200 (Central European Summer Time)","3","7","0","1724918814468"
"681","f","SpeechGestureMatch","../RequiredFiles/videos/NeinKopfNein_m.mp4","Ist der Ball in der blauen Box?","Green","Blue","F","negation","match","speech","no","ThumbDown","male","gesture-speech","1920","1200","firefox","61.35","Linux","26","male","right","Thu Aug 29 2024 09:53:14 GMT+0200 (Central European Summer Time)","3","8","0","1724918814468"
"858","j","SpeechGestureMatch","../RequiredFiles/videos/NeinKopfJa_f.mp4","Ist der Ball in der grünen Box?","Blue","Green","F","negation","mismatch","speech","no","ThumbUp","female","gesture-speech","1920","1200","firefox","61.35","Linux","26","male","right","Thu Aug 29 2024 09:53:20 GMT+0200 (Central European Summer Time)","3","9","1","1724918814468"
"856","f","SpeechGestureMatch","../RequiredFiles/videos/JaKopfJa_f.mp4","Ist der Ball in der grünen Box?","Blue","Green","J","affirmation","match","speech","yes","ThumbUp","female","gesture-speech","1920","1200","firefox","61.35","Linux","26","male","right","Thu Aug 29 2024 09:53:26 GMT+0200 (Central European Summer Time)","3","10","1","1724918814468"
"896","f","SpeechGestureMatch","../RequiredFiles/videos/NeinKopfJa_m.mp4","Ist der Ball in der grünen Box?","Blue","Green","F","negation","mismatch","speech","no","ThumbUp","male","gesture-speech","1920","1200","firefox","61.35","Linux","26","male","right","Thu Aug 29 2024 09:53:33 GMT+0200 (Central European Summer Time)","3","11","0","1724918814468"
"3267","f","SpeechGestureMatch","../RequiredFiles/videos/NeinKopfNein_f.mp4","Ist der Ball in der blauen Box?","Green","Blue","F","negation","match","speech","no","ThumbDown","female","gesture-speech","1920","1200","firefox","61.35","Linux","26","male","right","Thu Aug 29 2024 09:53:42 GMT+0200 (Central European Summer Time)","3","12","0","1724918814468"
"901","j","SpeechGestureMatch","../RequiredFiles/videos/NeinKopfJa_f.mp4","Ist der Ball in der grünen Box?","Green","Blue","J","negation","mismatch","speech","no","ThumbUp","female","gesture-speech","1920","1200","firefox","61.35","Linux","26","male","right","Thu Aug 29 2024 09:53:48 GMT+0200 (Central European Summer Time)","3","13","0","1724918814468"
"776","f","SpeechGestureMatch","../RequiredFiles/videos/JaKopfNein_f.mp4","Ist der Ball in der grünen Box?","Blue","Green","J","affirmation","mismatch","speech","yes","ThumbDown","female","gesture-speech","1920","1200","firefox","61.35","Linux","26","male","right","Thu Aug 29 2024 09:53:55 GMT+0200 (Central European Summer Time)","3","14","1","1724918814468"
"1000","j","SpeechGestureMatch","../RequiredFiles/videos/NeinKopfNein_m.mp4","Ist der Ball in der blauen Box?","Blue","Green","J","negation","match","speech","no","ThumbDown","male","gesture-speech","1920","1200","firefox","61.35","Linux","26","male","right","Thu Aug 29 2024 09:54:01 GMT+0200 (Central European Summer Time)","3","15","0","1724918814468"
"1007","f","SpeechGestureMatch","../RequiredFiles/videos/NeinKopfJa_m.mp4","Ist der Ball in der grünen Box?","Blue","Green","F","negation","mismatch","speech","no","ThumbUp","male","gesture-speech","1920","1200","firefox","61.35","Linux","26","male","right","Thu Aug 29 2024 09:54:08 GMT+0200 (Central European Summer Time)","3","16","0","1724918814468"
"958","f","SpeechGestureMatch","../RequiredFiles/videos/JaKopfJa_m.mp4","Ist der Ball in der grünen Box?","Green","Blue","F","affirmation","match","speech","yes","ThumbUp","male","gesture-speech","1920","1200","firefox","61.35","Linux","26","male","right","Thu Aug 29 2024 09:54:14 GMT+0200 (Central European Summer Time)","3","17","0","1724918814468"
"1389","j","SpeechGestureMatch","../RequiredFiles/videos/JaKopfJa_f.mp4","Ist der Ball in der blauen Box?","Blue","Green","F","affirmation","match","speech","yes","ThumbUp","female","gesture-speech","1920","1200","firefox","61.35","Linux","26","male","right","Thu Aug 29 2024 09:54:21 GMT+0200 (Central European Summer Time)","3","18","1","1724918814468"
"1315","f","SpeechGestureMatch","../RequiredFiles/videos/JaKopfNein_f.mp4","Ist der Ball in der grünen Box?","Blue","Green","J","affirmation","mismatch","speech","yes","ThumbDown","female","gesture-speech","1920","1200","firefox","61.35","Linux","26","male","right","Thu Aug 29 2024 09:54:28 GMT+0200 (Central European Summer Time)","3","19","1","1724918814468"
"795","j","SpeechGestureMatch","../RequiredFiles/videos/NeinKopfNein_m.mp4","Ist der Ball in der grünen Box?","Green","Blue","J","negation","match","speech","no","ThumbDown","male","gesture-speech","1920","1200","firefox","61.35","Linux","26","male","right","Thu Aug 29 2024 09:54:34 GMT+0200 (Central European Summer Time)","3","20","0","1724918814468"
"823","j","SpeechGestureMatch","../RequiredFiles/videos/NeinKopfNein_f.mp4","Ist der Ball in der grünen Box?","Blue","Green","F","negation","match","speech","no","ThumbDown","female","gesture-speech","1920","1200","firefox","61.35","Linux","26","male","right","Thu Aug 29 2024 09:54:41 GMT+0200 (Central European Summer Time)","3","21","1","1724918814468"
"783","f","SpeechGestureMatch","../RequiredFiles/videos/JaKopfJa_f.mp4","Ist der Ball in der grünen Box?","Blue","Green","J","affirmation","match","speech","yes","ThumbUp","female","gesture-speech","1920","1200","firefox","61.35","Linux","26","male","right","Thu Aug 29 2024 09:54:47 GMT+0200 (Central European Summer Time)","3","22","1","1724918814468"
"867","f","SpeechGestureMatch","../RequiredFiles/videos/NeinKopfJa_f.mp4","Ist der Ball in der grünen Box?","Blue","Green","F","negation","mismatch","speech","no","ThumbUp","female","gesture-speech","1920","1200","firefox","61.35","Linux","26","male","right","Thu Aug 29 2024 09:54:53 GMT+0200 (Central European Summer Time)","3","23","0","1724918814468"
"927","f","SpeechGestureMatch","../RequiredFiles/videos/JaKopfNein_f.mp4","Ist der Ball in der blauen Box?","Blue","Green","F","affirmation","mismatch","speech","yes","ThumbDown","female","gesture-speech","1920","1200","firefox","61.35","Linux","26","male","right","Thu Aug 29 2024 09:55:00 GMT+0200 (Central European Summer Time)","3","24","0","1724918814468"
"958","j","SpeechGestureMatch","../RequiredFiles/videos/JaKopfNein_m.mp4","Ist der Ball in der grünen Box?","Blue","Green","J","affirmation","mismatch","speech","yes","ThumbDown","male","gesture-speech","1920","1200","firefox","61.35","Linux","26","male","right","Thu Aug 29 2024 09:55:06 GMT+0200 (Central European Summer Time)","3","25","0","1724918814468"
"1127","j","SpeechGestureMatch","../RequiredFiles/videos/NeinKopfJa_m.mp4","Ist der Ball in der grünen Box?","Green","Blue","J","negation","mismatch","speech","no","ThumbUp","male","gesture-speech","1920","1200","firefox","61.35","Linux","26","male","right","Thu Aug 29 2024 09:55:13 GMT+0200 (Central European Summer Time)","3","26","0","1724918814468"
"1076","f","SpeechGestureMatch","../RequiredFiles/videos/JaKopfNein_m.mp4","Ist der Ball in der blauen Box?","Green","Blue","J","affirmation","mismatch","speech","yes","ThumbDown","male","gesture-speech","1920","1200","firefox","61.35","Linux","26","male","right","Thu Aug 29 2024 09:55:20 GMT+0200 (Central European Summer Time)","3","27","1","1724918814468"
"743","j","SpeechGestureMatch","../RequiredFiles/videos/JaKopfJa_m.mp4","Ist der Ball in der blauen Box?","Blue","Green","F","affirmation","match","speech","yes","ThumbUp","male","gesture-speech","1920","1200","firefox","61.35","Linux","26","male","right","Thu Aug 29 2024 09:55:26 GMT+0200 (Central European Summer Time)","3","28","1","1724918814468"
"1136","f","SpeechGestureMatch","../RequiredFiles/videos/NeinKopfJa_f.mp4","Ist der Ball in der blauen Box?","Green","Blue","F","negation","mismatch","speech","no","ThumbUp","female","gesture-speech","1920","1200","firefox","61.35","Linux","26","male","right","Thu Aug 29 2024 09:55:33 GMT+0200 (Central European Summer Time)","3","29","0","1724918814468"
"1847","j","SpeechGestureMatch","../RequiredFiles/videos/NeinKopfNein_f.mp4","Ist der Ball in der grünen Box?","Blue","Green","F","negation","match","speech","no","ThumbDown","female","gesture-speech","1920","1200","firefox","61.35","Linux","26","male","right","Thu Aug 29 2024 09:55:40 GMT+0200 (Central European Summer Time)","3","30","1","1724918814468"
"1064","f","SpeechGestureMatch","../RequiredFiles/videos/JaKopfNein_m.mp4","Ist der Ball in der blauen Box?","Blue","Green","F","affirmation","mismatch","speech","yes","ThumbDown","male","gesture-speech","1920","1200","firefox","61.35","Linux","26","male","right","Thu Aug 29 2024 09:55:47 GMT+0200 (Central European Summer Time)","3","31","0","1724918814468"
"800","f","SpeechGestureMatch","../RequiredFiles/videos/JaKopfNein_f.mp4","Ist der Ball in der grünen Box?","Green","Blue","F","affirmation","mismatch","speech","yes","ThumbDown","female","gesture-speech","1920","1200","firefox","61.35","Linux","26","male","right","Thu Aug 29 2024 09:55:53 GMT+0200 (Central European Summer Time)","3","32","0","1724918814468"
"792","j","SpeechGestureMatch","../RequiredFiles/videos/JaKopfJa_f.mp4","Ist der Ball in der blauen Box?","Green","Blue","J","affirmation","match","speech","yes","ThumbUp","female","gesture-speech","1920","1200","firefox","61.35","Linux","26","male","right","Thu Aug 29 2024 09:55:59 GMT+0200 (Central European Summer Time)","3","33","0","1724918814468"
"905","f","SpeechGestureMatch","../RequiredFiles/videos/NeinKopfNein_m.mp4","Ist der Ball in der grünen Box?","Blue","Green","F","negation","match","speech","no","ThumbDown","male","gesture-speech","1920","1200","firefox","61.35","Linux","26","male","right","Thu Aug 29 2024 09:56:06 GMT+0200 (Central European Summer Time)","3","34","0","1724918814468"
"825","f","SpeechGestureMatch","../RequiredFiles/videos/JaKopfJa_m.mp4","Ist der Ball in der grünen Box?","Green","Blue","F","affirmation","match","speech","yes","ThumbUp","male","gesture-speech","1920","1200","firefox","61.35","Linux","26","male","right","Thu Aug 29 2024 09:56:12 GMT+0200 (Central European Summer Time)","3","35","0","1724918814468"
"898","j","SpeechGestureMatch","../RequiredFiles/videos/NeinKopfJa_f.mp4","Ist der Ball in der grünen Box?","Green","Blue","J","negation","mismatch","speech","no","ThumbUp","female","gesture-speech","1920","1200","firefox","61.35","Linux","26","male","right","Thu Aug 29 2024 09:56:19 GMT+0200 (Central European Summer Time)","3","36","0","1724918814468"
"773","f","SpeechGestureMatch","../RequiredFiles/videos/NeinKopfNein_m.mp4","Ist der Ball in der blauen Box?","Green","Blue","F","negation","match","speech","no","ThumbDown","male","gesture-speech","1920","1200","firefox","61.35","Linux","26","male","right","Thu Aug 29 2024 09:56:25 GMT+0200 (Central European Summer Time)","3","37","0","1724918814468"
"667","j","SpeechGestureMatch","../RequiredFiles/videos/JaKopfJa_m.mp4","Ist der Ball in der grünen Box?","Blue","Green","J","affirmation","match","speech","yes","ThumbUp","male","gesture-speech","1920","1200","firefox","61.35","Linux","26","male","right","Thu Aug 29 2024 09:56:31 GMT+0200 (Central European Summer Time)","3","38","0","1724918814468"
"981","j","SpeechGestureMatch","../RequiredFiles/videos/NeinKopfJa_m.mp4","Ist der Ball in der blauen Box?","Blue","Green","J","negation","mismatch","speech","no","ThumbUp","male","gesture-speech","1920","1200","firefox","61.35","Linux","26","male","right","Thu Aug 29 2024 09:56:38 GMT+0200 (Central European Summer Time)","3","39","0","1724918814468"
"1001","f","SpeechGestureMatch","../RequiredFiles/videos/NeinKopfNein_m.mp4","Ist der Ball in der grünen Box?","Blue","Green","F","negation","match","speech","no","ThumbDown","male","gesture-speech","1920","1200","firefox","61.35","Linux","26","male","right","Thu Aug 29 2024 09:56:44 GMT+0200 (Central European Summer Time)","3","40","0","1724918814468"
"949","f","SpeechGestureMatch","../RequiredFiles/videos/NeinKopfJa_f.mp4","Ist der Ball in der blauen Box?","Blue","Green","J","negation","mismatch","speech","no","ThumbUp","female","gesture-speech","1920","1200","firefox","61.35","Linux","26","male","right","Thu Aug 29 2024 09:56:51 GMT+0200 (Central European Summer Time)","3","41","1","1724918814468"
"11634","j","SpeechGestureMatch","../RequiredFiles/videos/JaKopfNein_f.mp4","Ist der Ball in der grünen Box?","Green","Blue","F","affirmation","mismatch","speech","yes","ThumbDown","female","gesture-speech","1920","1200","firefox","61.35","Linux","26","male","right","Thu Aug 29 2024 09:57:08 GMT+0200 (Central European Summer Time)","3","42","1","1724918814468"
"1399","f","SpeechGestureMatch","../RequiredFiles/videos/NeinKopfJa_m.mp4","Ist der Ball in der blauen Box?","Green","Blue","F","negation","mismatch","speech","no","ThumbUp","male","gesture-speech","1920","1200","firefox","61.35","Linux","26","male","right","Thu Aug 29 2024 09:57:15 GMT+0200 (Central European Summer Time)","3","43","0","1724918814468"
"1107","f","SpeechGestureMatch","../RequiredFiles/videos/JaKopfJa_f.mp4","Ist der Ball in der blauen Box?","Blue","Green","F","affirmation","match","speech","yes","ThumbUp","female","gesture-speech","1920","1200","firefox","61.35","Linux","26","male","right","Thu Aug 29 2024 09:57:21 GMT+0200 (Central European Summer Time)","3","44","0","1724918814468"
"736","f","SpeechGestureMatch","../RequiredFiles/videos/JaKopfJa_m.mp4","Ist der Ball in der blauen Box?","Blue","Green","F","affirmation","match","speech","yes","ThumbUp","male","gesture-speech","1920","1200","firefox","61.35","Linux","26","male","right","Thu Aug 29 2024 09:57:28 GMT+0200 (Central European Summer Time)","3","45","0","1724918814468"
"769","f","SpeechGestureMatch","../RequiredFiles/videos/NeinKopfJa_m.mp4","Ist der Ball in der blauen Box?","Green","Blue","F","negation","mismatch","speech","no","ThumbUp","male","gesture-speech","1920","1200","firefox","61.35","Linux","26","male","right","Thu Aug 29 2024 09:57:34 GMT+0200 (Central European Summer Time)","3","46","0","1724918814468"
"1087","f","SpeechGestureMatch","../RequiredFiles/videos/NeinKopfNein_m.mp4","Ist der Ball in der grünen Box?","Green","Blue","J","negation","match","speech","no","ThumbDown","male","gesture-speech","1920","1200","firefox","61.35","Linux","26","male","right","Thu Aug 29 2024 09:57:40 GMT+0200 (Central European Summer Time)","3","47","1","1724918814468"
"625","f","SpeechGestureMatch","../RequiredFiles/videos/JaKopfJa_f.mp4","Ist der Ball in der blauen Box?","Green","Blue","J","affirmation","match","speech","yes","ThumbUp","female","gesture-speech","1920","1200","firefox","61.35","Linux","26","male","right","Thu Aug 29 2024 09:57:47 GMT+0200 (Central European Summer Time)","3","48","1","1724918814468"
"1301","f","SpeechGestureMatch","../RequiredFiles/videos/JaKopfNein_m.mp4","Ist der Ball in der blauen Box?","Blue","Green","F","affirmation","mismatch","speech","yes","ThumbDown","male","gesture-speech","1920","1200","firefox","61.35","Linux","26","male","right","Thu Aug 29 2024 09:57:53 GMT+0200 (Central European Summer Time)","3","49","0","1724918814468"
"1095","j","SpeechGestureMatch","../RequiredFiles/videos/JaKopfNein_f.mp4","Ist der Ball in der blauen Box?","Green","Blue","J","affirmation","mismatch","speech","yes","ThumbDown","female","gesture-speech","1920","1200","firefox","61.35","Linux","26","male","right","Thu Aug 29 2024 09:58:00 GMT+0200 (Central European Summer Time)","3","50","0","1724918814468"
"768","f","SpeechGestureMatch","../RequiredFiles/videos/JaKopfJa_m.mp4","Ist der Ball in der blauen Box?","Green","Blue","J","affirmation","match","speech","yes","ThumbUp","male","gesture-speech","1920","1200","firefox","61.35","Linux","26","male","right","Thu Aug 29 2024 09:58:07 GMT+0200 (Central European Summer Time)","3","51","1","1724918814468"
"712","j","SpeechGestureMatch","../RequiredFiles/videos/NeinKopfNein_f.mp4","Ist der Ball in der blauen Box?","Green","Blue","F","negation","match","speech","no","ThumbDown","female","gesture-speech","1920","1200","firefox","61.35","Linux","26","male","right","Thu Aug 29 2024 09:58:13 GMT+0200 (Central European Summer Time)","3","52","1","1724918814468"
"591","f","SpeechGestureMatch","../RequiredFiles/videos/JaKopfJa_f.mp4","Ist der Ball in der grünen Box?","Green","Blue","F","affirmation","match","speech","yes","ThumbUp","female","gesture-speech","1920","1200","firefox","61.35","Linux","26","male","right","Thu Aug 29 2024 09:58:19 GMT+0200 (Central European Summer Time)","3","53","0","1724918814468"
"1031","j","SpeechGestureMatch","../RequiredFiles/videos/JaKopfNein_f.mp4","Ist der Ball in der blauen Box?","Green","Blue","J","affirmation","mismatch","speech","yes","ThumbDown","female","gesture-speech","1920","1200","firefox","61.35","Linux","26","male","right","Thu Aug 29 2024 09:58:26 GMT+0200 (Central European Summer Time)","3","54","0","1724918814468"
"975","f","SpeechGestureMatch","../RequiredFiles/videos/JaKopfNein_m.mp4","Ist der Ball in der grünen Box?","Blue","Green","J","affirmation","mismatch","speech","yes","ThumbDown","male","gesture-speech","1920","1200","firefox","61.35","Linux","26","male","right","Thu Aug 29 2024 09:58:32 GMT+0200 (Central European Summer Time)","3","55","1","1724918814468"
"818","j","SpeechGestureMatch","../RequiredFiles/videos/NeinKopfJa_m.mp4","Ist der Ball in der blauen Box?","Blue","Green","J","negation","mismatch","speech","no","ThumbUp","male","gesture-speech","1920","1200","firefox","61.35","Linux","26","male","right","Thu Aug 29 2024 09:58:39 GMT+0200 (Central European Summer Time)","3","56","0","1724918814468"
"946","j","SpeechGestureMatch","../RequiredFiles/videos/JaKopfJa_f.mp4","Ist der Ball in der grünen Box?","Green","Blue","F","affirmation","match","speech","yes","ThumbUp","female","gesture-speech","1920","1200","firefox","61.35","Linux","26","male","right","Thu Aug 29 2024 09:58:45 GMT+0200 (Central European Summer Time)","3","57","1","1724918814468"
"936","j","SpeechGestureMatch","../RequiredFiles/videos/NeinKopfJa_f.mp4","Ist der Ball in der blauen Box?","Blue","Green","J","negation","mismatch","speech","no","ThumbUp","female","gesture-speech","1920","1200","firefox","61.35","Linux","26","male","right","Thu Aug 29 2024 09:58:52 GMT+0200 (Central European Summer Time)","3","58","0","1724918814468"
"901","j","SpeechGestureMatch","../RequiredFiles/videos/JaKopfJa_m.mp4","Ist der Ball in der grünen Box?","Blue","Green","J","affirmation","match","speech","yes","ThumbUp","male","gesture-speech","1920","1200","firefox","61.35","Linux","26","male","right","Thu Aug 29 2024 09:58:58 GMT+0200 (Central European Summer Time)","3","59","0","1724918814468"
"1131","j","SpeechGestureMatch","../RequiredFiles/videos/JaKopfNein_m.mp4","Ist der Ball in der grünen Box?","Green","Blue","F","affirmation","mismatch","speech","yes","ThumbDown","male","gesture-speech","1920","1200","firefox","61.35","Linux","26","male","right","Thu Aug 29 2024 09:59:05 GMT+0200 (Central European Summer Time)","3","60","1","1724918814468"
"1200","j","SpeechGestureMatch","../RequiredFiles/videos/NeinKopfJa_f.mp4","Ist der Ball in der blauen Box?","Green","Blue","F","negation","mismatch","speech","no","ThumbUp","female","gesture-speech","1920","1200","firefox","61.35","Linux","26","male","right","Thu Aug 29 2024 09:59:12 GMT+0200 (Central European Summer Time)","3","61","1","1724918814468"
"966","j","SpeechGestureMatch","../RequiredFiles/videos/NeinKopfNein_f.mp4","Ist der Ball in der blauen Box?","Blue","Green","J","negation","match","speech","no","ThumbDown","female","gesture-speech","1920","1200","firefox","61.35","Linux","26","male","right","Thu Aug 29 2024 09:59:18 GMT+0200 (Central European Summer Time)","3","62","0","1724918814468"
"923","j","SpeechGestureMatch","../RequiredFiles/videos/NeinKopfNein_f.mp4","Ist der Ball in der blauen Box?","Blue","Green","J","negation","match","speech","no","ThumbDown","female","gesture-speech","1920","1200","firefox","61.35","Linux","26","male","right","Thu Aug 29 2024 09:59:25 GMT+0200 (Central European Summer Time)","3","63","0","1724918814468"
"918","f","SpeechGestureMatch","../RequiredFiles/videos/JaKopfNein_m.mp4","Ist der Ball in der blauen Box?","Green","Blue","J","affirmation","mismatch","speech","yes","ThumbDown","male","gesture-speech","1920","1200","firefox","61.35","Linux","26","male","right","Thu Aug 29 2024 09:59:31 GMT+0200 (Central European Summer Time)","3","64","1","1724918814468"
"876","j","SpeechGestureMatch","../RequiredFiles/videos/NeinKopfNein_f.mp4","Ist der Ball in der blauen Box?","Blue","Green","J","negation","match","speech","no","ThumbDown","female","gesture-speech","1920","1200","firefox","61.35","Linux","26","male","right","Thu Aug 29 2024 09:59:39 GMT+0200 (Central European Summer Time)","4","1","0","1724918814468"
"1209","j","SpeechGestureMatch","../RequiredFiles/videos/NeinKopfNein_m.mp4","Ist der Ball in der blauen Box?","Blue","Green","J","negation","match","speech","no","ThumbDown","male","gesture-speech","1920","1200","firefox","61.35","Linux","26","male","right","Thu Aug 29 2024 09:59:46 GMT+0200 (Central European Summer Time)","4","2","0","1724918814468"
"1009","f","SpeechGestureMatch","../RequiredFiles/videos/JaKopfJa_f.mp4","Ist der Ball in der grünen Box?","Green","Blue","F","affirmation","match","speech","yes","ThumbUp","female","gesture-speech","1920","1200","firefox","61.35","Linux","26","male","right","Thu Aug 29 2024 09:59:52 GMT+0200 (Central European Summer Time)","4","3","0","1724918814468"
"932","j","SpeechGestureMatch","../RequiredFiles/videos/NeinKopfNein_f.mp4","Ist der Ball in der grünen Box?","Green","Blue","J","negation","match","speech","no","ThumbDown","female","gesture-speech","1920","1200","firefox","61.35","Linux","26","male","right","Thu Aug 29 2024 09:59:59 GMT+0200 (Central European Summer Time)","4","4","0","1724918814468"
"866","j","SpeechGestureMatch","../RequiredFiles/videos/JaKopfJa_f.mp4","Ist der Ball in der blauen Box?","Blue","Green","F","affirmation","match","speech","yes","ThumbUp","female","gesture-speech","1920","1200","firefox","61.35","Linux","26","male","right","Thu Aug 29 2024 10:00:05 GMT+0200 (Central European Summer Time)","4","5","1","1724918814468"
"792","f","SpeechGestureMatch","../RequiredFiles/videos/NeinKopfNein_f.mp4","Ist der Ball in der blauen Box?","Green","Blue","F","negation","match","speech","no","ThumbDown","female","gesture-speech","1920","1200","firefox","61.35","Linux","26","male","right","Thu Aug 29 2024 10:00:12 GMT+0200 (Central European Summer Time)","4","6","0","1724918814468"
"1010","f","SpeechGestureMatch","../RequiredFiles/videos/JaKopfNein_f.mp4","Ist der Ball in der grünen Box?","Blue","Green","J","affirmation","mismatch","speech","yes","ThumbDown","female","gesture-speech","1920","1200","firefox","61.35","Linux","26","male","right","Thu Aug 29 2024 10:00:18 GMT+0200 (Central European Summer Time)","4","7","1","1724918814468"
"641","j","SpeechGestureMatch","../RequiredFiles/videos/NeinKopfNein_m.mp4","Ist der Ball in der blauen Box?","Blue","Green","J","negation","match","speech","no","ThumbDown","male","gesture-speech","1920","1200","firefox","61.35","Linux","26","male","right","Thu Aug 29 2024 10:00:24 GMT+0200 (Central European Summer Time)","4","8","0","1724918814468"
"861","f","SpeechGestureMatch","../RequiredFiles/videos/JaKopfNein_m.mp4","Ist der Ball in der blauen Box?","Green","Blue","J","affirmation","mismatch","speech","yes","ThumbDown","male","gesture-speech","1920","1200","firefox","61.35","Linux","26","male","right","Thu Aug 29 2024 10:00:31 GMT+0200 (Central European Summer Time)","4","9","1","1724918814468"
"942","j","SpeechGestureMatch","../RequiredFiles/videos/NeinKopfNein_m.mp4","Ist der Ball in der grünen Box?","Green","Blue","J","negation","match","speech","no","ThumbDown","male","gesture-speech","1920","1200","firefox","61.35","Linux","26","male","right","Thu Aug 29 2024 10:00:37 GMT+0200 (Central European Summer Time)","4","10","0","1724918814468"
"930","f","SpeechGestureMatch","../RequiredFiles/videos/JaKopfNein_f.mp4","Ist der Ball in der blauen Box?","Blue","Green","F","affirmation","mismatch","speech","yes","ThumbDown","female","gesture-speech","1920","1200","firefox","61.35","Linux","26","male","right","Thu Aug 29 2024 10:00:44 GMT+0200 (Central European Summer Time)","4","11","0","1724918814468"
"798","f","SpeechGestureMatch","../RequiredFiles/videos/JaKopfNein_f.mp4","Ist der Ball in der grünen Box?","Blue","Green","J","affirmation","mismatch","speech","yes","ThumbDown","female","gesture-speech","1920","1200","firefox","61.35","Linux","26","male","right","Thu Aug 29 2024 10:00:50 GMT+0200 (Central European Summer Time)","4","12","1","1724918814468"
"20856","j","SpeechGestureMatch","../RequiredFiles/videos/JaKopfJa_f.mp4","Ist der Ball in der grünen Box?","Green","Blue","F","affirmation","match","speech","yes","ThumbUp","female","gesture-speech","1920","1200","firefox","61.35","Linux","26","male","right","Thu Aug 29 2024 10:01:16 GMT+0200 (Central European Summer Time)","4","13","1","1724918814468"
"944","j","SpeechGestureMatch","../RequiredFiles/videos/JaKopfNein_f.mp4","Ist der Ball in der blauen Box?","Green","Blue","J","affirmation","mismatch","speech","yes","ThumbDown","female","gesture-speech","1920","1200","firefox","61.35","Linux","26","male","right","Thu Aug 29 2024 10:01:23 GMT+0200 (Central European Summer Time)","4","14","0","1724918814468"
"808","f","SpeechGestureMatch","../RequiredFiles/videos/JaKopfNein_f.mp4","Ist der Ball in der blauen Box?","Green","Blue","J","affirmation","mismatch","speech","yes","ThumbDown","female","gesture-speech","1920","1200","firefox","61.35","Linux","26","male","right","Thu Aug 29 2024 10:01:29 GMT+0200 (Central European Summer Time)","4","15","1","1724918814468"
"897","j","SpeechGestureMatch","../RequiredFiles/videos/NeinKopfJa_f.mp4","Ist der Ball in der blauen Box?","Blue","Green","J","negation","mismatch","speech","no","ThumbUp","female","gesture-speech","1920","1200","firefox","61.35","Linux","26","male","right","Thu Aug 29 2024 10:01:36 GMT+0200 (Central European Summer Time)","4","16","0","1724918814468"
"936","j","SpeechGestureMatch","../RequiredFiles/videos/NeinKopfNein_m.mp4","Ist der Ball in der blauen Box?","Green","Blue","F","negation","match","speech","no","ThumbDown","male","gesture-speech","1920","1200","firefox","61.35","Linux","26","male","right","Thu Aug 29 2024 10:01:42 GMT+0200 (Central European Summer Time)","4","17","1","1724918814468"
"1124","j","SpeechGestureMatch","../RequiredFiles/videos/NeinKopfJa_m.mp4","Ist der Ball in der grünen Box?","Blue","Green","F","negation","mismatch","speech","no","ThumbUp","male","gesture-speech","1920","1200","firefox","61.35","Linux","26","male","right","Thu Aug 29 2024 10:01:49 GMT+0200 (Central European Summer Time)","4","18","1","1724918814468"
"910","f","SpeechGestureMatch","../RequiredFiles/videos/NeinKopfNein_f.mp4","Ist der Ball in der blauen Box?","Green","Blue","F","negation","match","speech","no","ThumbDown","female","gesture-speech","1920","1200","firefox","61.35","Linux","26","male","right","Thu Aug 29 2024 10:01:56 GMT+0200 (Central European Summer Time)","4","19","0","1724918814468"
"602","f","SpeechGestureMatch","../RequiredFiles/videos/JaKopfJa_m.mp4","Ist der Ball in der blauen Box?","Blue","Green","F","affirmation","match","speech","yes","ThumbUp","male","gesture-speech","1920","1200","firefox","61.35","Linux","26","male","right","Thu Aug 29 2024 10:02:02 GMT+0200 (Central European Summer Time)","4","20","0","1724918814468"
"825","f","SpeechGestureMatch","../RequiredFiles/videos/JaKopfNein_m.mp4","Ist der Ball in der blauen Box?","Blue","Green","F","affirmation","mismatch","speech","yes","ThumbDown","male","gesture-speech","1920","1200","firefox","61.35","Linux","26","male","right","Thu Aug 29 2024 10:02:08 GMT+0200 (Central European Summer Time)","4","21","0","1724918814468"
"944","f","SpeechGestureMatch","../RequiredFiles/videos/NeinKopfNein_m.mp4","Ist der Ball in der grünen Box?","Green","Blue","J","negation","match","speech","no","ThumbDown","male","gesture-speech","1920","1200","firefox","61.35","Linux","26","male","right","Thu Aug 29 2024 10:02:15 GMT+0200 (Central European Summer Time)","4","22","1","1724918814468"
"1253","f","SpeechGestureMatch","../RequiredFiles/videos/NeinKopfNein_m.mp4","Ist der Ball in der grünen Box?","Blue","Green","F","negation","match","speech","no","ThumbDown","male","gesture-speech","1920","1200","firefox","61.35","Linux","26","male","right","Thu Aug 29 2024 10:02:21 GMT+0200 (Central European Summer Time)","4","23","0","1724918814468"
"868","f","SpeechGestureMatch","../RequiredFiles/videos/NeinKopfNein_f.mp4","Ist der Ball in der grünen Box?","Blue","Green","F","negation","match","speech","no","ThumbDown","female","gesture-speech","1920","1200","firefox","61.35","Linux","26","male","right","Thu Aug 29 2024 10:02:28 GMT+0200 (Central European Summer Time)","4","24","0","1724918814468"
"969","j","SpeechGestureMatch","../RequiredFiles/videos/JaKopfJa_m.mp4","Ist der Ball in der grünen Box?","Blue","Green","J","affirmation","match","speech","yes","ThumbUp","male","gesture-speech","1920","1200","firefox","61.35","Linux","26","male","right","Thu Aug 29 2024 10:02:34 GMT+0200 (Central European Summer Time)","4","25","0","1724918814468"
"927","f","SpeechGestureMatch","../RequiredFiles/videos/NeinKopfJa_m.mp4","Ist der Ball in der blauen Box?","Green","Blue","F","negation","mismatch","speech","no","ThumbUp","male","gesture-speech","1920","1200","firefox","61.35","Linux","26","male","right","Thu Aug 29 2024 10:02:41 GMT+0200 (Central European Summer Time)","4","26","0","1724918814468"
"1333","f","SpeechGestureMatch","../RequiredFiles/videos/JaKopfNein_m.mp4","Ist der Ball in der blauen Box?","Blue","Green","F","affirmation","mismatch","speech","yes","ThumbDown","male","gesture-speech","1920","1200","firefox","61.35","Linux","26","male","right","Thu Aug 29 2024 10:02:48 GMT+0200 (Central European Summer Time)","4","27","0","1724918814468"
"1051","j","SpeechGestureMatch","../RequiredFiles/videos/JaKopfJa_f.mp4","Ist der Ball in der grünen Box?","Blue","Green","J","affirmation","match","speech","yes","ThumbUp","female","gesture-speech","1920","1200","firefox","61.35","Linux","26","male","right","Thu Aug 29 2024 10:02:55 GMT+0200 (Central European Summer Time)","4","28","0","1724918814468"
"892","j","SpeechGestureMatch","../RequiredFiles/videos/NeinKopfJa_f.mp4","Ist der Ball in der blauen Box?","Green","Blue","F","negation","mismatch","speech","no","ThumbUp","female","gesture-speech","1920","1200","firefox","61.35","Linux","26","male","right","Thu Aug 29 2024 10:03:01 GMT+0200 (Central European Summer Time)","4","29","1","1724918814468"
"1119","j","SpeechGestureMatch","../RequiredFiles/videos/JaKopfNein_m.mp4","Ist der Ball in der blauen Box?","Green","Blue","J","affirmation","mismatch","speech","yes","ThumbDown","male","gesture-speech","1920","1200","firefox","61.35","Linux","26","male","right","Thu Aug 29 2024 10:03:08 GMT+0200 (Central European Summer Time)","4","30","0","1724918814468"
"878","j","SpeechGestureMatch","../RequiredFiles/videos/JaKopfJa_m.mp4","Ist der Ball in der blauen Box?","Green","Blue","J","affirmation","match","speech","yes","ThumbUp","male","gesture-speech","1920","1200","firefox","61.35","Linux","26","male","right","Thu Aug 29 2024 10:03:14 GMT+0200 (Central European Summer Time)","4","31","0","1724918814468"
"805","j","SpeechGestureMatch","../RequiredFiles/videos/NeinKopfNein_f.mp4","Ist der Ball in der grünen Box?","Blue","Green","F","negation","match","speech","no","ThumbDown","female","gesture-speech","1920","1200","firefox","61.35","Linux","26","male","right","Thu Aug 29 2024 10:03:21 GMT+0200 (Central European Summer Time)","4","32","1","1724918814468"
"1088","f","SpeechGestureMatch","../RequiredFiles/videos/NeinKopfJa_f.mp4","Ist der Ball in der grünen Box?","Blue","Green","F","negation","mismatch","speech","no","ThumbUp","female","gesture-speech","1920","1200","firefox","61.35","Linux","26","male","right","Thu Aug 29 2024 10:03:27 GMT+0200 (Central European Summer Time)","4","33","0","1724918814468"
"848","j","SpeechGestureMatch","../RequiredFiles/videos/JaKopfJa_f.mp4","Ist der Ball in der blauen Box?","Green","Blue","J","affirmation","match","speech","yes","ThumbUp","female","gesture-speech","1920","1200","firefox","61.35","Linux","26","male","right","Thu Aug 29 2024 10:03:34 GMT+0200 (Central European Summer Time)","4","34","0","1724918814468"
"1048","j","SpeechGestureMatch","../RequiredFiles/videos/NeinKopfNein_m.mp4","Ist der Ball in der grünen Box?","Blue","Green","F","negation","match","speech","no","ThumbDown","male","gesture-speech","1920","1200","firefox","61.35","Linux","26","male","right","Thu Aug 29 2024 10:03:40 GMT+0200 (Central European Summer Time)","4","35","1","1724918814468"
"821","f","SpeechGestureMatch","../RequiredFiles/videos/JaKopfNein_m.mp4","Ist der Ball in der grünen Box?","Blue","Green","J","affirmation","mismatch","speech","yes","ThumbDown","male","gesture-speech","1920","1200","firefox","61.35","Linux","26","male","right","Thu Aug 29 2024 10:03:47 GMT+0200 (Central European Summer Time)","4","36","1","1724918814468"
"801","j","SpeechGestureMatch","../RequiredFiles/videos/JaKopfNein_m.mp4","Ist der Ball in der grünen Box?","Blue","Green","J","affirmation","mismatch","speech","yes","ThumbDown","male","gesture-speech","1920","1200","firefox","61.35","Linux","26","male","right","Thu Aug 29 2024 10:03:53 GMT+0200 (Central European Summer Time)","4","37","0","1724918814468"
"840","f","SpeechGestureMatch","../RequiredFiles/videos/JaKopfJa_f.mp4","Ist der Ball in der blauen Box?","Blue","Green","F","affirmation","match","speech","yes","ThumbUp","female","gesture-speech","1920","1200","firefox","61.35","Linux","26","male","right","Thu Aug 29 2024 10:03:59 GMT+0200 (Central European Summer Time)","4","38","0","1724918814468"
"998","f","SpeechGestureMatch","../RequiredFiles/videos/JaKopfNein_m.mp4","Ist der Ball in der grünen Box?","Green","Blue","F","affirmation","mismatch","speech","yes","ThumbDown","male","gesture-speech","1920","1200","firefox","61.35","Linux","26","male","right","Thu Aug 29 2024 10:04:06 GMT+0200 (Central European Summer Time)","4","39","0","1724918814468"
"671","f","SpeechGestureMatch","../RequiredFiles/videos/JaKopfJa_m.mp4","Ist der Ball in der grünen Box?","Green","Blue","F","affirmation","match","speech","yes","ThumbUp","male","gesture-speech","1920","1200","firefox","61.35","Linux","26","male","right","Thu Aug 29 2024 10:04:12 GMT+0200 (Central European Summer Time)","4","40","0","1724918814468"
"950","j","SpeechGestureMatch","../RequiredFiles/videos/NeinKopfNein_f.mp4","Ist der Ball in der grünen Box?","Green","Blue","J","negation","match","speech","no","ThumbDown","female","gesture-speech","1920","1200","firefox","61.35","Linux","26","male","right","Thu Aug 29 2024 10:04:19 GMT+0200 (Central European Summer Time)","4","41","0","1724918814468"
"839","f","SpeechGestureMatch","../RequiredFiles/videos/NeinKopfJa_m.mp4","Ist der Ball in der blauen Box?","Blue","Green","J","negation","mismatch","speech","no","ThumbUp","male","gesture-speech","1920","1200","firefox","61.35","Linux","26","male","right","Thu Aug 29 2024 10:04:25 GMT+0200 (Central European Summer Time)","4","42","1","1724918814468"
"919","f","SpeechGestureMatch","../RequiredFiles/videos/JaKopfNein_f.mp4","Ist der Ball in der grünen Box?","Green","Blue","F","affirmation","mismatch","speech","yes","ThumbDown","female","gesture-speech","1920","1200","firefox","61.35","Linux","26","male","right","Thu Aug 29 2024 10:04:32 GMT+0200 (Central European Summer Time)","4","43","0","1724918814468"
"802","f","SpeechGestureMatch","../RequiredFiles/videos/NeinKopfJa_m.mp4","Ist der Ball in der blauen Box?","Blue","Green","J","negation","mismatch","speech","no","ThumbUp","male","gesture-speech","1920","1200","firefox","61.35","Linux","26","male","right","Thu Aug 29 2024 10:04:38 GMT+0200 (Central European Summer Time)","4","44","1","1724918814468"
"1008","f","SpeechGestureMatch","../RequiredFiles/videos/NeinKopfJa_m.mp4","Ist der Ball in der grünen Box?","Blue","Green","F","negation","mismatch","speech","no","ThumbUp","male","gesture-speech","1920","1200","firefox","61.35","Linux","26","male","right","Thu Aug 29 2024 10:04:45 GMT+0200 (Central European Summer Time)","4","45","0","1724918814468"
"775","j","SpeechGestureMatch","../RequiredFiles/videos/JaKopfJa_f.mp4","Ist der Ball in der grünen Box?","Blue","Green","J","affirmation","match","speech","yes","ThumbUp","female","gesture-speech","1920","1200","firefox","61.35","Linux","26","male","right","Thu Aug 29 2024 10:04:51 GMT+0200 (Central European Summer Time)","4","46","0","1724918814468"
"888","j","SpeechGestureMatch","../RequiredFiles/videos/JaKopfJa_m.mp4","Ist der Ball in der blauen Box?","Blue","Green","F","affirmation","match","speech","yes","ThumbUp","male","gesture-speech","1920","1200","firefox","61.35","Linux","26","male","right","Thu Aug 29 2024 10:04:57 GMT+0200 (Central European Summer Time)","4","47","1","1724918814468"
"1010","f","SpeechGestureMatch","../RequiredFiles/videos/JaKopfNein_f.mp4","Ist der Ball in der blauen Box?","Blue","Green","F","affirmation","mismatch","speech","yes","ThumbDown","female","gesture-speech","1920","1200","firefox","61.35","Linux","26","male","right","Thu Aug 29 2024 10:05:04 GMT+0200 (Central European Summer Time)","4","48","0","1724918814468"
"745","f","SpeechGestureMatch","../RequiredFiles/videos/JaKopfNein_f.mp4","Ist der Ball in der grünen Box?","Green","Blue","F","affirmation","mismatch","speech","yes","ThumbDown","female","gesture-speech","1920","1200","firefox","61.35","Linux","26","male","right","Thu Aug 29 2024 10:05:10 GMT+0200 (Central European Summer Time)","4","49","0","1724918814468"
"904","j","SpeechGestureMatch","../RequiredFiles/videos/NeinKopfJa_f.mp4","Ist der Ball in der grünen Box?","Green","Blue","J","negation","mismatch","speech","no","ThumbUp","female","gesture-speech","1920","1200","firefox","61.35","Linux","26","male","right","Thu Aug 29 2024 10:05:16 GMT+0200 (Central European Summer Time)","4","50","0","1724918814468"
"1580","f","SpeechGestureMatch","../RequiredFiles/videos/JaKopfNein_m.mp4","Ist der Ball in der grünen Box?","Green","Blue","F","affirmation","mismatch","speech","yes","ThumbDown","male","gesture-speech","1920","1200","firefox","61.35","Linux","26","male","right","Thu Aug 29 2024 10:05:24 GMT+0200 (Central European Summer Time)","4","51","0","1724918814468"
"2067","j","SpeechGestureMatch","../RequiredFiles/videos/NeinKopfJa_f.mp4","Ist der Ball in der grünen Box?","Green","Blue","J","negation","mismatch","speech","no","ThumbUp","female","gesture-speech","1920","1200","firefox","61.35","Linux","26","male","right","Thu Aug 29 2024 10:05:31 GMT+0200 (Central European Summer Time)","4","52","0","1724918814468"
"910","j","SpeechGestureMatch","../RequiredFiles/videos/NeinKopfNein_f.mp4","Ist der Ball in der blauen Box?","Blue","Green","J","negation","match","speech","no","ThumbDown","female","gesture-speech","1920","1200","firefox","61.35","Linux","26","male","right","Thu Aug 29 2024 10:05:38 GMT+0200 (Central European Summer Time)","4","53","0","1724918814468"
"930","f","SpeechGestureMatch","../RequiredFiles/videos/JaKopfJa_m.mp4","Ist der Ball in der blauen Box?","Green","Blue","J","affirmation","match","speech","yes","ThumbUp","male","gesture-speech","1920","1200","firefox","61.35","Linux","26","male","right","Thu Aug 29 2024 10:05:44 GMT+0200 (Central European Summer Time)","4","54","1","1724918814468"
"1767","f","SpeechGestureMatch","../RequiredFiles/videos/NeinKopfNein_m.mp4","Ist der Ball in der blauen Box?","Green","Blue","F","negation","match","speech","no","ThumbDown","male","gesture-speech","1920","1200","firefox","61.35","Linux","26","male","right","Thu Aug 29 2024 10:05:51 GMT+0200 (Central European Summer Time)","4","55","0","1724918814468"
"767","f","SpeechGestureMatch","../RequiredFiles/videos/NeinKopfJa_f.mp4","Ist der Ball in der grünen Box?","Blue","Green","F","negation","mismatch","speech","no","ThumbUp","female","gesture-speech","1920","1200","firefox","61.35","Linux","26","male","right","Thu Aug 29 2024 10:05:58 GMT+0200 (Central European Summer Time)","4","56","0","1724918814468"
"741","f","SpeechGestureMatch","../RequiredFiles/videos/NeinKopfJa_m.mp4","Ist der Ball in der blauen Box?","Green","Blue","F","negation","mismatch","speech","no","ThumbUp","male","gesture-speech","1920","1200","firefox","61.35","Linux","26","male","right","Thu Aug 29 2024 10:06:04 GMT+0200 (Central European Summer Time)","4","57","0","1724918814468"
"1250","j","SpeechGestureMatch","../RequiredFiles/videos/JaKopfJa_f.mp4","Ist der Ball in der blauen Box?","Green","Blue","J","affirmation","match","speech","yes","ThumbUp","female","gesture-speech","1920","1200","firefox","61.35","Linux","26","male","right","Thu Aug 29 2024 10:06:11 GMT+0200 (Central European Summer Time)","4","58","0","1724918814468"
"838","j","SpeechGestureMatch","../RequiredFiles/videos/JaKopfJa_m.mp4","Ist der Ball in der grünen Box?","Blue","Green","J","affirmation","match","speech","yes","ThumbUp","male","gesture-speech","1920","1200","firefox","61.35","Linux","26","male","right","Thu Aug 29 2024 10:06:17 GMT+0200 (Central European Summer Time)","4","59","0","1724918814468"
"863","j","SpeechGestureMatch","../RequiredFiles/videos/NeinKopfJa_f.mp4","Ist der Ball in der blauen Box?","Blue","Green","J","negation","mismatch","speech","no","ThumbUp","female","gesture-speech","1920","1200","firefox","61.35","Linux","26","male","right","Thu Aug 29 2024 10:06:23 GMT+0200 (Central European Summer Time)","4","60","0","1724918814468"
"833","f","SpeechGestureMatch","../RequiredFiles/videos/NeinKopfJa_m.mp4","Ist der Ball in der grünen Box?","Green","Blue","J","negation","mismatch","speech","no","ThumbUp","male","gesture-speech","1920","1200","firefox","61.35","Linux","26","male","right","Thu Aug 29 2024 10:06:30 GMT+0200 (Central European Summer Time)","4","61","1","1724918814468"
"817","f","SpeechGestureMatch","../RequiredFiles/videos/NeinKopfJa_m.mp4","Ist der Ball in der grünen Box?","Green","Blue","J","negation","mismatch","speech","no","ThumbUp","male","gesture-speech","1920","1200","firefox","61.35","Linux","26","male","right","Thu Aug 29 2024 10:06:36 GMT+0200 (Central European Summer Time)","4","62","1","1724918814468"
"696","j","SpeechGestureMatch","../RequiredFiles/videos/NeinKopfJa_f.mp4","Ist der Ball in der blauen Box?","Green","Blue","F","negation","mismatch","speech","no","ThumbUp","female","gesture-speech","1920","1200","firefox","61.35","Linux","26","male","right","Thu Aug 29 2024 10:06:42 GMT+0200 (Central European Summer Time)","4","63","1","1724918814468"
"907","f","SpeechGestureMatch","../RequiredFiles/videos/JaKopfJa_m.mp4","Ist der Ball in der grünen Box?","Green","Blue","F","affirmation","match","speech","yes","ThumbUp","male","gesture-speech","1920","1200","firefox","61.35","Linux","26","male","right","Thu Aug 29 2024 10:06:49 GMT+0200 (Central European Summer Time)","4","64","0","1724918814468"
