"rt","response","stim","video","question","box_colour_left","box_colour_right","correct_key","polarity","matching","modality","verbal","gesture","speaker","order","width","height","browser","vsync_rate","os","age","gender","handedness","date","blockNum","trialNum","error","vpNum"
"630","f","SpeechGestureMatch","../RequiredFiles/videos/JaDaumenhoch_m.mp4","Ist der Ball in der grünen Box?","Green","Blue","F","affirmation","match","gesture","yes","ThumbUp","male","gesture-speech","1422","800","edge-chromium","60.27","Windows 10","22","male","right","Mon Aug 19 2024 21:23:05 GMT+0200 (Mitteleuropäische Sommerzeit)","1","1","0","1724097256898"
"544","j","SpeechGestureMatch","../RequiredFiles/videos/JaDaumenrunter_m.mp4","Ist der Ball in der grünen Box?","Green","Blue","J","negation","mismatch","gesture","yes","ThumbDown","male","gesture-speech","1422","800","edge-chromium","60.27","Windows 10","22","male","right","Mon Aug 19 2024 21:23:11 GMT+0200 (Mitteleuropäische Sommerzeit)","1","2","0","1724097256898"
"631","f","SpeechGestureMatch","../RequiredFiles/videos/NeinDaumenhoch_m.mp4","Ist der Ball in der blauen Box?","Blue","Green","F","affirmation","mismatch","gesture","no","ThumbUp","male","gesture-speech","1422","800","edge-chromium","60.27","Windows 10","22","male","right","Mon Aug 19 2024 21:23:17 GMT+0200 (Mitteleuropäische Sommerzeit)","1","3","0","1724097256898"
"876","j","SpeechGestureMatch","../RequiredFiles/videos/NeinDaumenrunter_f.mp4","Ist der Ball in der grünen Box?","Green","Blue","J","negation","match","gesture","no","ThumbDown","female","gesture-speech","1422","800","edge-chromium","60.27","Windows 10","22","male","right","Mon Aug 19 2024 21:23:23 GMT+0200 (Mitteleuropäische Sommerzeit)","1","4","0","1724097256898"
"694","j","SpeechGestureMatch","../RequiredFiles/videos/JaDaumenhoch_f.mp4","Ist der Ball in der grünen Box?","Blue","Green","J","affirmation","match","gesture","yes","ThumbUp","female","gesture-speech","1422","800","edge-chromium","60.27","Windows 10","22","male","right","Mon Aug 19 2024 21:23:30 GMT+0200 (Mitteleuropäische Sommerzeit)","1","5","0","1724097256898"
"666","j","SpeechGestureMatch","../RequiredFiles/videos/NeinDaumenrunter_m.mp4","Ist der Ball in der blauen Box?","Blue","Green","J","negation","match","gesture","no","ThumbDown","male","gesture-speech","1422","800","edge-chromium","60.27","Windows 10","22","male","right","Mon Aug 19 2024 21:23:36 GMT+0200 (Mitteleuropäische Sommerzeit)","1","6","0","1724097256898"
"558","j","SpeechGestureMatch","../RequiredFiles/videos/NeinDaumenrunter_m.mp4","Ist der Ball in der grünen Box?","Blue","Green","F","negation","match","gesture","no","ThumbDown","male","gesture-speech","1422","800","edge-chromium","60.27","Windows 10","22","male","right","Mon Aug 19 2024 21:23:42 GMT+0200 (Mitteleuropäische Sommerzeit)","1","7","1","1724097256898"
"681","f","SpeechGestureMatch","../RequiredFiles/videos/JaDaumenhoch_f.mp4","Ist der Ball in der grünen Box?","Green","Blue","F","affirmation","match","gesture","yes","ThumbUp","female","gesture-speech","1422","800","edge-chromium","60.27","Windows 10","22","male","right","Mon Aug 19 2024 21:23:48 GMT+0200 (Mitteleuropäische Sommerzeit)","1","8","0","1724097256898"
"671","j","SpeechGestureMatch","../RequiredFiles/videos/JaDaumenhoch_m.mp4","Ist der Ball in der blauen Box?","Green","Blue","J","affirmation","match","gesture","yes","ThumbUp","male","gesture-speech","1422","800","edge-chromium","60.27","Windows 10","22","male","right","Mon Aug 19 2024 21:23:54 GMT+0200 (Mitteleuropäische Sommerzeit)","1","9","0","1724097256898"
"845","f","SpeechGestureMatch","../RequiredFiles/videos/JaDaumenrunter_m.mp4","Ist der Ball in der grünen Box?","Blue","Green","F","negation","mismatch","gesture","yes","ThumbDown","male","gesture-speech","1422","800","edge-chromium","60.27","Windows 10","22","male","right","Mon Aug 19 2024 21:24:01 GMT+0200 (Mitteleuropäische Sommerzeit)","1","10","0","1724097256898"
"822","j","SpeechGestureMatch","../RequiredFiles/videos/NeinDaumenrunter_f.mp4","Ist der Ball in der blauen Box?","Blue","Green","J","negation","match","gesture","no","ThumbDown","female","gesture-speech","1422","800","edge-chromium","60.27","Windows 10","22","male","right","Mon Aug 19 2024 21:24:07 GMT+0200 (Mitteleuropäische Sommerzeit)","1","11","0","1724097256898"
"696","j","SpeechGestureMatch","../RequiredFiles/videos/JaDaumenhoch_f.mp4","Ist der Ball in der grünen Box?","Blue","Green","J","affirmation","match","gesture","yes","ThumbUp","female","gesture-speech","1422","800","edge-chromium","60.27","Windows 10","22","male","right","Mon Aug 19 2024 21:24:13 GMT+0200 (Mitteleuropäische Sommerzeit)","1","12","0","1724097256898"
"904","j","SpeechGestureMatch","../RequiredFiles/videos/JaDaumenrunter_m.mp4","Ist der Ball in der blauen Box?","Blue","Green","J","negation","mismatch","gesture","yes","ThumbDown","male","gesture-speech","1422","800","edge-chromium","60.27","Windows 10","22","male","right","Mon Aug 19 2024 21:24:20 GMT+0200 (Mitteleuropäische Sommerzeit)","1","13","0","1724097256898"
"962","f","SpeechGestureMatch","../RequiredFiles/videos/NeinDaumenhoch_f.mp4","Ist der Ball in der grünen Box?","Green","Blue","F","affirmation","mismatch","gesture","no","ThumbUp","female","gesture-speech","1422","800","edge-chromium","60.27","Windows 10","22","male","right","Mon Aug 19 2024 21:24:26 GMT+0200 (Mitteleuropäische Sommerzeit)","1","14","0","1724097256898"
"801","f","SpeechGestureMatch","../RequiredFiles/videos/JaDaumenrunter_m.mp4","Ist der Ball in der grünen Box?","Blue","Green","F","negation","mismatch","gesture","yes","ThumbDown","male","gesture-speech","1422","800","edge-chromium","60.27","Windows 10","22","male","right","Mon Aug 19 2024 21:24:33 GMT+0200 (Mitteleuropäische Sommerzeit)","1","15","0","1724097256898"
"624","j","SpeechGestureMatch","../RequiredFiles/videos/NeinDaumenhoch_m.mp4","Ist der Ball in der grünen Box?","Blue","Green","J","affirmation","mismatch","gesture","no","ThumbUp","male","gesture-speech","1422","800","edge-chromium","60.27","Windows 10","22","male","right","Mon Aug 19 2024 21:24:39 GMT+0200 (Mitteleuropäische Sommerzeit)","1","16","0","1724097256898"
"905","f","SpeechGestureMatch","../RequiredFiles/videos/NeinDaumenrunter_f.mp4","Ist der Ball in der grünen Box?","Blue","Green","F","negation","match","gesture","no","ThumbDown","female","gesture-speech","1422","800","edge-chromium","60.27","Windows 10","22","male","right","Mon Aug 19 2024 21:24:45 GMT+0200 (Mitteleuropäische Sommerzeit)","1","17","0","1724097256898"
"631","j","SpeechGestureMatch","../RequiredFiles/videos/NeinDaumenhoch_f.mp4","Ist der Ball in der blauen Box?","Green","Blue","J","affirmation","mismatch","gesture","no","ThumbUp","female","gesture-speech","1422","800","edge-chromium","60.27","Windows 10","22","male","right","Mon Aug 19 2024 21:24:51 GMT+0200 (Mitteleuropäische Sommerzeit)","1","18","0","1724097256898"
"634","f","SpeechGestureMatch","../RequiredFiles/videos/NeinDaumenhoch_f.mp4","Ist der Ball in der blauen Box?","Blue","Green","F","affirmation","mismatch","gesture","no","ThumbUp","female","gesture-speech","1422","800","edge-chromium","60.27","Windows 10","22","male","right","Mon Aug 19 2024 21:24:58 GMT+0200 (Mitteleuropäische Sommerzeit)","1","19","0","1724097256898"
"748","j","SpeechGestureMatch","../RequiredFiles/videos/NeinDaumenhoch_f.mp4","Ist der Ball in der grünen Box?","Blue","Green","J","affirmation","mismatch","gesture","no","ThumbUp","female","gesture-speech","1422","800","edge-chromium","60.27","Windows 10","22","male","right","Mon Aug 19 2024 21:25:04 GMT+0200 (Mitteleuropäische Sommerzeit)","1","20","0","1724097256898"
"914","j","SpeechGestureMatch","../RequiredFiles/videos/NeinDaumenrunter_f.mp4","Ist der Ball in der grünen Box?","Green","Blue","J","negation","match","gesture","no","ThumbDown","female","gesture-speech","1422","800","edge-chromium","60.27","Windows 10","22","male","right","Mon Aug 19 2024 21:25:10 GMT+0200 (Mitteleuropäische Sommerzeit)","1","21","0","1724097256898"
"664","f","SpeechGestureMatch","../RequiredFiles/videos/NeinDaumenhoch_f.mp4","Ist der Ball in der blauen Box?","Blue","Green","F","affirmation","mismatch","gesture","no","ThumbUp","female","gesture-speech","1422","800","edge-chromium","60.27","Windows 10","22","male","right","Mon Aug 19 2024 21:25:17 GMT+0200 (Mitteleuropäische Sommerzeit)","1","22","0","1724097256898"
"798","j","SpeechGestureMatch","../RequiredFiles/videos/NeinDaumenhoch_f.mp4","Ist der Ball in der blauen Box?","Green","Blue","J","affirmation","mismatch","gesture","no","ThumbUp","female","gesture-speech","1422","800","edge-chromium","60.27","Windows 10","22","male","right","Mon Aug 19 2024 21:25:23 GMT+0200 (Mitteleuropäische Sommerzeit)","1","23","0","1724097256898"
"715","j","SpeechGestureMatch","../RequiredFiles/videos/NeinDaumenrunter_m.mp4","Ist der Ball in der blauen Box?","Blue","Green","J","negation","match","gesture","no","ThumbDown","male","gesture-speech","1422","800","edge-chromium","60.27","Windows 10","22","male","right","Mon Aug 19 2024 21:25:29 GMT+0200 (Mitteleuropäische Sommerzeit)","1","24","0","1724097256898"
"693","j","SpeechGestureMatch","../RequiredFiles/videos/JaDaumenrunter_f.mp4","Ist der Ball in der grünen Box?","Green","Blue","J","negation","mismatch","gesture","yes","ThumbDown","female","gesture-speech","1422","800","edge-chromium","60.27","Windows 10","22","male","right","Mon Aug 19 2024 21:25:36 GMT+0200 (Mitteleuropäische Sommerzeit)","1","25","0","1724097256898"
"647","f","SpeechGestureMatch","../RequiredFiles/videos/JaDaumenhoch_m.mp4","Ist der Ball in der blauen Box?","Blue","Green","F","affirmation","match","gesture","yes","ThumbUp","male","gesture-speech","1422","800","edge-chromium","60.27","Windows 10","22","male","right","Mon Aug 19 2024 21:25:42 GMT+0200 (Mitteleuropäische Sommerzeit)","1","26","0","1724097256898"
"719","j","SpeechGestureMatch","../RequiredFiles/videos/JaDaumenrunter_f.mp4","Ist der Ball in der grünen Box?","Green","Blue","J","negation","mismatch","gesture","yes","ThumbDown","female","gesture-speech","1422","800","edge-chromium","60.27","Windows 10","22","male","right","Mon Aug 19 2024 21:25:48 GMT+0200 (Mitteleuropäische Sommerzeit)","1","27","0","1724097256898"
"818","j","SpeechGestureMatch","../RequiredFiles/videos/NeinDaumenrunter_f.mp4","Ist der Ball in der blauen Box?","Blue","Green","J","negation","match","gesture","no","ThumbDown","female","gesture-speech","1422","800","edge-chromium","60.27","Windows 10","22","male","right","Mon Aug 19 2024 21:25:54 GMT+0200 (Mitteleuropäische Sommerzeit)","1","28","0","1724097256898"
"707","j","SpeechGestureMatch","../RequiredFiles/videos/JaDaumenrunter_m.mp4","Ist der Ball in der blauen Box?","Blue","Green","J","negation","mismatch","gesture","yes","ThumbDown","male","gesture-speech","1422","800","edge-chromium","60.27","Windows 10","22","male","right","Mon Aug 19 2024 21:26:01 GMT+0200 (Mitteleuropäische Sommerzeit)","1","29","0","1724097256898"
"677","f","SpeechGestureMatch","../RequiredFiles/videos/NeinDaumenrunter_m.mp4","Ist der Ball in der blauen Box?","Green","Blue","F","negation","match","gesture","no","ThumbDown","male","gesture-speech","1422","800","edge-chromium","60.27","Windows 10","22","male","right","Mon Aug 19 2024 21:26:07 GMT+0200 (Mitteleuropäische Sommerzeit)","1","30","0","1724097256898"
"655","j","SpeechGestureMatch","../RequiredFiles/videos/NeinDaumenhoch_m.mp4","Ist der Ball in der blauen Box?","Green","Blue","J","affirmation","mismatch","gesture","no","ThumbUp","male","gesture-speech","1422","800","edge-chromium","60.27","Windows 10","22","male","right","Mon Aug 19 2024 21:26:13 GMT+0200 (Mitteleuropäische Sommerzeit)","1","31","0","1724097256898"
"803","f","SpeechGestureMatch","../RequiredFiles/videos/JaDaumenrunter_m.mp4","Ist der Ball in der blauen Box?","Green","Blue","F","negation","mismatch","gesture","yes","ThumbDown","male","gesture-speech","1422","800","edge-chromium","60.27","Windows 10","22","male","right","Mon Aug 19 2024 21:26:19 GMT+0200 (Mitteleuropäische Sommerzeit)","1","32","0","1724097256898"
"621","f","SpeechGestureMatch","../RequiredFiles/videos/JaDaumenhoch_m.mp4","Ist der Ball in der grünen Box?","Green","Blue","F","affirmation","match","gesture","yes","ThumbUp","male","gesture-speech","1422","800","edge-chromium","60.27","Windows 10","22","male","right","Mon Aug 19 2024 21:26:26 GMT+0200 (Mitteleuropäische Sommerzeit)","1","33","0","1724097256898"
"639","j","SpeechGestureMatch","../RequiredFiles/videos/JaDaumenhoch_m.mp4","Ist der Ball in der grünen Box?","Blue","Green","J","affirmation","match","gesture","yes","ThumbUp","male","gesture-speech","1422","800","edge-chromium","60.27","Windows 10","22","male","right","Mon Aug 19 2024 21:26:32 GMT+0200 (Mitteleuropäische Sommerzeit)","1","34","0","1724097256898"
"704","f","SpeechGestureMatch","../RequiredFiles/videos/NeinDaumenhoch_f.mp4","Ist der Ball in der grünen Box?","Green","Blue","F","affirmation","mismatch","gesture","no","ThumbUp","female","gesture-speech","1422","800","edge-chromium","60.27","Windows 10","22","male","right","Mon Aug 19 2024 21:26:38 GMT+0200 (Mitteleuropäische Sommerzeit)","1","35","0","1724097256898"
"747","f","SpeechGestureMatch","../RequiredFiles/videos/NeinDaumenrunter_f.mp4","Ist der Ball in der blauen Box?","Green","Blue","F","negation","match","gesture","no","ThumbDown","female","gesture-speech","1422","800","edge-chromium","60.27","Windows 10","22","male","right","Mon Aug 19 2024 21:26:44 GMT+0200 (Mitteleuropäische Sommerzeit)","1","36","0","1724097256898"
"653","f","SpeechGestureMatch","../RequiredFiles/videos/NeinDaumenrunter_m.mp4","Ist der Ball in der blauen Box?","Green","Blue","F","negation","match","gesture","no","ThumbDown","male","gesture-speech","1422","800","edge-chromium","60.27","Windows 10","22","male","right","Mon Aug 19 2024 21:26:51 GMT+0200 (Mitteleuropäische Sommerzeit)","1","37","0","1724097256898"
"597","f","SpeechGestureMatch","../RequiredFiles/videos/NeinDaumenhoch_m.mp4","Ist der Ball in der blauen Box?","Blue","Green","F","affirmation","mismatch","gesture","no","ThumbUp","male","gesture-speech","1422","800","edge-chromium","60.27","Windows 10","22","male","right","Mon Aug 19 2024 21:26:57 GMT+0200 (Mitteleuropäische Sommerzeit)","1","38","0","1724097256898"
"736","f","SpeechGestureMatch","../RequiredFiles/videos/JaDaumenrunter_f.mp4","Ist der Ball in der blauen Box?","Green","Blue","F","negation","mismatch","gesture","yes","ThumbDown","female","gesture-speech","1422","800","edge-chromium","60.27","Windows 10","22","male","right","Mon Aug 19 2024 21:27:03 GMT+0200 (Mitteleuropäische Sommerzeit)","1","39","0","1724097256898"
"617","j","SpeechGestureMatch","../RequiredFiles/videos/NeinDaumenhoch_m.mp4","Ist der Ball in der grünen Box?","Blue","Green","J","affirmation","mismatch","gesture","no","ThumbUp","male","gesture-speech","1422","800","edge-chromium","60.27","Windows 10","22","male","right","Mon Aug 19 2024 21:27:09 GMT+0200 (Mitteleuropäische Sommerzeit)","1","40","0","1724097256898"
"658","f","SpeechGestureMatch","../RequiredFiles/videos/NeinDaumenrunter_f.mp4","Ist der Ball in der blauen Box?","Green","Blue","F","negation","match","gesture","no","ThumbDown","female","gesture-speech","1422","800","edge-chromium","60.27","Windows 10","22","male","right","Mon Aug 19 2024 21:27:15 GMT+0200 (Mitteleuropäische Sommerzeit)","1","41","0","1724097256898"
"707","f","SpeechGestureMatch","../RequiredFiles/videos/JaDaumenrunter_f.mp4","Ist der Ball in der blauen Box?","Green","Blue","F","negation","mismatch","gesture","yes","ThumbDown","female","gesture-speech","1422","800","edge-chromium","60.27","Windows 10","22","male","right","Mon Aug 19 2024 21:27:22 GMT+0200 (Mitteleuropäische Sommerzeit)","1","42","0","1724097256898"
"818","f","SpeechGestureMatch","../RequiredFiles/videos/JaDaumenhoch_f.mp4","Ist der Ball in der blauen Box?","Blue","Green","F","affirmation","match","gesture","yes","ThumbUp","female","gesture-speech","1422","800","edge-chromium","60.27","Windows 10","22","male","right","Mon Aug 19 2024 21:27:28 GMT+0200 (Mitteleuropäische Sommerzeit)","1","43","0","1724097256898"
"664","f","SpeechGestureMatch","../RequiredFiles/videos/JaDaumenhoch_f.mp4","Ist der Ball in der grünen Box?","Green","Blue","F","affirmation","match","gesture","yes","ThumbUp","female","gesture-speech","1422","800","edge-chromium","60.27","Windows 10","22","male","right","Mon Aug 19 2024 21:27:34 GMT+0200 (Mitteleuropäische Sommerzeit)","1","44","0","1724097256898"
"591","j","SpeechGestureMatch","../RequiredFiles/videos/NeinDaumenhoch_m.mp4","Ist der Ball in der blauen Box?","Green","Blue","J","affirmation","mismatch","gesture","no","ThumbUp","male","gesture-speech","1422","800","edge-chromium","60.27","Windows 10","22","male","right","Mon Aug 19 2024 21:27:40 GMT+0200 (Mitteleuropäische Sommerzeit)","1","45","0","1724097256898"
"687","j","SpeechGestureMatch","../RequiredFiles/videos/JaDaumenhoch_f.mp4","Ist der Ball in der blauen Box?","Green","Blue","J","affirmation","match","gesture","yes","ThumbUp","female","gesture-speech","1422","800","edge-chromium","60.27","Windows 10","22","male","right","Mon Aug 19 2024 21:27:47 GMT+0200 (Mitteleuropäische Sommerzeit)","1","46","0","1724097256898"
"696","f","SpeechGestureMatch","../RequiredFiles/videos/NeinDaumenrunter_f.mp4","Ist der Ball in der grünen Box?","Blue","Green","F","negation","match","gesture","no","ThumbDown","female","gesture-speech","1422","800","edge-chromium","60.27","Windows 10","22","male","right","Mon Aug 19 2024 21:27:53 GMT+0200 (Mitteleuropäische Sommerzeit)","1","47","0","1724097256898"
"699","f","SpeechGestureMatch","../RequiredFiles/videos/JaDaumenhoch_f.mp4","Ist der Ball in der blauen Box?","Blue","Green","F","affirmation","match","gesture","yes","ThumbUp","female","gesture-speech","1422","800","edge-chromium","60.27","Windows 10","22","male","right","Mon Aug 19 2024 21:27:59 GMT+0200 (Mitteleuropäische Sommerzeit)","1","48","0","1724097256898"
"676","j","SpeechGestureMatch","../RequiredFiles/videos/NeinDaumenhoch_f.mp4","Ist der Ball in der grünen Box?","Blue","Green","J","affirmation","mismatch","gesture","no","ThumbUp","female","gesture-speech","1422","800","edge-chromium","60.27","Windows 10","22","male","right","Mon Aug 19 2024 21:28:05 GMT+0200 (Mitteleuropäische Sommerzeit)","1","49","0","1724097256898"
"672","f","SpeechGestureMatch","../RequiredFiles/videos/NeinDaumenrunter_m.mp4","Ist der Ball in der grünen Box?","Blue","Green","F","negation","match","gesture","no","ThumbDown","male","gesture-speech","1422","800","edge-chromium","60.27","Windows 10","22","male","right","Mon Aug 19 2024 21:28:12 GMT+0200 (Mitteleuropäische Sommerzeit)","1","50","0","1724097256898"
"628","j","SpeechGestureMatch","../RequiredFiles/videos/NeinDaumenrunter_m.mp4","Ist der Ball in der grünen Box?","Green","Blue","J","negation","match","gesture","no","ThumbDown","male","gesture-speech","1422","800","edge-chromium","60.27","Windows 10","22","male","right","Mon Aug 19 2024 21:28:18 GMT+0200 (Mitteleuropäische Sommerzeit)","1","51","0","1724097256898"
"671","j","SpeechGestureMatch","../RequiredFiles/videos/JaDaumenrunter_f.mp4","Ist der Ball in der blauen Box?","Blue","Green","J","negation","mismatch","gesture","yes","ThumbDown","female","gesture-speech","1422","800","edge-chromium","60.27","Windows 10","22","male","right","Mon Aug 19 2024 21:28:24 GMT+0200 (Mitteleuropäische Sommerzeit)","1","52","0","1724097256898"
"835","j","SpeechGestureMatch","../RequiredFiles/videos/JaDaumenhoch_m.mp4","Ist der Ball in der grünen Box?","Blue","Green","J","affirmation","match","gesture","yes","ThumbUp","male","gesture-speech","1422","800","edge-chromium","60.27","Windows 10","22","male","right","Mon Aug 19 2024 21:28:30 GMT+0200 (Mitteleuropäische Sommerzeit)","1","53","0","1724097256898"
"637","j","SpeechGestureMatch","../RequiredFiles/videos/NeinDaumenrunter_m.mp4","Ist der Ball in der grünen Box?","Green","Blue","J","negation","match","gesture","no","ThumbDown","male","gesture-speech","1422","800","edge-chromium","60.27","Windows 10","22","male","right","Mon Aug 19 2024 21:28:37 GMT+0200 (Mitteleuropäische Sommerzeit)","1","54","0","1724097256898"
"691","j","SpeechGestureMatch","../RequiredFiles/videos/JaDaumenhoch_f.mp4","Ist der Ball in der blauen Box?","Green","Blue","J","affirmation","match","gesture","yes","ThumbUp","female","gesture-speech","1422","800","edge-chromium","60.27","Windows 10","22","male","right","Mon Aug 19 2024 21:28:43 GMT+0200 (Mitteleuropäische Sommerzeit)","1","55","0","1724097256898"
"687","f","SpeechGestureMatch","../RequiredFiles/videos/JaDaumenhoch_m.mp4","Ist der Ball in der blauen Box?","Blue","Green","F","affirmation","match","gesture","yes","ThumbUp","male","gesture-speech","1422","800","edge-chromium","60.27","Windows 10","22","male","right","Mon Aug 19 2024 21:28:49 GMT+0200 (Mitteleuropäische Sommerzeit)","1","56","0","1724097256898"
"635","j","SpeechGestureMatch","../RequiredFiles/videos/JaDaumenrunter_m.mp4","Ist der Ball in der grünen Box?","Green","Blue","J","negation","mismatch","gesture","yes","ThumbDown","male","gesture-speech","1422","800","edge-chromium","60.27","Windows 10","22","male","right","Mon Aug 19 2024 21:28:55 GMT+0200 (Mitteleuropäische Sommerzeit)","1","57","0","1724097256898"
"674","f","SpeechGestureMatch","../RequiredFiles/videos/JaDaumenrunter_f.mp4","Ist der Ball in der grünen Box?","Blue","Green","F","negation","mismatch","gesture","yes","ThumbDown","female","gesture-speech","1422","800","edge-chromium","60.27","Windows 10","22","male","right","Mon Aug 19 2024 21:29:02 GMT+0200 (Mitteleuropäische Sommerzeit)","1","58","0","1724097256898"
"643","f","SpeechGestureMatch","../RequiredFiles/videos/JaDaumenrunter_m.mp4","Ist der Ball in der blauen Box?","Green","Blue","F","negation","mismatch","gesture","yes","ThumbDown","male","gesture-speech","1422","800","edge-chromium","60.27","Windows 10","22","male","right","Mon Aug 19 2024 21:29:08 GMT+0200 (Mitteleuropäische Sommerzeit)","1","59","0","1724097256898"
"766","f","SpeechGestureMatch","../RequiredFiles/videos/NeinDaumenhoch_m.mp4","Ist der Ball in der grünen Box?","Green","Blue","F","affirmation","mismatch","gesture","no","ThumbUp","male","gesture-speech","1422","800","edge-chromium","60.27","Windows 10","22","male","right","Mon Aug 19 2024 21:29:14 GMT+0200 (Mitteleuropäische Sommerzeit)","1","60","0","1724097256898"
"617","f","SpeechGestureMatch","../RequiredFiles/videos/NeinDaumenhoch_m.mp4","Ist der Ball in der grünen Box?","Green","Blue","F","affirmation","mismatch","gesture","no","ThumbUp","male","gesture-speech","1422","800","edge-chromium","60.27","Windows 10","22","male","right","Mon Aug 19 2024 21:29:20 GMT+0200 (Mitteleuropäische Sommerzeit)","1","61","0","1724097256898"
"744","j","SpeechGestureMatch","../RequiredFiles/videos/JaDaumenrunter_f.mp4","Ist der Ball in der blauen Box?","Blue","Green","J","negation","mismatch","gesture","yes","ThumbDown","female","gesture-speech","1422","800","edge-chromium","60.27","Windows 10","22","male","right","Mon Aug 19 2024 21:29:27 GMT+0200 (Mitteleuropäische Sommerzeit)","1","62","0","1724097256898"
"715","j","SpeechGestureMatch","../RequiredFiles/videos/JaDaumenhoch_m.mp4","Ist der Ball in der blauen Box?","Green","Blue","J","affirmation","match","gesture","yes","ThumbUp","male","gesture-speech","1422","800","edge-chromium","60.27","Windows 10","22","male","right","Mon Aug 19 2024 21:29:33 GMT+0200 (Mitteleuropäische Sommerzeit)","1","63","0","1724097256898"
"741","f","SpeechGestureMatch","../RequiredFiles/videos/JaDaumenrunter_f.mp4","Ist der Ball in der grünen Box?","Blue","Green","F","negation","mismatch","gesture","yes","ThumbDown","female","gesture-speech","1422","800","edge-chromium","60.27","Windows 10","22","male","right","Mon Aug 19 2024 21:29:39 GMT+0200 (Mitteleuropäische Sommerzeit)","1","64","0","1724097256898"
"695","f","SpeechGestureMatch","../RequiredFiles/videos/JaDaumenhoch_m.mp4","Ist der Ball in der grünen Box?","Green","Blue","F","affirmation","match","gesture","yes","ThumbUp","male","gesture-speech","1422","800","edge-chromium","60.27","Windows 10","22","male","right","Mon Aug 19 2024 21:30:17 GMT+0200 (Mitteleuropäische Sommerzeit)","2","1","0","1724097256898"
"668","f","SpeechGestureMatch","../RequiredFiles/videos/JaDaumenhoch_m.mp4","Ist der Ball in der grünen Box?","Green","Blue","F","affirmation","match","gesture","yes","ThumbUp","male","gesture-speech","1422","800","edge-chromium","60.27","Windows 10","22","male","right","Mon Aug 19 2024 21:30:23 GMT+0200 (Mitteleuropäische Sommerzeit)","2","2","0","1724097256898"
"635","f","SpeechGestureMatch","../RequiredFiles/videos/JaDaumenrunter_m.mp4","Ist der Ball in der grünen Box?","Green","Blue","J","negation","mismatch","gesture","yes","ThumbDown","male","gesture-speech","1422","800","edge-chromium","60.27","Windows 10","22","male","right","Mon Aug 19 2024 21:30:30 GMT+0200 (Mitteleuropäische Sommerzeit)","2","3","1","1724097256898"
"679","f","SpeechGestureMatch","../RequiredFiles/videos/JaDaumenhoch_f.mp4","Ist der Ball in der grünen Box?","Green","Blue","F","affirmation","match","gesture","yes","ThumbUp","female","gesture-speech","1422","800","edge-chromium","60.27","Windows 10","22","male","right","Mon Aug 19 2024 21:30:36 GMT+0200 (Mitteleuropäische Sommerzeit)","2","4","0","1724097256898"
"829","f","SpeechGestureMatch","../RequiredFiles/videos/JaDaumenrunter_m.mp4","Ist der Ball in der grünen Box?","Blue","Green","F","negation","mismatch","gesture","yes","ThumbDown","male","gesture-speech","1422","800","edge-chromium","60.27","Windows 10","22","male","right","Mon Aug 19 2024 21:30:42 GMT+0200 (Mitteleuropäische Sommerzeit)","2","5","0","1724097256898"
"800","j","SpeechGestureMatch","../RequiredFiles/videos/NeinDaumenrunter_m.mp4","Ist der Ball in der blauen Box?","Blue","Green","J","negation","match","gesture","no","ThumbDown","male","gesture-speech","1422","800","edge-chromium","60.27","Windows 10","22","male","right","Mon Aug 19 2024 21:30:49 GMT+0200 (Mitteleuropäische Sommerzeit)","2","6","0","1724097256898"
"651","f","SpeechGestureMatch","../RequiredFiles/videos/JaDaumenrunter_f.mp4","Ist der Ball in der grünen Box?","Blue","Green","F","negation","mismatch","gesture","yes","ThumbDown","female","gesture-speech","1422","800","edge-chromium","60.27","Windows 10","22","male","right","Mon Aug 19 2024 21:30:55 GMT+0200 (Mitteleuropäische Sommerzeit)","2","7","0","1724097256898"
"609","f","SpeechGestureMatch","../RequiredFiles/videos/JaDaumenhoch_f.mp4","Ist der Ball in der grünen Box?","Blue","Green","J","affirmation","match","gesture","yes","ThumbUp","female","gesture-speech","1422","800","edge-chromium","60.27","Windows 10","22","male","right","Mon Aug 19 2024 21:31:01 GMT+0200 (Mitteleuropäische Sommerzeit)","2","8","1","1724097256898"
"697","f","SpeechGestureMatch","../RequiredFiles/videos/JaDaumenrunter_f.mp4","Ist der Ball in der grünen Box?","Blue","Green","F","negation","mismatch","gesture","yes","ThumbDown","female","gesture-speech","1422","800","edge-chromium","60.27","Windows 10","22","male","right","Mon Aug 19 2024 21:31:07 GMT+0200 (Mitteleuropäische Sommerzeit)","2","9","0","1724097256898"
"631","f","SpeechGestureMatch","../RequiredFiles/videos/JaDaumenhoch_m.mp4","Ist der Ball in der blauen Box?","Blue","Green","F","affirmation","match","gesture","yes","ThumbUp","male","gesture-speech","1422","800","edge-chromium","60.27","Windows 10","22","male","right","Mon Aug 19 2024 21:31:13 GMT+0200 (Mitteleuropäische Sommerzeit)","2","10","0","1724097256898"
"619","j","SpeechGestureMatch","../RequiredFiles/videos/NeinDaumenhoch_f.mp4","Ist der Ball in der grünen Box?","Green","Blue","F","affirmation","mismatch","gesture","no","ThumbUp","female","gesture-speech","1422","800","edge-chromium","60.27","Windows 10","22","male","right","Mon Aug 19 2024 21:31:20 GMT+0200 (Mitteleuropäische Sommerzeit)","2","11","1","1724097256898"
"692","f","SpeechGestureMatch","../RequiredFiles/videos/NeinDaumenhoch_f.mp4","Ist der Ball in der blauen Box?","Blue","Green","F","affirmation","mismatch","gesture","no","ThumbUp","female","gesture-speech","1422","800","edge-chromium","60.27","Windows 10","22","male","right","Mon Aug 19 2024 21:31:26 GMT+0200 (Mitteleuropäische Sommerzeit)","2","12","0","1724097256898"
"669","j","SpeechGestureMatch","../RequiredFiles/videos/NeinDaumenrunter_m.mp4","Ist der Ball in der grünen Box?","Green","Blue","J","negation","match","gesture","no","ThumbDown","male","gesture-speech","1422","800","edge-chromium","60.27","Windows 10","22","male","right","Mon Aug 19 2024 21:31:32 GMT+0200 (Mitteleuropäische Sommerzeit)","2","13","0","1724097256898"
"824","f","SpeechGestureMatch","../RequiredFiles/videos/NeinDaumenrunter_f.mp4","Ist der Ball in der grünen Box?","Blue","Green","F","negation","match","gesture","no","ThumbDown","female","gesture-speech","1422","800","edge-chromium","60.27","Windows 10","22","male","right","Mon Aug 19 2024 21:31:38 GMT+0200 (Mitteleuropäische Sommerzeit)","2","14","0","1724097256898"
"621","j","SpeechGestureMatch","../RequiredFiles/videos/NeinDaumenhoch_m.mp4","Ist der Ball in der blauen Box?","Green","Blue","J","affirmation","mismatch","gesture","no","ThumbUp","male","gesture-speech","1422","800","edge-chromium","60.27","Windows 10","22","male","right","Mon Aug 19 2024 21:31:45 GMT+0200 (Mitteleuropäische Sommerzeit)","2","15","0","1724097256898"
"684","j","SpeechGestureMatch","../RequiredFiles/videos/NeinDaumenhoch_f.mp4","Ist der Ball in der blauen Box?","Green","Blue","J","affirmation","mismatch","gesture","no","ThumbUp","female","gesture-speech","1422","800","edge-chromium","60.27","Windows 10","22","male","right","Mon Aug 19 2024 21:31:51 GMT+0200 (Mitteleuropäische Sommerzeit)","2","16","0","1724097256898"
"579","j","SpeechGestureMatch","../RequiredFiles/videos/JaDaumenhoch_m.mp4","Ist der Ball in der blauen Box?","Green","Blue","J","affirmation","match","gesture","yes","ThumbUp","male","gesture-speech","1422","800","edge-chromium","60.27","Windows 10","22","male","right","Mon Aug 19 2024 21:31:57 GMT+0200 (Mitteleuropäische Sommerzeit)","2","17","0","1724097256898"
"605","f","SpeechGestureMatch","../RequiredFiles/videos/JaDaumenhoch_m.mp4","Ist der Ball in der blauen Box?","Blue","Green","F","affirmation","match","gesture","yes","ThumbUp","male","gesture-speech","1422","800","edge-chromium","60.27","Windows 10","22","male","right","Mon Aug 19 2024 21:32:03 GMT+0200 (Mitteleuropäische Sommerzeit)","2","18","0","1724097256898"
"707","j","SpeechGestureMatch","../RequiredFiles/videos/NeinDaumenrunter_f.mp4","Ist der Ball in der blauen Box?","Blue","Green","J","negation","match","gesture","no","ThumbDown","female","gesture-speech","1422","800","edge-chromium","60.27","Windows 10","22","male","right","Mon Aug 19 2024 21:32:09 GMT+0200 (Mitteleuropäische Sommerzeit)","2","19","0","1724097256898"
"660","f","SpeechGestureMatch","../RequiredFiles/videos/JaDaumenhoch_f.mp4","Ist der Ball in der blauen Box?","Blue","Green","F","affirmation","match","gesture","yes","ThumbUp","female","gesture-speech","1422","800","edge-chromium","60.27","Windows 10","22","male","right","Mon Aug 19 2024 21:32:16 GMT+0200 (Mitteleuropäische Sommerzeit)","2","20","0","1724097256898"
"620","j","SpeechGestureMatch","../RequiredFiles/videos/NeinDaumenhoch_m.mp4","Ist der Ball in der blauen Box?","Green","Blue","J","affirmation","mismatch","gesture","no","ThumbUp","male","gesture-speech","1422","800","edge-chromium","60.27","Windows 10","22","male","right","Mon Aug 19 2024 21:32:22 GMT+0200 (Mitteleuropäische Sommerzeit)","2","21","0","1724097256898"
"721","f","SpeechGestureMatch","../RequiredFiles/videos/JaDaumenrunter_f.mp4","Ist der Ball in der blauen Box?","Green","Blue","F","negation","mismatch","gesture","yes","ThumbDown","female","gesture-speech","1422","800","edge-chromium","60.27","Windows 10","22","male","right","Mon Aug 19 2024 21:32:28 GMT+0200 (Mitteleuropäische Sommerzeit)","2","22","0","1724097256898"
"667","j","SpeechGestureMatch","../RequiredFiles/videos/JaDaumenrunter_f.mp4","Ist der Ball in der blauen Box?","Blue","Green","J","negation","mismatch","gesture","yes","ThumbDown","female","gesture-speech","1422","800","edge-chromium","60.27","Windows 10","22","male","right","Mon Aug 19 2024 21:32:34 GMT+0200 (Mitteleuropäische Sommerzeit)","2","23","0","1724097256898"
"674","j","SpeechGestureMatch","../RequiredFiles/videos/NeinDaumenhoch_f.mp4","Ist der Ball in der grünen Box?","Blue","Green","J","affirmation","mismatch","gesture","no","ThumbUp","female","gesture-speech","1422","800","edge-chromium","60.27","Windows 10","22","male","right","Mon Aug 19 2024 21:32:40 GMT+0200 (Mitteleuropäische Sommerzeit)","2","24","0","1724097256898"
"618","f","SpeechGestureMatch","../RequiredFiles/videos/JaDaumenrunter_f.mp4","Ist der Ball in der blauen Box?","Green","Blue","F","negation","mismatch","gesture","yes","ThumbDown","female","gesture-speech","1422","800","edge-chromium","60.27","Windows 10","22","male","right","Mon Aug 19 2024 21:32:47 GMT+0200 (Mitteleuropäische Sommerzeit)","2","25","0","1724097256898"
"613","j","SpeechGestureMatch","../RequiredFiles/videos/JaDaumenhoch_f.mp4","Ist der Ball in der blauen Box?","Green","Blue","J","affirmation","match","gesture","yes","ThumbUp","female","gesture-speech","1422","800","edge-chromium","60.27","Windows 10","22","male","right","Mon Aug 19 2024 21:32:53 GMT+0200 (Mitteleuropäische Sommerzeit)","2","26","0","1724097256898"
"583","j","SpeechGestureMatch","../RequiredFiles/videos/JaDaumenhoch_m.mp4","Ist der Ball in der blauen Box?","Green","Blue","J","affirmation","match","gesture","yes","ThumbUp","male","gesture-speech","1422","800","edge-chromium","60.27","Windows 10","22","male","right","Mon Aug 19 2024 21:32:59 GMT+0200 (Mitteleuropäische Sommerzeit)","2","27","0","1724097256898"
"715","f","SpeechGestureMatch","../RequiredFiles/videos/JaDaumenhoch_f.mp4","Ist der Ball in der grünen Box?","Green","Blue","F","affirmation","match","gesture","yes","ThumbUp","female","gesture-speech","1422","800","edge-chromium","60.27","Windows 10","22","male","right","Mon Aug 19 2024 21:33:05 GMT+0200 (Mitteleuropäische Sommerzeit)","2","28","0","1724097256898"
"648","f","SpeechGestureMatch","../RequiredFiles/videos/JaDaumenrunter_m.mp4","Ist der Ball in der blauen Box?","Blue","Green","J","negation","mismatch","gesture","yes","ThumbDown","male","gesture-speech","1422","800","edge-chromium","60.27","Windows 10","22","male","right","Mon Aug 19 2024 21:33:11 GMT+0200 (Mitteleuropäische Sommerzeit)","2","29","1","1724097256898"
"745","f","SpeechGestureMatch","../RequiredFiles/videos/NeinDaumenhoch_m.mp4","Ist der Ball in der blauen Box?","Blue","Green","F","affirmation","mismatch","gesture","no","ThumbUp","male","gesture-speech","1422","800","edge-chromium","60.27","Windows 10","22","male","right","Mon Aug 19 2024 21:33:18 GMT+0200 (Mitteleuropäische Sommerzeit)","2","30","0","1724097256898"
"692","j","SpeechGestureMatch","../RequiredFiles/videos/NeinDaumenrunter_m.mp4","Ist der Ball in der blauen Box?","Blue","Green","J","negation","match","gesture","no","ThumbDown","male","gesture-speech","1422","800","edge-chromium","60.27","Windows 10","22","male","right","Mon Aug 19 2024 21:33:24 GMT+0200 (Mitteleuropäische Sommerzeit)","2","31","0","1724097256898"
"976","f","SpeechGestureMatch","../RequiredFiles/videos/NeinDaumenrunter_f.mp4","Ist der Ball in der blauen Box?","Green","Blue","F","negation","match","gesture","no","ThumbDown","female","gesture-speech","1422","800","edge-chromium","60.27","Windows 10","22","male","right","Mon Aug 19 2024 21:33:31 GMT+0200 (Mitteleuropäische Sommerzeit)","2","32","0","1724097256898"
"673","j","SpeechGestureMatch","../RequiredFiles/videos/JaDaumenrunter_f.mp4","Ist der Ball in der blauen Box?","Blue","Green","J","negation","mismatch","gesture","yes","ThumbDown","female","gesture-speech","1422","800","edge-chromium","60.27","Windows 10","22","male","right","Mon Aug 19 2024 21:33:37 GMT+0200 (Mitteleuropäische Sommerzeit)","2","33","0","1724097256898"
"620","j","SpeechGestureMatch","../RequiredFiles/videos/JaDaumenrunter_f.mp4","Ist der Ball in der grünen Box?","Green","Blue","J","negation","mismatch","gesture","yes","ThumbDown","female","gesture-speech","1422","800","edge-chromium","60.27","Windows 10","22","male","right","Mon Aug 19 2024 21:33:43 GMT+0200 (Mitteleuropäische Sommerzeit)","2","34","0","1724097256898"
"719","j","SpeechGestureMatch","../RequiredFiles/videos/NeinDaumenrunter_f.mp4","Ist der Ball in der grünen Box?","Green","Blue","J","negation","match","gesture","no","ThumbDown","female","gesture-speech","1422","800","edge-chromium","60.27","Windows 10","22","male","right","Mon Aug 19 2024 21:33:49 GMT+0200 (Mitteleuropäische Sommerzeit)","2","35","0","1724097256898"
"708","j","SpeechGestureMatch","../RequiredFiles/videos/JaDaumenrunter_m.mp4","Ist der Ball in der blauen Box?","Green","Blue","F","negation","mismatch","gesture","yes","ThumbDown","male","gesture-speech","1422","800","edge-chromium","60.27","Windows 10","22","male","right","Mon Aug 19 2024 21:33:56 GMT+0200 (Mitteleuropäische Sommerzeit)","2","36","1","1724097256898"
"653","j","SpeechGestureMatch","../RequiredFiles/videos/JaDaumenrunter_m.mp4","Ist der Ball in der blauen Box?","Blue","Green","J","negation","mismatch","gesture","yes","ThumbDown","male","gesture-speech","1422","800","edge-chromium","60.27","Windows 10","22","male","right","Mon Aug 19 2024 21:34:02 GMT+0200 (Mitteleuropäische Sommerzeit)","2","37","0","1724097256898"
"766","j","SpeechGestureMatch","../RequiredFiles/videos/NeinDaumenrunter_f.mp4","Ist der Ball in der grünen Box?","Green","Blue","J","negation","match","gesture","no","ThumbDown","female","gesture-speech","1422","800","edge-chromium","60.27","Windows 10","22","male","right","Mon Aug 19 2024 21:34:08 GMT+0200 (Mitteleuropäische Sommerzeit)","2","38","0","1724097256898"
"641","f","SpeechGestureMatch","../RequiredFiles/videos/NeinDaumenrunter_m.mp4","Ist der Ball in der blauen Box?","Green","Blue","F","negation","match","gesture","no","ThumbDown","male","gesture-speech","1422","800","edge-chromium","60.27","Windows 10","22","male","right","Mon Aug 19 2024 21:34:14 GMT+0200 (Mitteleuropäische Sommerzeit)","2","39","0","1724097256898"
"664","f","SpeechGestureMatch","../RequiredFiles/videos/NeinDaumenrunter_m.mp4","Ist der Ball in der blauen Box?","Green","Blue","F","negation","match","gesture","no","ThumbDown","male","gesture-speech","1422","800","edge-chromium","60.27","Windows 10","22","male","right","Mon Aug 19 2024 21:34:20 GMT+0200 (Mitteleuropäische Sommerzeit)","2","40","0","1724097256898"
"632","f","SpeechGestureMatch","../RequiredFiles/videos/JaDaumenhoch_f.mp4","Ist der Ball in der blauen Box?","Green","Blue","J","affirmation","match","gesture","yes","ThumbUp","female","gesture-speech","1422","800","edge-chromium","60.27","Windows 10","22","male","right","Mon Aug 19 2024 21:34:27 GMT+0200 (Mitteleuropäische Sommerzeit)","2","41","1","1724097256898"
"710","f","SpeechGestureMatch","../RequiredFiles/videos/NeinDaumenhoch_m.mp4","Ist der Ball in der grünen Box?","Green","Blue","F","affirmation","mismatch","gesture","no","ThumbUp","male","gesture-speech","1422","800","edge-chromium","60.27","Windows 10","22","male","right","Mon Aug 19 2024 21:34:33 GMT+0200 (Mitteleuropäische Sommerzeit)","2","42","0","1724097256898"
"583","j","SpeechGestureMatch","../RequiredFiles/videos/JaDaumenrunter_m.mp4","Ist der Ball in der blauen Box?","Green","Blue","F","negation","mismatch","gesture","yes","ThumbDown","male","gesture-speech","1422","800","edge-chromium","60.27","Windows 10","22","male","right","Mon Aug 19 2024 21:34:39 GMT+0200 (Mitteleuropäische Sommerzeit)","2","43","1","1724097256898"
"688","j","SpeechGestureMatch","../RequiredFiles/videos/JaDaumenhoch_f.mp4","Ist der Ball in der grünen Box?","Blue","Green","J","affirmation","match","gesture","yes","ThumbUp","female","gesture-speech","1422","800","edge-chromium","60.27","Windows 10","22","male","right","Mon Aug 19 2024 21:34:45 GMT+0200 (Mitteleuropäische Sommerzeit)","2","44","0","1724097256898"
"660","j","SpeechGestureMatch","../RequiredFiles/videos/NeinDaumenhoch_m.mp4","Ist der Ball in der grünen Box?","Blue","Green","J","affirmation","mismatch","gesture","no","ThumbUp","male","gesture-speech","1422","800","edge-chromium","60.27","Windows 10","22","male","right","Mon Aug 19 2024 21:34:52 GMT+0200 (Mitteleuropäische Sommerzeit)","2","45","0","1724097256898"
"689","j","SpeechGestureMatch","../RequiredFiles/videos/NeinDaumenhoch_f.mp4","Ist der Ball in der blauen Box?","Green","Blue","J","affirmation","mismatch","gesture","no","ThumbUp","female","gesture-speech","1422","800","edge-chromium","60.27","Windows 10","22","male","right","Mon Aug 19 2024 21:34:58 GMT+0200 (Mitteleuropäische Sommerzeit)","2","46","0","1724097256898"
"751","j","SpeechGestureMatch","../RequiredFiles/videos/NeinDaumenrunter_f.mp4","Ist der Ball in der blauen Box?","Blue","Green","J","negation","match","gesture","no","ThumbDown","female","gesture-speech","1422","800","edge-chromium","60.27","Windows 10","22","male","right","Mon Aug 19 2024 21:35:04 GMT+0200 (Mitteleuropäische Sommerzeit)","2","47","0","1724097256898"
"697","j","SpeechGestureMatch","../RequiredFiles/videos/JaDaumenrunter_m.mp4","Ist der Ball in der grünen Box?","Green","Blue","J","negation","mismatch","gesture","yes","ThumbDown","male","gesture-speech","1422","800","edge-chromium","60.27","Windows 10","22","male","right","Mon Aug 19 2024 21:35:10 GMT+0200 (Mitteleuropäische Sommerzeit)","2","48","0","1724097256898"
"639","j","SpeechGestureMatch","../RequiredFiles/videos/NeinDaumenhoch_f.mp4","Ist der Ball in der grünen Box?","Blue","Green","J","affirmation","mismatch","gesture","no","ThumbUp","female","gesture-speech","1422","800","edge-chromium","60.27","Windows 10","22","male","right","Mon Aug 19 2024 21:35:17 GMT+0200 (Mitteleuropäische Sommerzeit)","2","49","0","1724097256898"
"608","j","SpeechGestureMatch","../RequiredFiles/videos/JaDaumenhoch_m.mp4","Ist der Ball in der grünen Box?","Blue","Green","J","affirmation","match","gesture","yes","ThumbUp","male","gesture-speech","1422","800","edge-chromium","60.27","Windows 10","22","male","right","Mon Aug 19 2024 21:35:23 GMT+0200 (Mitteleuropäische Sommerzeit)","2","50","0","1724097256898"
"697","j","SpeechGestureMatch","../RequiredFiles/videos/JaDaumenrunter_f.mp4","Ist der Ball in der grünen Box?","Green","Blue","J","negation","mismatch","gesture","yes","ThumbDown","female","gesture-speech","1422","800","edge-chromium","60.27","Windows 10","22","male","right","Mon Aug 19 2024 21:35:29 GMT+0200 (Mitteleuropäische Sommerzeit)","2","51","0","1724097256898"
"632","f","SpeechGestureMatch","../RequiredFiles/videos/NeinDaumenhoch_f.mp4","Ist der Ball in der grünen Box?","Green","Blue","F","affirmation","mismatch","gesture","no","ThumbUp","female","gesture-speech","1422","800","edge-chromium","60.27","Windows 10","22","male","right","Mon Aug 19 2024 21:35:35 GMT+0200 (Mitteleuropäische Sommerzeit)","2","52","0","1724097256898"
"735","f","SpeechGestureMatch","../RequiredFiles/videos/NeinDaumenrunter_f.mp4","Ist der Ball in der blauen Box?","Green","Blue","F","negation","match","gesture","no","ThumbDown","female","gesture-speech","1422","800","edge-chromium","60.27","Windows 10","22","male","right","Mon Aug 19 2024 21:35:41 GMT+0200 (Mitteleuropäische Sommerzeit)","2","53","0","1724097256898"
"638","j","SpeechGestureMatch","../RequiredFiles/videos/NeinDaumenhoch_m.mp4","Ist der Ball in der grünen Box?","Blue","Green","J","affirmation","mismatch","gesture","no","ThumbUp","male","gesture-speech","1422","800","edge-chromium","60.27","Windows 10","22","male","right","Mon Aug 19 2024 21:35:48 GMT+0200 (Mitteleuropäische Sommerzeit)","2","54","0","1724097256898"
"600","j","SpeechGestureMatch","../RequiredFiles/videos/NeinDaumenrunter_m.mp4","Ist der Ball in der grünen Box?","Green","Blue","J","negation","match","gesture","no","ThumbDown","male","gesture-speech","1422","800","edge-chromium","60.27","Windows 10","22","male","right","Mon Aug 19 2024 21:35:54 GMT+0200 (Mitteleuropäische Sommerzeit)","2","55","0","1724097256898"
"605","j","SpeechGestureMatch","../RequiredFiles/videos/JaDaumenrunter_m.mp4","Ist der Ball in der grünen Box?","Blue","Green","F","negation","mismatch","gesture","yes","ThumbDown","male","gesture-speech","1422","800","edge-chromium","60.27","Windows 10","22","male","right","Mon Aug 19 2024 21:36:00 GMT+0200 (Mitteleuropäische Sommerzeit)","2","56","1","1724097256898"
"692","f","SpeechGestureMatch","../RequiredFiles/videos/NeinDaumenrunter_f.mp4","Ist der Ball in der grünen Box?","Blue","Green","F","negation","match","gesture","no","ThumbDown","female","gesture-speech","1422","800","edge-chromium","60.27","Windows 10","22","male","right","Mon Aug 19 2024 21:36:06 GMT+0200 (Mitteleuropäische Sommerzeit)","2","57","0","1724097256898"
"656","f","SpeechGestureMatch","../RequiredFiles/videos/NeinDaumenrunter_m.mp4","Ist der Ball in der grünen Box?","Blue","Green","F","negation","match","gesture","no","ThumbDown","male","gesture-speech","1422","800","edge-chromium","60.27","Windows 10","22","male","right","Mon Aug 19 2024 21:36:12 GMT+0200 (Mitteleuropäische Sommerzeit)","2","58","0","1724097256898"
"635","f","SpeechGestureMatch","../RequiredFiles/videos/NeinDaumenhoch_m.mp4","Ist der Ball in der blauen Box?","Blue","Green","F","affirmation","mismatch","gesture","no","ThumbUp","male","gesture-speech","1422","800","edge-chromium","60.27","Windows 10","22","male","right","Mon Aug 19 2024 21:36:19 GMT+0200 (Mitteleuropäische Sommerzeit)","2","59","0","1724097256898"
"646","f","SpeechGestureMatch","../RequiredFiles/videos/NeinDaumenhoch_f.mp4","Ist der Ball in der blauen Box?","Blue","Green","F","affirmation","mismatch","gesture","no","ThumbUp","female","gesture-speech","1422","800","edge-chromium","60.27","Windows 10","22","male","right","Mon Aug 19 2024 21:36:25 GMT+0200 (Mitteleuropäische Sommerzeit)","2","60","0","1724097256898"
"588","f","SpeechGestureMatch","../RequiredFiles/videos/NeinDaumenhoch_m.mp4","Ist der Ball in der grünen Box?","Green","Blue","F","affirmation","mismatch","gesture","no","ThumbUp","male","gesture-speech","1422","800","edge-chromium","60.27","Windows 10","22","male","right","Mon Aug 19 2024 21:36:31 GMT+0200 (Mitteleuropäische Sommerzeit)","2","61","0","1724097256898"
"547","j","SpeechGestureMatch","../RequiredFiles/videos/JaDaumenhoch_m.mp4","Ist der Ball in der grünen Box?","Blue","Green","J","affirmation","match","gesture","yes","ThumbUp","male","gesture-speech","1422","800","edge-chromium","60.27","Windows 10","22","male","right","Mon Aug 19 2024 21:36:37 GMT+0200 (Mitteleuropäische Sommerzeit)","2","62","0","1724097256898"
"619","f","SpeechGestureMatch","../RequiredFiles/videos/NeinDaumenrunter_m.mp4","Ist der Ball in der grünen Box?","Blue","Green","F","negation","match","gesture","no","ThumbDown","male","gesture-speech","1422","800","edge-chromium","60.27","Windows 10","22","male","right","Mon Aug 19 2024 21:36:43 GMT+0200 (Mitteleuropäische Sommerzeit)","2","63","0","1724097256898"
"568","f","SpeechGestureMatch","../RequiredFiles/videos/JaDaumenhoch_f.mp4","Ist der Ball in der blauen Box?","Blue","Green","F","affirmation","match","gesture","yes","ThumbUp","female","gesture-speech","1422","800","edge-chromium","60.27","Windows 10","22","male","right","Mon Aug 19 2024 21:36:49 GMT+0200 (Mitteleuropäische Sommerzeit)","2","64","0","1724097256898"
"691","j","SpeechGestureMatch","../RequiredFiles/videos/JaDaumenhoch_f.mp4","Ist der Ball in der blauen Box?","Green","Blue","J","affirmation","match","speech","yes","ThumbUp","female","gesture-speech","1422","800","edge-chromium","60.27","Windows 10","22","male","right","Mon Aug 19 2024 21:38:52 GMT+0200 (Mitteleuropäische Sommerzeit)","3","1","0","1724097256898"
"652","f","SpeechGestureMatch","../RequiredFiles/videos/NeinDaumenhoch_f.mp4","Ist der Ball in der blauen Box?","Green","Blue","F","negation","mismatch","speech","no","ThumbUp","female","gesture-speech","1422","800","edge-chromium","60.27","Windows 10","22","male","right","Mon Aug 19 2024 21:38:58 GMT+0200 (Mitteleuropäische Sommerzeit)","3","2","0","1724097256898"
"773","f","SpeechGestureMatch","../RequiredFiles/videos/JaDaumenhoch_m.mp4","Ist der Ball in der grünen Box?","Green","Blue","F","affirmation","match","speech","yes","ThumbUp","male","gesture-speech","1422","800","edge-chromium","60.27","Windows 10","22","male","right","Mon Aug 19 2024 21:39:05 GMT+0200 (Mitteleuropäische Sommerzeit)","3","3","0","1724097256898"
"611","j","SpeechGestureMatch","../RequiredFiles/videos/JaDaumenrunter_m.mp4","Ist der Ball in der grünen Box?","Blue","Green","J","affirmation","mismatch","speech","yes","ThumbDown","male","gesture-speech","1422","800","edge-chromium","60.27","Windows 10","22","male","right","Mon Aug 19 2024 21:39:11 GMT+0200 (Mitteleuropäische Sommerzeit)","3","4","0","1724097256898"
"717","f","SpeechGestureMatch","../RequiredFiles/videos/NeinDaumenrunter_f.mp4","Ist der Ball in der blauen Box?","Green","Blue","F","negation","match","speech","no","ThumbDown","female","gesture-speech","1422","800","edge-chromium","60.27","Windows 10","22","male","right","Mon Aug 19 2024 21:39:17 GMT+0200 (Mitteleuropäische Sommerzeit)","3","5","0","1724097256898"
"606","j","SpeechGestureMatch","../RequiredFiles/videos/NeinDaumenrunter_f.mp4","Ist der Ball in der grünen Box?","Green","Blue","J","negation","match","speech","no","ThumbDown","female","gesture-speech","1422","800","edge-chromium","60.27","Windows 10","22","male","right","Mon Aug 19 2024 21:39:23 GMT+0200 (Mitteleuropäische Sommerzeit)","3","6","0","1724097256898"
"555","f","SpeechGestureMatch","../RequiredFiles/videos/JaDaumenhoch_m.mp4","Ist der Ball in der grünen Box?","Blue","Green","J","affirmation","match","speech","yes","ThumbUp","male","gesture-speech","1422","800","edge-chromium","60.27","Windows 10","22","male","right","Mon Aug 19 2024 21:39:29 GMT+0200 (Mitteleuropäische Sommerzeit)","3","7","1","1724097256898"
"654","j","SpeechGestureMatch","../RequiredFiles/videos/NeinDaumenhoch_m.mp4","Ist der Ball in der grünen Box?","Green","Blue","J","negation","mismatch","speech","no","ThumbUp","male","gesture-speech","1422","800","edge-chromium","60.27","Windows 10","22","male","right","Mon Aug 19 2024 21:39:35 GMT+0200 (Mitteleuropäische Sommerzeit)","3","8","0","1724097256898"
"800","f","SpeechGestureMatch","../RequiredFiles/videos/NeinDaumenhoch_m.mp4","Ist der Ball in der grünen Box?","Blue","Green","F","negation","mismatch","speech","no","ThumbUp","male","gesture-speech","1422","800","edge-chromium","60.27","Windows 10","22","male","right","Mon Aug 19 2024 21:39:42 GMT+0200 (Mitteleuropäische Sommerzeit)","3","9","0","1724097256898"
"601","f","SpeechGestureMatch","../RequiredFiles/videos/JaDaumenhoch_f.mp4","Ist der Ball in der blauen Box?","Blue","Green","F","affirmation","match","speech","yes","ThumbUp","female","gesture-speech","1422","800","edge-chromium","60.27","Windows 10","22","male","right","Mon Aug 19 2024 21:39:48 GMT+0200 (Mitteleuropäische Sommerzeit)","3","10","0","1724097256898"
"878","f","SpeechGestureMatch","../RequiredFiles/videos/JaDaumenrunter_m.mp4","Ist der Ball in der blauen Box?","Blue","Green","F","affirmation","mismatch","speech","yes","ThumbDown","male","gesture-speech","1422","800","edge-chromium","60.27","Windows 10","22","male","right","Mon Aug 19 2024 21:39:54 GMT+0200 (Mitteleuropäische Sommerzeit)","3","11","0","1724097256898"
"622","j","SpeechGestureMatch","../RequiredFiles/videos/NeinDaumenrunter_m.mp4","Ist der Ball in der blauen Box?","Blue","Green","J","negation","match","speech","no","ThumbDown","male","gesture-speech","1422","800","edge-chromium","60.27","Windows 10","22","male","right","Mon Aug 19 2024 21:40:00 GMT+0200 (Mitteleuropäische Sommerzeit)","3","12","0","1724097256898"
"570","j","SpeechGestureMatch","../RequiredFiles/videos/NeinDaumenhoch_m.mp4","Ist der Ball in der blauen Box?","Blue","Green","J","negation","mismatch","speech","no","ThumbUp","male","gesture-speech","1422","800","edge-chromium","60.27","Windows 10","22","male","right","Mon Aug 19 2024 21:40:07 GMT+0200 (Mitteleuropäische Sommerzeit)","3","13","0","1724097256898"
"626","f","SpeechGestureMatch","../RequiredFiles/videos/JaDaumenhoch_f.mp4","Ist der Ball in der blauen Box?","Blue","Green","F","affirmation","match","speech","yes","ThumbUp","female","gesture-speech","1422","800","edge-chromium","60.27","Windows 10","22","male","right","Mon Aug 19 2024 21:40:13 GMT+0200 (Mitteleuropäische Sommerzeit)","3","14","0","1724097256898"
"599","j","SpeechGestureMatch","../RequiredFiles/videos/JaDaumenhoch_m.mp4","Ist der Ball in der blauen Box?","Blue","Green","F","affirmation","match","speech","yes","ThumbUp","male","gesture-speech","1422","800","edge-chromium","60.27","Windows 10","22","male","right","Mon Aug 19 2024 21:40:19 GMT+0200 (Mitteleuropäische Sommerzeit)","3","15","1","1724097256898"
"678","f","SpeechGestureMatch","../RequiredFiles/videos/NeinDaumenrunter_m.mp4","Ist der Ball in der blauen Box?","Green","Blue","F","negation","match","speech","no","ThumbDown","male","gesture-speech","1422","800","edge-chromium","60.27","Windows 10","22","male","right","Mon Aug 19 2024 21:40:25 GMT+0200 (Mitteleuropäische Sommerzeit)","3","16","0","1724097256898"
"812","j","SpeechGestureMatch","../RequiredFiles/videos/NeinDaumenrunter_m.mp4","Ist der Ball in der grünen Box?","Green","Blue","J","negation","match","speech","no","ThumbDown","male","gesture-speech","1422","800","edge-chromium","60.27","Windows 10","22","male","right","Mon Aug 19 2024 21:40:31 GMT+0200 (Mitteleuropäische Sommerzeit)","3","17","0","1724097256898"
"635","j","SpeechGestureMatch","../RequiredFiles/videos/JaDaumenrunter_m.mp4","Ist der Ball in der blauen Box?","Green","Blue","J","affirmation","mismatch","speech","yes","ThumbDown","male","gesture-speech","1422","800","edge-chromium","60.27","Windows 10","22","male","right","Mon Aug 19 2024 21:40:38 GMT+0200 (Mitteleuropäische Sommerzeit)","3","18","0","1724097256898"
"695","j","SpeechGestureMatch","../RequiredFiles/videos/NeinDaumenhoch_f.mp4","Ist der Ball in der blauen Box?","Blue","Green","J","negation","mismatch","speech","no","ThumbUp","female","gesture-speech","1422","800","edge-chromium","60.27","Windows 10","22","male","right","Mon Aug 19 2024 21:40:44 GMT+0200 (Mitteleuropäische Sommerzeit)","3","19","0","1724097256898"
"676","j","SpeechGestureMatch","../RequiredFiles/videos/JaDaumenrunter_f.mp4","Ist der Ball in der blauen Box?","Green","Blue","J","affirmation","mismatch","speech","yes","ThumbDown","female","gesture-speech","1422","800","edge-chromium","60.27","Windows 10","22","male","right","Mon Aug 19 2024 21:40:50 GMT+0200 (Mitteleuropäische Sommerzeit)","3","20","0","1724097256898"
"779","f","SpeechGestureMatch","../RequiredFiles/videos/NeinDaumenhoch_f.mp4","Ist der Ball in der grünen Box?","Green","Blue","J","negation","mismatch","speech","no","ThumbUp","female","gesture-speech","1422","800","edge-chromium","60.27","Windows 10","22","male","right","Mon Aug 19 2024 21:40:56 GMT+0200 (Mitteleuropäische Sommerzeit)","3","21","1","1724097256898"
"789","f","SpeechGestureMatch","../RequiredFiles/videos/JaDaumenhoch_f.mp4","Ist der Ball in der grünen Box?","Green","Blue","F","affirmation","match","speech","yes","ThumbUp","female","gesture-speech","1422","800","edge-chromium","60.27","Windows 10","22","male","right","Mon Aug 19 2024 21:41:03 GMT+0200 (Mitteleuropäische Sommerzeit)","3","22","0","1724097256898"
"641","f","SpeechGestureMatch","../RequiredFiles/videos/NeinDaumenhoch_m.mp4","Ist der Ball in der blauen Box?","Green","Blue","F","negation","mismatch","speech","no","ThumbUp","male","gesture-speech","1422","800","edge-chromium","60.27","Windows 10","22","male","right","Mon Aug 19 2024 21:41:09 GMT+0200 (Mitteleuropäische Sommerzeit)","3","23","0","1724097256898"
"666","f","SpeechGestureMatch","../RequiredFiles/videos/JaDaumenrunter_m.mp4","Ist der Ball in der grünen Box?","Green","Blue","F","affirmation","mismatch","speech","yes","ThumbDown","male","gesture-speech","1422","800","edge-chromium","60.27","Windows 10","22","male","right","Mon Aug 19 2024 21:41:15 GMT+0200 (Mitteleuropäische Sommerzeit)","3","24","0","1724097256898"
"585","j","SpeechGestureMatch","../RequiredFiles/videos/NeinDaumenrunter_m.mp4","Ist der Ball in der grünen Box?","Green","Blue","J","negation","match","speech","no","ThumbDown","male","gesture-speech","1422","800","edge-chromium","60.27","Windows 10","22","male","right","Mon Aug 19 2024 21:41:21 GMT+0200 (Mitteleuropäische Sommerzeit)","3","25","0","1724097256898"
"701","j","SpeechGestureMatch","../RequiredFiles/videos/JaDaumenrunter_f.mp4","Ist der Ball in der grünen Box?","Blue","Green","J","affirmation","mismatch","speech","yes","ThumbDown","female","gesture-speech","1422","800","edge-chromium","60.27","Windows 10","22","male","right","Mon Aug 19 2024 21:41:27 GMT+0200 (Mitteleuropäische Sommerzeit)","3","26","0","1724097256898"
"618","f","SpeechGestureMatch","../RequiredFiles/videos/NeinDaumenrunter_f.mp4","Ist der Ball in der grünen Box?","Blue","Green","F","negation","match","speech","no","ThumbDown","female","gesture-speech","1422","800","edge-chromium","60.27","Windows 10","22","male","right","Mon Aug 19 2024 21:41:34 GMT+0200 (Mitteleuropäische Sommerzeit)","3","27","0","1724097256898"
"766","f","SpeechGestureMatch","../RequiredFiles/videos/NeinDaumenrunter_m.mp4","Ist der Ball in der blauen Box?","Green","Blue","F","negation","match","speech","no","ThumbDown","male","gesture-speech","1422","800","edge-chromium","60.27","Windows 10","22","male","right","Mon Aug 19 2024 21:41:40 GMT+0200 (Mitteleuropäische Sommerzeit)","3","28","0","1724097256898"
"541","f","SpeechGestureMatch","../RequiredFiles/videos/NeinDaumenhoch_f.mp4","Ist der Ball in der grünen Box?","Green","Blue","J","negation","mismatch","speech","no","ThumbUp","female","gesture-speech","1422","800","edge-chromium","60.27","Windows 10","22","male","right","Mon Aug 19 2024 21:41:46 GMT+0200 (Mitteleuropäische Sommerzeit)","3","29","1","1724097256898"
"704","j","SpeechGestureMatch","../RequiredFiles/videos/JaDaumenhoch_f.mp4","Ist der Ball in der grünen Box?","Blue","Green","J","affirmation","match","speech","yes","ThumbUp","female","gesture-speech","1422","800","edge-chromium","60.27","Windows 10","22","male","right","Mon Aug 19 2024 21:41:52 GMT+0200 (Mitteleuropäische Sommerzeit)","3","30","0","1724097256898"
"651","f","SpeechGestureMatch","../RequiredFiles/videos/NeinDaumenhoch_f.mp4","Ist der Ball in der grünen Box?","Blue","Green","F","negation","mismatch","speech","no","ThumbUp","female","gesture-speech","1422","800","edge-chromium","60.27","Windows 10","22","male","right","Mon Aug 19 2024 21:41:58 GMT+0200 (Mitteleuropäische Sommerzeit)","3","31","0","1724097256898"
"701","f","SpeechGestureMatch","../RequiredFiles/videos/NeinDaumenhoch_m.mp4","Ist der Ball in der grünen Box?","Green","Blue","J","negation","mismatch","speech","no","ThumbUp","male","gesture-speech","1422","800","edge-chromium","60.27","Windows 10","22","male","right","Mon Aug 19 2024 21:42:05 GMT+0200 (Mitteleuropäische Sommerzeit)","3","32","1","1724097256898"
"638","f","SpeechGestureMatch","../RequiredFiles/videos/JaDaumenrunter_m.mp4","Ist der Ball in der grünen Box?","Green","Blue","F","affirmation","mismatch","speech","yes","ThumbDown","male","gesture-speech","1422","800","edge-chromium","60.27","Windows 10","22","male","right","Mon Aug 19 2024 21:42:11 GMT+0200 (Mitteleuropäische Sommerzeit)","3","33","0","1724097256898"
"740","f","SpeechGestureMatch","../RequiredFiles/videos/NeinDaumenrunter_m.mp4","Ist der Ball in der grünen Box?","Blue","Green","F","negation","match","speech","no","ThumbDown","male","gesture-speech","1422","800","edge-chromium","60.27","Windows 10","22","male","right","Mon Aug 19 2024 21:42:17 GMT+0200 (Mitteleuropäische Sommerzeit)","3","34","0","1724097256898"
"739","f","SpeechGestureMatch","../RequiredFiles/videos/NeinDaumenhoch_m.mp4","Ist der Ball in der grünen Box?","Blue","Green","F","negation","mismatch","speech","no","ThumbUp","male","gesture-speech","1422","800","edge-chromium","60.27","Windows 10","22","male","right","Mon Aug 19 2024 21:42:23 GMT+0200 (Mitteleuropäische Sommerzeit)","3","35","0","1724097256898"
"782","f","SpeechGestureMatch","../RequiredFiles/videos/JaDaumenrunter_f.mp4","Ist der Ball in der blauen Box?","Blue","Green","F","affirmation","mismatch","speech","yes","ThumbDown","female","gesture-speech","1422","800","edge-chromium","60.27","Windows 10","22","male","right","Mon Aug 19 2024 21:42:30 GMT+0200 (Mitteleuropäische Sommerzeit)","3","36","0","1724097256898"
"559","j","SpeechGestureMatch","../RequiredFiles/videos/NeinDaumenrunter_f.mp4","Ist der Ball in der blauen Box?","Blue","Green","J","negation","match","speech","no","ThumbDown","female","gesture-speech","1422","800","edge-chromium","60.27","Windows 10","22","male","right","Mon Aug 19 2024 21:42:36 GMT+0200 (Mitteleuropäische Sommerzeit)","3","37","0","1724097256898"
"643","j","SpeechGestureMatch","../RequiredFiles/videos/JaDaumenhoch_f.mp4","Ist der Ball in der blauen Box?","Green","Blue","J","affirmation","match","speech","yes","ThumbUp","female","gesture-speech","1422","800","edge-chromium","60.27","Windows 10","22","male","right","Mon Aug 19 2024 21:42:42 GMT+0200 (Mitteleuropäische Sommerzeit)","3","38","0","1724097256898"
"560","f","SpeechGestureMatch","../RequiredFiles/videos/NeinDaumenhoch_f.mp4","Ist der Ball in der blauen Box?","Green","Blue","F","negation","mismatch","speech","no","ThumbUp","female","gesture-speech","1422","800","edge-chromium","60.27","Windows 10","22","male","right","Mon Aug 19 2024 21:42:48 GMT+0200 (Mitteleuropäische Sommerzeit)","3","39","0","1724097256898"
"554","j","SpeechGestureMatch","../RequiredFiles/videos/NeinDaumenhoch_m.mp4","Ist der Ball in der blauen Box?","Blue","Green","J","negation","mismatch","speech","no","ThumbUp","male","gesture-speech","1422","800","edge-chromium","60.27","Windows 10","22","male","right","Mon Aug 19 2024 21:42:54 GMT+0200 (Mitteleuropäische Sommerzeit)","3","40","0","1724097256898"
"654","f","SpeechGestureMatch","../RequiredFiles/videos/JaDaumenrunter_f.mp4","Ist der Ball in der grünen Box?","Green","Blue","F","affirmation","mismatch","speech","yes","ThumbDown","female","gesture-speech","1422","800","edge-chromium","60.27","Windows 10","22","male","right","Mon Aug 19 2024 21:43:00 GMT+0200 (Mitteleuropäische Sommerzeit)","3","41","0","1724097256898"
"614","f","SpeechGestureMatch","../RequiredFiles/videos/NeinDaumenrunter_f.mp4","Ist der Ball in der grünen Box?","Blue","Green","F","negation","match","speech","no","ThumbDown","female","gesture-speech","1422","800","edge-chromium","60.27","Windows 10","22","male","right","Mon Aug 19 2024 21:43:07 GMT+0200 (Mitteleuropäische Sommerzeit)","3","42","0","1724097256898"
"596","f","SpeechGestureMatch","../RequiredFiles/videos/JaDaumenhoch_m.mp4","Ist der Ball in der grünen Box?","Green","Blue","F","affirmation","match","speech","yes","ThumbUp","male","gesture-speech","1422","800","edge-chromium","60.27","Windows 10","22","male","right","Mon Aug 19 2024 21:43:13 GMT+0200 (Mitteleuropäische Sommerzeit)","3","43","0","1724097256898"
"1354","j","SpeechGestureMatch","../RequiredFiles/videos/JaDaumenrunter_m.mp4","Ist der Ball in der grünen Box?","Blue","Green","J","affirmation","mismatch","speech","yes","ThumbDown","male","gesture-speech","1422","800","edge-chromium","60.27","Windows 10","22","male","right","Mon Aug 19 2024 21:43:20 GMT+0200 (Mitteleuropäische Sommerzeit)","3","44","0","1724097256898"
"674","j","SpeechGestureMatch","../RequiredFiles/videos/JaDaumenrunter_f.mp4","Ist der Ball in der grünen Box?","Blue","Green","J","affirmation","mismatch","speech","yes","ThumbDown","female","gesture-speech","1422","800","edge-chromium","60.27","Windows 10","22","male","right","Mon Aug 19 2024 21:43:26 GMT+0200 (Mitteleuropäische Sommerzeit)","3","45","0","1724097256898"
"742","j","SpeechGestureMatch","../RequiredFiles/videos/JaDaumenrunter_f.mp4","Ist der Ball in der blauen Box?","Green","Blue","J","affirmation","mismatch","speech","yes","ThumbDown","female","gesture-speech","1422","800","edge-chromium","60.27","Windows 10","22","male","right","Mon Aug 19 2024 21:43:32 GMT+0200 (Mitteleuropäische Sommerzeit)","3","46","0","1724097256898"
"1151","f","SpeechGestureMatch","../RequiredFiles/videos/JaDaumenrunter_f.mp4","Ist der Ball in der blauen Box?","Blue","Green","F","affirmation","mismatch","speech","yes","ThumbDown","female","gesture-speech","1422","800","edge-chromium","60.27","Windows 10","22","male","right","Mon Aug 19 2024 21:43:39 GMT+0200 (Mitteleuropäische Sommerzeit)","3","47","0","1724097256898"
"590","f","SpeechGestureMatch","../RequiredFiles/videos/JaDaumenrunter_f.mp4","Ist der Ball in der grünen Box?","Green","Blue","F","affirmation","mismatch","speech","yes","ThumbDown","female","gesture-speech","1422","800","edge-chromium","60.27","Windows 10","22","male","right","Mon Aug 19 2024 21:43:45 GMT+0200 (Mitteleuropäische Sommerzeit)","3","48","0","1724097256898"
"661","j","SpeechGestureMatch","../RequiredFiles/videos/NeinDaumenrunter_f.mp4","Ist der Ball in der grünen Box?","Green","Blue","J","negation","match","speech","no","ThumbDown","female","gesture-speech","1422","800","edge-chromium","60.27","Windows 10","22","male","right","Mon Aug 19 2024 21:43:51 GMT+0200 (Mitteleuropäische Sommerzeit)","3","49","0","1724097256898"
"588","f","SpeechGestureMatch","../RequiredFiles/videos/NeinDaumenrunter_m.mp4","Ist der Ball in der grünen Box?","Blue","Green","F","negation","match","speech","no","ThumbDown","male","gesture-speech","1422","800","edge-chromium","60.27","Windows 10","22","male","right","Mon Aug 19 2024 21:43:57 GMT+0200 (Mitteleuropäische Sommerzeit)","3","50","0","1724097256898"
"693","f","SpeechGestureMatch","../RequiredFiles/videos/JaDaumenrunter_m.mp4","Ist der Ball in der blauen Box?","Blue","Green","F","affirmation","mismatch","speech","yes","ThumbDown","male","gesture-speech","1422","800","edge-chromium","60.27","Windows 10","22","male","right","Mon Aug 19 2024 21:44:03 GMT+0200 (Mitteleuropäische Sommerzeit)","3","51","0","1724097256898"
"610","j","SpeechGestureMatch","../RequiredFiles/videos/JaDaumenhoch_m.mp4","Ist der Ball in der blauen Box?","Green","Blue","J","affirmation","match","speech","yes","ThumbUp","male","gesture-speech","1422","800","edge-chromium","60.27","Windows 10","22","male","right","Mon Aug 19 2024 21:44:10 GMT+0200 (Mitteleuropäische Sommerzeit)","3","52","0","1724097256898"
"627","j","SpeechGestureMatch","../RequiredFiles/videos/NeinDaumenrunter_m.mp4","Ist der Ball in der blauen Box?","Blue","Green","J","negation","match","speech","no","ThumbDown","male","gesture-speech","1422","800","edge-chromium","60.27","Windows 10","22","male","right","Mon Aug 19 2024 21:44:16 GMT+0200 (Mitteleuropäische Sommerzeit)","3","53","0","1724097256898"
"664","f","SpeechGestureMatch","../RequiredFiles/videos/NeinDaumenhoch_m.mp4","Ist der Ball in der blauen Box?","Green","Blue","F","negation","mismatch","speech","no","ThumbUp","male","gesture-speech","1422","800","edge-chromium","60.27","Windows 10","22","male","right","Mon Aug 19 2024 21:44:22 GMT+0200 (Mitteleuropäische Sommerzeit)","3","54","0","1724097256898"
"545","f","SpeechGestureMatch","../RequiredFiles/videos/JaDaumenhoch_m.mp4","Ist der Ball in der grünen Box?","Blue","Green","J","affirmation","match","speech","yes","ThumbUp","male","gesture-speech","1422","800","edge-chromium","60.27","Windows 10","22","male","right","Mon Aug 19 2024 21:44:28 GMT+0200 (Mitteleuropäische Sommerzeit)","3","55","1","1724097256898"
"617","j","SpeechGestureMatch","../RequiredFiles/videos/JaDaumenrunter_m.mp4","Ist der Ball in der blauen Box?","Green","Blue","J","affirmation","mismatch","speech","yes","ThumbDown","male","gesture-speech","1422","800","edge-chromium","60.27","Windows 10","22","male","right","Mon Aug 19 2024 21:44:34 GMT+0200 (Mitteleuropäische Sommerzeit)","3","56","0","1724097256898"
"536","j","SpeechGestureMatch","../RequiredFiles/videos/JaDaumenhoch_m.mp4","Ist der Ball in der blauen Box?","Blue","Green","F","affirmation","match","speech","yes","ThumbUp","male","gesture-speech","1422","800","edge-chromium","60.27","Windows 10","22","male","right","Mon Aug 19 2024 21:44:40 GMT+0200 (Mitteleuropäische Sommerzeit)","3","57","1","1724097256898"
"580","j","SpeechGestureMatch","../RequiredFiles/videos/JaDaumenhoch_m.mp4","Ist der Ball in der blauen Box?","Green","Blue","J","affirmation","match","speech","yes","ThumbUp","male","gesture-speech","1422","800","edge-chromium","60.27","Windows 10","22","male","right","Mon Aug 19 2024 21:44:46 GMT+0200 (Mitteleuropäische Sommerzeit)","3","58","0","1724097256898"
"689","j","SpeechGestureMatch","../RequiredFiles/videos/NeinDaumenrunter_f.mp4","Ist der Ball in der blauen Box?","Blue","Green","J","negation","match","speech","no","ThumbDown","female","gesture-speech","1422","800","edge-chromium","60.27","Windows 10","22","male","right","Mon Aug 19 2024 21:44:53 GMT+0200 (Mitteleuropäische Sommerzeit)","3","59","0","1724097256898"
"637","j","SpeechGestureMatch","../RequiredFiles/videos/JaDaumenhoch_f.mp4","Ist der Ball in der grünen Box?","Green","Blue","F","affirmation","match","speech","yes","ThumbUp","female","gesture-speech","1422","800","edge-chromium","60.27","Windows 10","22","male","right","Mon Aug 19 2024 21:44:59 GMT+0200 (Mitteleuropäische Sommerzeit)","3","60","1","1724097256898"
"631","f","SpeechGestureMatch","../RequiredFiles/videos/NeinDaumenrunter_f.mp4","Ist der Ball in der blauen Box?","Green","Blue","F","negation","match","speech","no","ThumbDown","female","gesture-speech","1422","800","edge-chromium","60.27","Windows 10","22","male","right","Mon Aug 19 2024 21:45:05 GMT+0200 (Mitteleuropäische Sommerzeit)","3","61","0","1724097256898"
"610","j","SpeechGestureMatch","../RequiredFiles/videos/NeinDaumenhoch_f.mp4","Ist der Ball in der blauen Box?","Blue","Green","J","negation","mismatch","speech","no","ThumbUp","female","gesture-speech","1422","800","edge-chromium","60.27","Windows 10","22","male","right","Mon Aug 19 2024 21:45:11 GMT+0200 (Mitteleuropäische Sommerzeit)","3","62","0","1724097256898"
"639","f","SpeechGestureMatch","../RequiredFiles/videos/NeinDaumenhoch_f.mp4","Ist der Ball in der grünen Box?","Blue","Green","F","negation","mismatch","speech","no","ThumbUp","female","gesture-speech","1422","800","edge-chromium","60.27","Windows 10","22","male","right","Mon Aug 19 2024 21:45:17 GMT+0200 (Mitteleuropäische Sommerzeit)","3","63","0","1724097256898"
"636","f","SpeechGestureMatch","../RequiredFiles/videos/JaDaumenhoch_f.mp4","Ist der Ball in der grünen Box?","Blue","Green","J","affirmation","match","speech","yes","ThumbUp","female","gesture-speech","1422","800","edge-chromium","60.27","Windows 10","22","male","right","Mon Aug 19 2024 21:45:24 GMT+0200 (Mitteleuropäische Sommerzeit)","3","64","1","1724097256898"
"910","f","SpeechGestureMatch","../RequiredFiles/videos/NeinDaumenrunter_f.mp4","Ist der Ball in der blauen Box?","Green","Blue","F","negation","match","speech","no","ThumbDown","female","gesture-speech","1422","800","edge-chromium","60.27","Windows 10","22","male","right","Mon Aug 19 2024 21:47:35 GMT+0200 (Mitteleuropäische Sommerzeit)","4","1","0","1724097256898"
"710","j","SpeechGestureMatch","../RequiredFiles/videos/JaDaumenrunter_f.mp4","Ist der Ball in der blauen Box?","Green","Blue","J","affirmation","mismatch","speech","yes","ThumbDown","female","gesture-speech","1422","800","edge-chromium","60.27","Windows 10","22","male","right","Mon Aug 19 2024 21:47:41 GMT+0200 (Mitteleuropäische Sommerzeit)","4","2","0","1724097256898"
"537","f","SpeechGestureMatch","../RequiredFiles/videos/NeinDaumenhoch_m.mp4","Ist der Ball in der grünen Box?","Blue","Green","F","negation","mismatch","speech","no","ThumbUp","male","gesture-speech","1422","800","edge-chromium","60.27","Windows 10","22","male","right","Mon Aug 19 2024 21:47:47 GMT+0200 (Mitteleuropäische Sommerzeit)","4","3","0","1724097256898"
"554","f","SpeechGestureMatch","../RequiredFiles/videos/JaDaumenhoch_m.mp4","Ist der Ball in der blauen Box?","Green","Blue","J","affirmation","match","speech","yes","ThumbUp","male","gesture-speech","1422","800","edge-chromium","60.27","Windows 10","22","male","right","Mon Aug 19 2024 21:47:53 GMT+0200 (Mitteleuropäische Sommerzeit)","4","4","1","1724097256898"
"1029","f","SpeechGestureMatch","../RequiredFiles/videos/NeinDaumenrunter_f.mp4","Ist der Ball in der grünen Box?","Blue","Green","F","negation","match","speech","no","ThumbDown","female","gesture-speech","1422","800","edge-chromium","60.27","Windows 10","22","male","right","Mon Aug 19 2024 21:48:00 GMT+0200 (Mitteleuropäische Sommerzeit)","4","5","0","1724097256898"
"654","j","SpeechGestureMatch","../RequiredFiles/videos/NeinDaumenrunter_f.mp4","Ist der Ball in der grünen Box?","Green","Blue","J","negation","match","speech","no","ThumbDown","female","gesture-speech","1422","800","edge-chromium","60.27","Windows 10","22","male","right","Mon Aug 19 2024 21:48:06 GMT+0200 (Mitteleuropäische Sommerzeit)","4","6","0","1724097256898"
"725","j","SpeechGestureMatch","../RequiredFiles/videos/JaDaumenrunter_m.mp4","Ist der Ball in der grünen Box?","Blue","Green","J","affirmation","mismatch","speech","yes","ThumbDown","male","gesture-speech","1422","800","edge-chromium","60.27","Windows 10","22","male","right","Mon Aug 19 2024 21:48:12 GMT+0200 (Mitteleuropäische Sommerzeit)","4","7","0","1724097256898"
"575","f","SpeechGestureMatch","../RequiredFiles/videos/NeinDaumenhoch_f.mp4","Ist der Ball in der grünen Box?","Blue","Green","F","negation","mismatch","speech","no","ThumbUp","female","gesture-speech","1422","800","edge-chromium","60.27","Windows 10","22","male","right","Mon Aug 19 2024 21:48:19 GMT+0200 (Mitteleuropäische Sommerzeit)","4","8","0","1724097256898"
"568","j","SpeechGestureMatch","../RequiredFiles/videos/JaDaumenhoch_m.mp4","Ist der Ball in der blauen Box?","Blue","Green","F","affirmation","match","speech","yes","ThumbUp","male","gesture-speech","1422","800","edge-chromium","60.27","Windows 10","22","male","right","Mon Aug 19 2024 21:48:25 GMT+0200 (Mitteleuropäische Sommerzeit)","4","9","1","1724097256898"
"642","j","SpeechGestureMatch","../RequiredFiles/videos/JaDaumenhoch_m.mp4","Ist der Ball in der grünen Box?","Blue","Green","J","affirmation","match","speech","yes","ThumbUp","male","gesture-speech","1422","800","edge-chromium","60.27","Windows 10","22","male","right","Mon Aug 19 2024 21:48:31 GMT+0200 (Mitteleuropäische Sommerzeit)","4","10","0","1724097256898"
"780","f","SpeechGestureMatch","../RequiredFiles/videos/JaDaumenrunter_f.mp4","Ist der Ball in der grünen Box?","Green","Blue","F","affirmation","mismatch","speech","yes","ThumbDown","female","gesture-speech","1422","800","edge-chromium","60.27","Windows 10","22","male","right","Mon Aug 19 2024 21:48:37 GMT+0200 (Mitteleuropäische Sommerzeit)","4","11","0","1724097256898"
"733","f","SpeechGestureMatch","../RequiredFiles/videos/NeinDaumenhoch_m.mp4","Ist der Ball in der blauen Box?","Blue","Green","J","negation","mismatch","speech","no","ThumbUp","male","gesture-speech","1422","800","edge-chromium","60.27","Windows 10","22","male","right","Mon Aug 19 2024 21:48:43 GMT+0200 (Mitteleuropäische Sommerzeit)","4","12","1","1724097256898"
"603","j","SpeechGestureMatch","../RequiredFiles/videos/NeinDaumenrunter_m.mp4","Ist der Ball in der grünen Box?","Green","Blue","J","negation","match","speech","no","ThumbDown","male","gesture-speech","1422","800","edge-chromium","60.27","Windows 10","22","male","right","Mon Aug 19 2024 21:48:50 GMT+0200 (Mitteleuropäische Sommerzeit)","4","13","0","1724097256898"
"670","j","SpeechGestureMatch","../RequiredFiles/videos/NeinDaumenrunter_m.mp4","Ist der Ball in der grünen Box?","Blue","Green","F","negation","match","speech","no","ThumbDown","male","gesture-speech","1422","800","edge-chromium","60.27","Windows 10","22","male","right","Mon Aug 19 2024 21:48:56 GMT+0200 (Mitteleuropäische Sommerzeit)","4","14","1","1724097256898"
"654","f","SpeechGestureMatch","../RequiredFiles/videos/JaDaumenrunter_m.mp4","Ist der Ball in der grünen Box?","Green","Blue","F","affirmation","mismatch","speech","yes","ThumbDown","male","gesture-speech","1422","800","edge-chromium","60.27","Windows 10","22","male","right","Mon Aug 19 2024 21:49:02 GMT+0200 (Mitteleuropäische Sommerzeit)","4","15","0","1724097256898"
"598","j","SpeechGestureMatch","../RequiredFiles/videos/NeinDaumenrunter_m.mp4","Ist der Ball in der blauen Box?","Blue","Green","J","negation","match","speech","no","ThumbDown","male","gesture-speech","1422","800","edge-chromium","60.27","Windows 10","22","male","right","Mon Aug 19 2024 21:49:08 GMT+0200 (Mitteleuropäische Sommerzeit)","4","16","0","1724097256898"
"810","j","SpeechGestureMatch","../RequiredFiles/videos/NeinDaumenhoch_f.mp4","Ist der Ball in der blauen Box?","Blue","Green","J","negation","mismatch","speech","no","ThumbUp","female","gesture-speech","1422","800","edge-chromium","60.27","Windows 10","22","male","right","Mon Aug 19 2024 21:49:15 GMT+0200 (Mitteleuropäische Sommerzeit)","4","17","0","1724097256898"
"765","f","SpeechGestureMatch","../RequiredFiles/videos/NeinDaumenrunter_f.mp4","Ist der Ball in der grünen Box?","Blue","Green","F","negation","match","speech","no","ThumbDown","female","gesture-speech","1422","800","edge-chromium","60.27","Windows 10","22","male","right","Mon Aug 19 2024 21:49:21 GMT+0200 (Mitteleuropäische Sommerzeit)","4","18","0","1724097256898"
"752","f","SpeechGestureMatch","../RequiredFiles/videos/JaDaumenrunter_m.mp4","Ist der Ball in der grünen Box?","Green","Blue","F","affirmation","mismatch","speech","yes","ThumbDown","male","gesture-speech","1422","800","edge-chromium","60.27","Windows 10","22","male","right","Mon Aug 19 2024 21:49:27 GMT+0200 (Mitteleuropäische Sommerzeit)","4","19","0","1724097256898"
"714","f","SpeechGestureMatch","../RequiredFiles/videos/JaDaumenhoch_f.mp4","Ist der Ball in der blauen Box?","Blue","Green","F","affirmation","match","speech","yes","ThumbUp","female","gesture-speech","1422","800","edge-chromium","60.27","Windows 10","22","male","right","Mon Aug 19 2024 21:49:33 GMT+0200 (Mitteleuropäische Sommerzeit)","4","20","0","1724097256898"
"752","f","SpeechGestureMatch","../RequiredFiles/videos/NeinDaumenrunter_f.mp4","Ist der Ball in der blauen Box?","Green","Blue","F","negation","match","speech","no","ThumbDown","female","gesture-speech","1422","800","edge-chromium","60.27","Windows 10","22","male","right","Mon Aug 19 2024 21:49:40 GMT+0200 (Mitteleuropäische Sommerzeit)","4","21","0","1724097256898"
"642","j","SpeechGestureMatch","../RequiredFiles/videos/JaDaumenhoch_f.mp4","Ist der Ball in der blauen Box?","Green","Blue","J","affirmation","match","speech","yes","ThumbUp","female","gesture-speech","1422","800","edge-chromium","60.27","Windows 10","22","male","right","Mon Aug 19 2024 21:49:46 GMT+0200 (Mitteleuropäische Sommerzeit)","4","22","0","1724097256898"
"660","j","SpeechGestureMatch","../RequiredFiles/videos/JaDaumenrunter_m.mp4","Ist der Ball in der blauen Box?","Green","Blue","J","affirmation","mismatch","speech","yes","ThumbDown","male","gesture-speech","1422","800","edge-chromium","60.27","Windows 10","22","male","right","Mon Aug 19 2024 21:49:52 GMT+0200 (Mitteleuropäische Sommerzeit)","4","23","0","1724097256898"
"614","f","SpeechGestureMatch","../RequiredFiles/videos/NeinDaumenrunter_m.mp4","Ist der Ball in der blauen Box?","Green","Blue","F","negation","match","speech","no","ThumbDown","male","gesture-speech","1422","800","edge-chromium","60.27","Windows 10","22","male","right","Mon Aug 19 2024 21:49:58 GMT+0200 (Mitteleuropäische Sommerzeit)","4","24","0","1724097256898"
"607","j","SpeechGestureMatch","../RequiredFiles/videos/JaDaumenhoch_f.mp4","Ist der Ball in der blauen Box?","Green","Blue","J","affirmation","match","speech","yes","ThumbUp","female","gesture-speech","1422","800","edge-chromium","60.27","Windows 10","22","male","right","Mon Aug 19 2024 21:50:04 GMT+0200 (Mitteleuropäische Sommerzeit)","4","25","0","1724097256898"
"724","f","SpeechGestureMatch","../RequiredFiles/videos/JaDaumenrunter_f.mp4","Ist der Ball in der blauen Box?","Blue","Green","F","affirmation","mismatch","speech","yes","ThumbDown","female","gesture-speech","1422","800","edge-chromium","60.27","Windows 10","22","male","right","Mon Aug 19 2024 21:50:11 GMT+0200 (Mitteleuropäische Sommerzeit)","4","26","0","1724097256898"
"618","j","SpeechGestureMatch","../RequiredFiles/videos/JaDaumenhoch_f.mp4","Ist der Ball in der grünen Box?","Blue","Green","J","affirmation","match","speech","yes","ThumbUp","female","gesture-speech","1422","800","edge-chromium","60.27","Windows 10","22","male","right","Mon Aug 19 2024 21:50:17 GMT+0200 (Mitteleuropäische Sommerzeit)","4","27","0","1724097256898"
"656","j","SpeechGestureMatch","../RequiredFiles/videos/NeinDaumenhoch_f.mp4","Ist der Ball in der grünen Box?","Green","Blue","J","negation","mismatch","speech","no","ThumbUp","female","gesture-speech","1422","800","edge-chromium","60.27","Windows 10","22","male","right","Mon Aug 19 2024 21:50:23 GMT+0200 (Mitteleuropäische Sommerzeit)","4","28","0","1724097256898"
"678","f","SpeechGestureMatch","../RequiredFiles/videos/NeinDaumenhoch_f.mp4","Ist der Ball in der grünen Box?","Blue","Green","F","negation","mismatch","speech","no","ThumbUp","female","gesture-speech","1422","800","edge-chromium","60.27","Windows 10","22","male","right","Mon Aug 19 2024 21:50:29 GMT+0200 (Mitteleuropäische Sommerzeit)","4","29","0","1724097256898"
"581","j","SpeechGestureMatch","../RequiredFiles/videos/JaDaumenhoch_f.mp4","Ist der Ball in der grünen Box?","Blue","Green","J","affirmation","match","speech","yes","ThumbUp","female","gesture-speech","1422","800","edge-chromium","60.27","Windows 10","22","male","right","Mon Aug 19 2024 21:50:35 GMT+0200 (Mitteleuropäische Sommerzeit)","4","30","0","1724097256898"
"589","f","SpeechGestureMatch","../RequiredFiles/videos/JaDaumenhoch_f.mp4","Ist der Ball in der blauen Box?","Blue","Green","F","affirmation","match","speech","yes","ThumbUp","female","gesture-speech","1422","800","edge-chromium","60.27","Windows 10","22","male","right","Mon Aug 19 2024 21:50:41 GMT+0200 (Mitteleuropäische Sommerzeit)","4","31","0","1724097256898"
"651","j","SpeechGestureMatch","../RequiredFiles/videos/NeinDaumenrunter_f.mp4","Ist der Ball in der blauen Box?","Blue","Green","J","negation","match","speech","no","ThumbDown","female","gesture-speech","1422","800","edge-chromium","60.27","Windows 10","22","male","right","Mon Aug 19 2024 21:50:48 GMT+0200 (Mitteleuropäische Sommerzeit)","4","32","0","1724097256898"
"546","j","SpeechGestureMatch","../RequiredFiles/videos/NeinDaumenhoch_m.mp4","Ist der Ball in der blauen Box?","Blue","Green","J","negation","mismatch","speech","no","ThumbUp","male","gesture-speech","1422","800","edge-chromium","60.27","Windows 10","22","male","right","Mon Aug 19 2024 21:50:54 GMT+0200 (Mitteleuropäische Sommerzeit)","4","33","0","1724097256898"
"686","f","SpeechGestureMatch","../RequiredFiles/videos/JaDaumenrunter_f.mp4","Ist der Ball in der blauen Box?","Blue","Green","F","affirmation","mismatch","speech","yes","ThumbDown","female","gesture-speech","1422","800","edge-chromium","60.27","Windows 10","22","male","right","Mon Aug 19 2024 21:51:00 GMT+0200 (Mitteleuropäische Sommerzeit)","4","34","0","1724097256898"
"621","j","SpeechGestureMatch","../RequiredFiles/videos/NeinDaumenrunter_f.mp4","Ist der Ball in der blauen Box?","Blue","Green","J","negation","match","speech","no","ThumbDown","female","gesture-speech","1422","800","edge-chromium","60.27","Windows 10","22","male","right","Mon Aug 19 2024 21:51:06 GMT+0200 (Mitteleuropäische Sommerzeit)","4","35","0","1724097256898"
"637","f","SpeechGestureMatch","../RequiredFiles/videos/JaDaumenhoch_m.mp4","Ist der Ball in der grünen Box?","Green","Blue","F","affirmation","match","speech","yes","ThumbUp","male","gesture-speech","1422","800","edge-chromium","60.27","Windows 10","22","male","right","Mon Aug 19 2024 21:51:12 GMT+0200 (Mitteleuropäische Sommerzeit)","4","36","0","1724097256898"
"646","f","SpeechGestureMatch","../RequiredFiles/videos/NeinDaumenhoch_m.mp4","Ist der Ball in der blauen Box?","Green","Blue","F","negation","mismatch","speech","no","ThumbUp","male","gesture-speech","1422","800","edge-chromium","60.27","Windows 10","22","male","right","Mon Aug 19 2024 21:51:18 GMT+0200 (Mitteleuropäische Sommerzeit)","4","37","0","1724097256898"
"635","j","SpeechGestureMatch","../RequiredFiles/videos/NeinDaumenrunter_m.mp4","Ist der Ball in der blauen Box?","Blue","Green","J","negation","match","speech","no","ThumbDown","male","gesture-speech","1422","800","edge-chromium","60.27","Windows 10","22","male","right","Mon Aug 19 2024 21:51:25 GMT+0200 (Mitteleuropäische Sommerzeit)","4","38","0","1724097256898"
"677","f","SpeechGestureMatch","../RequiredFiles/videos/NeinDaumenhoch_m.mp4","Ist der Ball in der blauen Box?","Green","Blue","F","negation","mismatch","speech","no","ThumbUp","male","gesture-speech","1422","800","edge-chromium","60.27","Windows 10","22","male","right","Mon Aug 19 2024 21:51:31 GMT+0200 (Mitteleuropäische Sommerzeit)","4","39","0","1724097256898"
"607","j","SpeechGestureMatch","../RequiredFiles/videos/NeinDaumenhoch_f.mp4","Ist der Ball in der blauen Box?","Blue","Green","J","negation","mismatch","speech","no","ThumbUp","female","gesture-speech","1422","800","edge-chromium","60.27","Windows 10","22","male","right","Mon Aug 19 2024 21:51:37 GMT+0200 (Mitteleuropäische Sommerzeit)","4","40","0","1724097256898"
"662","f","SpeechGestureMatch","../RequiredFiles/videos/JaDaumenrunter_f.mp4","Ist der Ball in der grünen Box?","Blue","Green","J","affirmation","mismatch","speech","yes","ThumbDown","female","gesture-speech","1422","800","edge-chromium","60.27","Windows 10","22","male","right","Mon Aug 19 2024 21:51:43 GMT+0200 (Mitteleuropäische Sommerzeit)","4","41","1","1724097256898"
"624","f","SpeechGestureMatch","../RequiredFiles/videos/JaDaumenhoch_m.mp4","Ist der Ball in der grünen Box?","Green","Blue","F","affirmation","match","speech","yes","ThumbUp","male","gesture-speech","1422","800","edge-chromium","60.27","Windows 10","22","male","right","Mon Aug 19 2024 21:51:49 GMT+0200 (Mitteleuropäische Sommerzeit)","4","42","0","1724097256898"
"753","j","SpeechGestureMatch","../RequiredFiles/videos/JaDaumenrunter_f.mp4","Ist der Ball in der blauen Box?","Green","Blue","J","affirmation","mismatch","speech","yes","ThumbDown","female","gesture-speech","1422","800","edge-chromium","60.27","Windows 10","22","male","right","Mon Aug 19 2024 21:51:56 GMT+0200 (Mitteleuropäische Sommerzeit)","4","43","0","1724097256898"
"643","j","SpeechGestureMatch","../RequiredFiles/videos/JaDaumenhoch_m.mp4","Ist der Ball in der grünen Box?","Blue","Green","J","affirmation","match","speech","yes","ThumbUp","male","gesture-speech","1422","800","edge-chromium","60.27","Windows 10","22","male","right","Mon Aug 19 2024 21:52:02 GMT+0200 (Mitteleuropäische Sommerzeit)","4","44","0","1724097256898"
"681","j","SpeechGestureMatch","../RequiredFiles/videos/JaDaumenhoch_m.mp4","Ist der Ball in der blauen Box?","Green","Blue","J","affirmation","match","speech","yes","ThumbUp","male","gesture-speech","1422","800","edge-chromium","60.27","Windows 10","22","male","right","Mon Aug 19 2024 21:52:08 GMT+0200 (Mitteleuropäische Sommerzeit)","4","45","0","1724097256898"
"600","f","SpeechGestureMatch","../RequiredFiles/videos/NeinDaumenhoch_f.mp4","Ist der Ball in der blauen Box?","Green","Blue","F","negation","mismatch","speech","no","ThumbUp","female","gesture-speech","1422","800","edge-chromium","60.27","Windows 10","22","male","right","Mon Aug 19 2024 21:52:14 GMT+0200 (Mitteleuropäische Sommerzeit)","4","46","0","1724097256898"
"643","f","SpeechGestureMatch","../RequiredFiles/videos/NeinDaumenrunter_m.mp4","Ist der Ball in der grünen Box?","Blue","Green","F","negation","match","speech","no","ThumbDown","male","gesture-speech","1422","800","edge-chromium","60.27","Windows 10","22","male","right","Mon Aug 19 2024 21:52:20 GMT+0200 (Mitteleuropäische Sommerzeit)","4","47","0","1724097256898"
"609","f","SpeechGestureMatch","../RequiredFiles/videos/JaDaumenhoch_f.mp4","Ist der Ball in der grünen Box?","Green","Blue","F","affirmation","match","speech","yes","ThumbUp","female","gesture-speech","1422","800","edge-chromium","60.27","Windows 10","22","male","right","Mon Aug 19 2024 21:52:27 GMT+0200 (Mitteleuropäische Sommerzeit)","4","48","0","1724097256898"
"602","j","SpeechGestureMatch","../RequiredFiles/videos/JaDaumenrunter_m.mp4","Ist der Ball in der blauen Box?","Green","Blue","J","affirmation","mismatch","speech","yes","ThumbDown","male","gesture-speech","1422","800","edge-chromium","60.27","Windows 10","22","male","right","Mon Aug 19 2024 21:52:33 GMT+0200 (Mitteleuropäische Sommerzeit)","4","49","0","1724097256898"
"593","f","SpeechGestureMatch","../RequiredFiles/videos/JaDaumenrunter_m.mp4","Ist der Ball in der blauen Box?","Blue","Green","F","affirmation","mismatch","speech","yes","ThumbDown","male","gesture-speech","1422","800","edge-chromium","60.27","Windows 10","22","male","right","Mon Aug 19 2024 21:52:39 GMT+0200 (Mitteleuropäische Sommerzeit)","4","50","0","1724097256898"
"638","f","SpeechGestureMatch","../RequiredFiles/videos/JaDaumenhoch_f.mp4","Ist der Ball in der grünen Box?","Green","Blue","F","affirmation","match","speech","yes","ThumbUp","female","gesture-speech","1422","800","edge-chromium","60.27","Windows 10","22","male","right","Mon Aug 19 2024 21:52:45 GMT+0200 (Mitteleuropäische Sommerzeit)","4","51","0","1724097256898"
"655","j","SpeechGestureMatch","../RequiredFiles/videos/NeinDaumenrunter_m.mp4","Ist der Ball in der grünen Box?","Green","Blue","J","negation","match","speech","no","ThumbDown","male","gesture-speech","1422","800","edge-chromium","60.27","Windows 10","22","male","right","Mon Aug 19 2024 21:52:51 GMT+0200 (Mitteleuropäische Sommerzeit)","4","52","0","1724097256898"
"606","f","SpeechGestureMatch","../RequiredFiles/videos/NeinDaumenrunter_m.mp4","Ist der Ball in der blauen Box?","Green","Blue","F","negation","match","speech","no","ThumbDown","male","gesture-speech","1422","800","edge-chromium","60.27","Windows 10","22","male","right","Mon Aug 19 2024 21:52:57 GMT+0200 (Mitteleuropäische Sommerzeit)","4","53","0","1724097256898"
"610","j","SpeechGestureMatch","../RequiredFiles/videos/NeinDaumenrunter_f.mp4","Ist der Ball in der grünen Box?","Green","Blue","J","negation","match","speech","no","ThumbDown","female","gesture-speech","1422","800","edge-chromium","60.27","Windows 10","22","male","right","Mon Aug 19 2024 21:53:04 GMT+0200 (Mitteleuropäische Sommerzeit)","4","54","0","1724097256898"
"642","f","SpeechGestureMatch","../RequiredFiles/videos/NeinDaumenhoch_m.mp4","Ist der Ball in der grünen Box?","Blue","Green","F","negation","mismatch","speech","no","ThumbUp","male","gesture-speech","1422","800","edge-chromium","60.27","Windows 10","22","male","right","Mon Aug 19 2024 21:53:10 GMT+0200 (Mitteleuropäische Sommerzeit)","4","55","0","1724097256898"
"683","j","SpeechGestureMatch","../RequiredFiles/videos/JaDaumenrunter_m.mp4","Ist der Ball in der grünen Box?","Blue","Green","J","affirmation","mismatch","speech","yes","ThumbDown","male","gesture-speech","1422","800","edge-chromium","60.27","Windows 10","22","male","right","Mon Aug 19 2024 21:53:16 GMT+0200 (Mitteleuropäische Sommerzeit)","4","56","0","1724097256898"
"684","f","SpeechGestureMatch","../RequiredFiles/videos/JaDaumenrunter_f.mp4","Ist der Ball in der grünen Box?","Green","Blue","F","affirmation","mismatch","speech","yes","ThumbDown","female","gesture-speech","1422","800","edge-chromium","60.27","Windows 10","22","male","right","Mon Aug 19 2024 21:53:22 GMT+0200 (Mitteleuropäische Sommerzeit)","4","57","0","1724097256898"
"597","j","SpeechGestureMatch","../RequiredFiles/videos/NeinDaumenhoch_m.mp4","Ist der Ball in der grünen Box?","Green","Blue","J","negation","mismatch","speech","no","ThumbUp","male","gesture-speech","1422","800","edge-chromium","60.27","Windows 10","22","male","right","Mon Aug 19 2024 21:53:28 GMT+0200 (Mitteleuropäische Sommerzeit)","4","58","0","1724097256898"
"605","j","SpeechGestureMatch","../RequiredFiles/videos/NeinDaumenhoch_f.mp4","Ist der Ball in der grünen Box?","Green","Blue","J","negation","mismatch","speech","no","ThumbUp","female","gesture-speech","1422","800","edge-chromium","60.27","Windows 10","22","male","right","Mon Aug 19 2024 21:53:34 GMT+0200 (Mitteleuropäische Sommerzeit)","4","59","0","1724097256898"
"671","j","SpeechGestureMatch","../RequiredFiles/videos/JaDaumenrunter_f.mp4","Ist der Ball in der grünen Box?","Blue","Green","J","affirmation","mismatch","speech","yes","ThumbDown","female","gesture-speech","1422","800","edge-chromium","60.27","Windows 10","22","male","right","Mon Aug 19 2024 21:53:41 GMT+0200 (Mitteleuropäische Sommerzeit)","4","60","0","1724097256898"
"622","j","SpeechGestureMatch","../RequiredFiles/videos/NeinDaumenhoch_m.mp4","Ist der Ball in der grünen Box?","Green","Blue","J","negation","mismatch","speech","no","ThumbUp","male","gesture-speech","1422","800","edge-chromium","60.27","Windows 10","22","male","right","Mon Aug 19 2024 21:53:47 GMT+0200 (Mitteleuropäische Sommerzeit)","4","61","0","1724097256898"
"670","f","SpeechGestureMatch","../RequiredFiles/videos/NeinDaumenhoch_f.mp4","Ist der Ball in der blauen Box?","Green","Blue","F","negation","mismatch","speech","no","ThumbUp","female","gesture-speech","1422","800","edge-chromium","60.27","Windows 10","22","male","right","Mon Aug 19 2024 21:53:53 GMT+0200 (Mitteleuropäische Sommerzeit)","4","62","0","1724097256898"
"557","f","SpeechGestureMatch","../RequiredFiles/videos/JaDaumenhoch_m.mp4","Ist der Ball in der blauen Box?","Blue","Green","F","affirmation","match","speech","yes","ThumbUp","male","gesture-speech","1422","800","edge-chromium","60.27","Windows 10","22","male","right","Mon Aug 19 2024 21:53:59 GMT+0200 (Mitteleuropäische Sommerzeit)","4","63","0","1724097256898"
"668","f","SpeechGestureMatch","../RequiredFiles/videos/JaDaumenrunter_m.mp4","Ist der Ball in der blauen Box?","Blue","Green","F","affirmation","mismatch","speech","yes","ThumbDown","male","gesture-speech","1422","800","edge-chromium","60.27","Windows 10","22","male","right","Mon Aug 19 2024 21:54:05 GMT+0200 (Mitteleuropäische Sommerzeit)","4","64","0","1724097256898"
