"rt","response","stim","video","question","box_colour_left","box_colour_right","correct_key","polarity","matching","modality","verbal","gesture","speaker","order","width","height","browser","vsync_rate","os","age","gender","handedness","date","blockNum","trialNum","error","vpNum"
"3260","f","SpeechGestureMatch","../RequiredFiles/videos/JaDaumenrunter_m.mp4","Ist der Ball in der grünen Box?","Blue","Green","F","negation","mismatch","gesture","yes","ThumbDown","male","gesture-speech","1440","900","firefox","60.79","Mac OS","21","male","right","Mon Aug 19 2024 15:13:00 GMT+0200 (Mitteleuropäische Sommerzeit)","1","1","0","1724076246348"
"2866","j","SpeechGestureMatch","../RequiredFiles/videos/NeinDaumenhoch_m.mp4","Ist der Ball in der blauen Box?","Green","Blue","J","affirmation","mismatch","gesture","no","ThumbUp","male","gesture-speech","1440","900","firefox","60.79","Mac OS","21","male","right","Mon Aug 19 2024 15:13:08 GMT+0200 (Mitteleuropäische Sommerzeit)","1","2","0","1724076246348"
"2658","f","SpeechGestureMatch","../RequiredFiles/videos/JaDaumenhoch_m.mp4","Ist der Ball in der grünen Box?","Green","Blue","F","affirmation","match","gesture","yes","ThumbUp","male","gesture-speech","1440","900","firefox","60.79","Mac OS","21","male","right","Mon Aug 19 2024 15:13:17 GMT+0200 (Mitteleuropäische Sommerzeit)","1","3","0","1724076246348"
"2330","j","SpeechGestureMatch","../RequiredFiles/videos/JaDaumenrunter_f.mp4","Ist der Ball in der grünen Box?","Green","Blue","J","negation","mismatch","gesture","yes","ThumbDown","female","gesture-speech","1440","900","firefox","60.79","Mac OS","21","male","right","Mon Aug 19 2024 15:13:24 GMT+0200 (Mitteleuropäische Sommerzeit)","1","4","0","1724076246348"
"1689","j","SpeechGestureMatch","../RequiredFiles/videos/JaDaumenhoch_m.mp4","Ist der Ball in der grünen Box?","Blue","Green","J","affirmation","match","gesture","yes","ThumbUp","male","gesture-speech","1440","900","firefox","60.79","Mac OS","21","male","right","Mon Aug 19 2024 15:13:32 GMT+0200 (Mitteleuropäische Sommerzeit)","1","5","0","1724076246348"
"1754","j","SpeechGestureMatch","../RequiredFiles/videos/JaDaumenhoch_f.mp4","Ist der Ball in der blauen Box?","Green","Blue","J","affirmation","match","gesture","yes","ThumbUp","female","gesture-speech","1440","900","firefox","60.79","Mac OS","21","male","right","Mon Aug 19 2024 15:13:39 GMT+0200 (Mitteleuropäische Sommerzeit)","1","6","0","1724076246348"
"2379","f","SpeechGestureMatch","../RequiredFiles/videos/NeinDaumenhoch_f.mp4","Ist der Ball in der blauen Box?","Blue","Green","F","affirmation","mismatch","gesture","no","ThumbUp","female","gesture-speech","1440","900","firefox","60.79","Mac OS","21","male","right","Mon Aug 19 2024 15:13:47 GMT+0200 (Mitteleuropäische Sommerzeit)","1","7","0","1724076246348"
"1748","j","SpeechGestureMatch","../RequiredFiles/videos/NeinDaumenhoch_f.mp4","Ist der Ball in der grünen Box?","Blue","Green","J","affirmation","mismatch","gesture","no","ThumbUp","female","gesture-speech","1440","900","firefox","60.79","Mac OS","21","male","right","Mon Aug 19 2024 15:13:54 GMT+0200 (Mitteleuropäische Sommerzeit)","1","8","0","1724076246348"
"1925","f","SpeechGestureMatch","../RequiredFiles/videos/JaDaumenrunter_f.mp4","Ist der Ball in der grünen Box?","Green","Blue","J","negation","mismatch","gesture","yes","ThumbDown","female","gesture-speech","1440","900","firefox","60.79","Mac OS","21","male","right","Mon Aug 19 2024 15:14:02 GMT+0200 (Mitteleuropäische Sommerzeit)","1","9","1","1724076246348"
"1609","f","SpeechGestureMatch","../RequiredFiles/videos/JaDaumenhoch_f.mp4","Ist der Ball in der blauen Box?","Blue","Green","F","affirmation","match","gesture","yes","ThumbUp","female","gesture-speech","1440","900","firefox","60.79","Mac OS","21","male","right","Mon Aug 19 2024 15:14:09 GMT+0200 (Mitteleuropäische Sommerzeit)","1","10","0","1724076246348"
"1750","j","SpeechGestureMatch","../RequiredFiles/videos/JaDaumenrunter_m.mp4","Ist der Ball in der blauen Box?","Blue","Green","J","negation","mismatch","gesture","yes","ThumbDown","male","gesture-speech","1440","900","firefox","60.79","Mac OS","21","male","right","Mon Aug 19 2024 15:14:16 GMT+0200 (Mitteleuropäische Sommerzeit)","1","11","0","1724076246348"
"1963","j","SpeechGestureMatch","../RequiredFiles/videos/NeinDaumenrunter_f.mp4","Ist der Ball in der blauen Box?","Blue","Green","J","negation","match","gesture","no","ThumbDown","female","gesture-speech","1440","900","firefox","60.79","Mac OS","21","male","right","Mon Aug 19 2024 15:14:24 GMT+0200 (Mitteleuropäische Sommerzeit)","1","12","0","1724076246348"
"2049","j","SpeechGestureMatch","../RequiredFiles/videos/JaDaumenrunter_m.mp4","Ist der Ball in der grünen Box?","Blue","Green","F","negation","mismatch","gesture","yes","ThumbDown","male","gesture-speech","1440","900","firefox","60.79","Mac OS","21","male","right","Mon Aug 19 2024 15:14:31 GMT+0200 (Mitteleuropäische Sommerzeit)","1","13","1","1724076246348"
"2765","f","SpeechGestureMatch","../RequiredFiles/videos/JaDaumenhoch_f.mp4","Ist der Ball in der grünen Box?","Green","Blue","F","affirmation","match","gesture","yes","ThumbUp","female","gesture-speech","1440","900","firefox","60.79","Mac OS","21","male","right","Mon Aug 19 2024 15:14:40 GMT+0200 (Mitteleuropäische Sommerzeit)","1","14","0","1724076246348"
"1866","f","SpeechGestureMatch","../RequiredFiles/videos/NeinDaumenhoch_f.mp4","Ist der Ball in der grünen Box?","Green","Blue","F","affirmation","mismatch","gesture","no","ThumbUp","female","gesture-speech","1440","900","firefox","60.79","Mac OS","21","male","right","Mon Aug 19 2024 15:14:47 GMT+0200 (Mitteleuropäische Sommerzeit)","1","15","0","1724076246348"
"2257","j","SpeechGestureMatch","../RequiredFiles/videos/JaDaumenhoch_m.mp4","Ist der Ball in der grünen Box?","Blue","Green","J","affirmation","match","gesture","yes","ThumbUp","male","gesture-speech","1440","900","firefox","60.79","Mac OS","21","male","right","Mon Aug 19 2024 15:14:55 GMT+0200 (Mitteleuropäische Sommerzeit)","1","16","0","1724076246348"
"1522","f","SpeechGestureMatch","../RequiredFiles/videos/JaDaumenhoch_m.mp4","Ist der Ball in der blauen Box?","Blue","Green","F","affirmation","match","gesture","yes","ThumbUp","male","gesture-speech","1440","900","firefox","60.79","Mac OS","21","male","right","Mon Aug 19 2024 15:15:02 GMT+0200 (Mitteleuropäische Sommerzeit)","1","17","0","1724076246348"
"1887","f","SpeechGestureMatch","../RequiredFiles/videos/JaDaumenrunter_f.mp4","Ist der Ball in der grünen Box?","Blue","Green","F","negation","mismatch","gesture","yes","ThumbDown","female","gesture-speech","1440","900","firefox","60.79","Mac OS","21","male","right","Mon Aug 19 2024 15:15:09 GMT+0200 (Mitteleuropäische Sommerzeit)","1","18","0","1724076246348"
"2034","j","SpeechGestureMatch","../RequiredFiles/videos/JaDaumenrunter_m.mp4","Ist der Ball in der grünen Box?","Green","Blue","J","negation","mismatch","gesture","yes","ThumbDown","male","gesture-speech","1440","900","firefox","60.79","Mac OS","21","male","right","Mon Aug 19 2024 15:15:17 GMT+0200 (Mitteleuropäische Sommerzeit)","1","19","0","1724076246348"
"1610","j","SpeechGestureMatch","../RequiredFiles/videos/JaDaumenhoch_f.mp4","Ist der Ball in der grünen Box?","Blue","Green","J","affirmation","match","gesture","yes","ThumbUp","female","gesture-speech","1440","900","firefox","60.79","Mac OS","21","male","right","Mon Aug 19 2024 15:15:24 GMT+0200 (Mitteleuropäische Sommerzeit)","1","20","0","1724076246348"
"1507","j","SpeechGestureMatch","../RequiredFiles/videos/JaDaumenhoch_m.mp4","Ist der Ball in der blauen Box?","Green","Blue","J","affirmation","match","gesture","yes","ThumbUp","male","gesture-speech","1440","900","firefox","60.79","Mac OS","21","male","right","Mon Aug 19 2024 15:15:31 GMT+0200 (Mitteleuropäische Sommerzeit)","1","21","0","1724076246348"
"1604","j","SpeechGestureMatch","../RequiredFiles/videos/NeinDaumenrunter_m.mp4","Ist der Ball in der grünen Box?","Green","Blue","J","negation","match","gesture","no","ThumbDown","male","gesture-speech","1440","900","firefox","60.79","Mac OS","21","male","right","Mon Aug 19 2024 15:15:38 GMT+0200 (Mitteleuropäische Sommerzeit)","1","22","0","1724076246348"
"2503","j","SpeechGestureMatch","../RequiredFiles/videos/NeinDaumenrunter_f.mp4","Ist der Ball in der grünen Box?","Green","Blue","J","negation","match","gesture","no","ThumbDown","female","gesture-speech","1440","900","firefox","60.79","Mac OS","21","male","right","Mon Aug 19 2024 15:15:46 GMT+0200 (Mitteleuropäische Sommerzeit)","1","23","0","1724076246348"
"3745","j","SpeechGestureMatch","../RequiredFiles/videos/JaDaumenrunter_f.mp4","Ist der Ball in der blauen Box?","Blue","Green","J","negation","mismatch","gesture","yes","ThumbDown","female","gesture-speech","1440","900","firefox","60.79","Mac OS","21","male","right","Mon Aug 19 2024 15:15:56 GMT+0200 (Mitteleuropäische Sommerzeit)","1","24","0","1724076246348"
"1700","f","SpeechGestureMatch","../RequiredFiles/videos/JaDaumenhoch_f.mp4","Ist der Ball in der blauen Box?","Blue","Green","F","affirmation","match","gesture","yes","ThumbUp","female","gesture-speech","1440","900","firefox","60.79","Mac OS","21","male","right","Mon Aug 19 2024 15:16:03 GMT+0200 (Mitteleuropäische Sommerzeit)","1","25","0","1724076246348"
"1791","f","SpeechGestureMatch","../RequiredFiles/videos/NeinDaumenhoch_m.mp4","Ist der Ball in der blauen Box?","Blue","Green","F","affirmation","mismatch","gesture","no","ThumbUp","male","gesture-speech","1440","900","firefox","60.79","Mac OS","21","male","right","Mon Aug 19 2024 15:16:10 GMT+0200 (Mitteleuropäische Sommerzeit)","1","26","0","1724076246348"
"1827","j","SpeechGestureMatch","../RequiredFiles/videos/NeinDaumenhoch_f.mp4","Ist der Ball in der blauen Box?","Green","Blue","J","affirmation","mismatch","gesture","no","ThumbUp","female","gesture-speech","1440","900","firefox","60.79","Mac OS","21","male","right","Mon Aug 19 2024 15:16:17 GMT+0200 (Mitteleuropäische Sommerzeit)","1","27","0","1724076246348"
"2101","j","SpeechGestureMatch","../RequiredFiles/videos/NeinDaumenrunter_m.mp4","Ist der Ball in der blauen Box?","Blue","Green","J","negation","match","gesture","no","ThumbDown","male","gesture-speech","1440","900","firefox","60.79","Mac OS","21","male","right","Mon Aug 19 2024 15:16:25 GMT+0200 (Mitteleuropäische Sommerzeit)","1","28","0","1724076246348"
"1787","j","SpeechGestureMatch","../RequiredFiles/videos/JaDaumenrunter_m.mp4","Ist der Ball in der blauen Box?","Blue","Green","J","negation","mismatch","gesture","yes","ThumbDown","male","gesture-speech","1440","900","firefox","60.79","Mac OS","21","male","right","Mon Aug 19 2024 15:16:32 GMT+0200 (Mitteleuropäische Sommerzeit)","1","29","0","1724076246348"
"1759","f","SpeechGestureMatch","../RequiredFiles/videos/JaDaumenhoch_m.mp4","Ist der Ball in der grünen Box?","Green","Blue","F","affirmation","match","gesture","yes","ThumbUp","male","gesture-speech","1440","900","firefox","60.79","Mac OS","21","male","right","Mon Aug 19 2024 15:16:40 GMT+0200 (Mitteleuropäische Sommerzeit)","1","30","0","1724076246348"
"7248","f","SpeechGestureMatch","../RequiredFiles/videos/NeinDaumenhoch_m.mp4","Ist der Ball in der grünen Box?","Blue","Green","J","affirmation","mismatch","gesture","no","ThumbUp","male","gesture-speech","1440","900","firefox","60.79","Mac OS","21","male","right","Mon Aug 19 2024 15:16:52 GMT+0200 (Mitteleuropäische Sommerzeit)","1","31","1","1724076246348"
"2061","j","SpeechGestureMatch","../RequiredFiles/videos/NeinDaumenhoch_m.mp4","Ist der Ball in der grünen Box?","Blue","Green","J","affirmation","mismatch","gesture","no","ThumbUp","male","gesture-speech","1440","900","firefox","60.79","Mac OS","21","male","right","Mon Aug 19 2024 15:17:00 GMT+0200 (Mitteleuropäische Sommerzeit)","1","32","0","1724076246348"
"2032","j","SpeechGestureMatch","../RequiredFiles/videos/JaDaumenhoch_f.mp4","Ist der Ball in der grünen Box?","Blue","Green","J","affirmation","match","gesture","yes","ThumbUp","female","gesture-speech","1440","900","firefox","60.79","Mac OS","21","male","right","Mon Aug 19 2024 15:17:08 GMT+0200 (Mitteleuropäische Sommerzeit)","1","33","0","1724076246348"
"1673","f","SpeechGestureMatch","../RequiredFiles/videos/NeinDaumenrunter_m.mp4","Ist der Ball in der grünen Box?","Blue","Green","F","negation","match","gesture","no","ThumbDown","male","gesture-speech","1440","900","firefox","60.79","Mac OS","21","male","right","Mon Aug 19 2024 15:17:15 GMT+0200 (Mitteleuropäische Sommerzeit)","1","34","0","1724076246348"
"2084","f","SpeechGestureMatch","../RequiredFiles/videos/NeinDaumenrunter_m.mp4","Ist der Ball in der blauen Box?","Green","Blue","F","negation","match","gesture","no","ThumbDown","male","gesture-speech","1440","900","firefox","60.79","Mac OS","21","male","right","Mon Aug 19 2024 15:17:23 GMT+0200 (Mitteleuropäische Sommerzeit)","1","35","0","1724076246348"
"2657","f","SpeechGestureMatch","../RequiredFiles/videos/NeinDaumenhoch_f.mp4","Ist der Ball in der grünen Box?","Green","Blue","F","affirmation","mismatch","gesture","no","ThumbUp","female","gesture-speech","1440","900","firefox","60.79","Mac OS","21","male","right","Mon Aug 19 2024 15:17:31 GMT+0200 (Mitteleuropäische Sommerzeit)","1","36","0","1724076246348"
"4655","j","SpeechGestureMatch","../RequiredFiles/videos/JaDaumenrunter_m.mp4","Ist der Ball in der blauen Box?","Green","Blue","F","negation","mismatch","gesture","yes","ThumbDown","male","gesture-speech","1440","900","firefox","60.79","Mac OS","21","male","right","Mon Aug 19 2024 15:17:41 GMT+0200 (Mitteleuropäische Sommerzeit)","1","37","1","1724076246348"
"1648","f","SpeechGestureMatch","../RequiredFiles/videos/NeinDaumenrunter_f.mp4","Ist der Ball in der grünen Box?","Blue","Green","F","negation","match","gesture","no","ThumbDown","female","gesture-speech","1440","900","firefox","60.79","Mac OS","21","male","right","Mon Aug 19 2024 15:17:48 GMT+0200 (Mitteleuropäische Sommerzeit)","1","38","0","1724076246348"
"2046","f","SpeechGestureMatch","../RequiredFiles/videos/JaDaumenhoch_m.mp4","Ist der Ball in der blauen Box?","Green","Blue","J","affirmation","match","gesture","yes","ThumbUp","male","gesture-speech","1440","900","firefox","60.79","Mac OS","21","male","right","Mon Aug 19 2024 15:17:56 GMT+0200 (Mitteleuropäische Sommerzeit)","1","39","1","1724076246348"
"1462","j","SpeechGestureMatch","../RequiredFiles/videos/JaDaumenhoch_f.mp4","Ist der Ball in der grünen Box?","Green","Blue","F","affirmation","match","gesture","yes","ThumbUp","female","gesture-speech","1440","900","firefox","60.79","Mac OS","21","male","right","Mon Aug 19 2024 15:18:03 GMT+0200 (Mitteleuropäische Sommerzeit)","1","40","1","1724076246348"
"1541","j","SpeechGestureMatch","../RequiredFiles/videos/JaDaumenhoch_m.mp4","Ist der Ball in der blauen Box?","Blue","Green","F","affirmation","match","gesture","yes","ThumbUp","male","gesture-speech","1440","900","firefox","60.79","Mac OS","21","male","right","Mon Aug 19 2024 15:18:10 GMT+0200 (Mitteleuropäische Sommerzeit)","1","41","1","1724076246348"
"1416","f","SpeechGestureMatch","../RequiredFiles/videos/NeinDaumenrunter_m.mp4","Ist der Ball in der grünen Box?","Green","Blue","J","negation","match","gesture","no","ThumbDown","male","gesture-speech","1440","900","firefox","60.79","Mac OS","21","male","right","Mon Aug 19 2024 15:18:17 GMT+0200 (Mitteleuropäische Sommerzeit)","1","42","1","1724076246348"
"1714","j","SpeechGestureMatch","../RequiredFiles/videos/JaDaumenrunter_f.mp4","Ist der Ball in der blauen Box?","Blue","Green","J","negation","mismatch","gesture","yes","ThumbDown","female","gesture-speech","1440","900","firefox","60.79","Mac OS","21","male","right","Mon Aug 19 2024 15:18:24 GMT+0200 (Mitteleuropäische Sommerzeit)","1","43","0","1724076246348"
"2107","j","SpeechGestureMatch","../RequiredFiles/videos/NeinDaumenhoch_f.mp4","Ist der Ball in der grünen Box?","Blue","Green","J","affirmation","mismatch","gesture","no","ThumbUp","female","gesture-speech","1440","900","firefox","60.79","Mac OS","21","male","right","Mon Aug 19 2024 15:18:32 GMT+0200 (Mitteleuropäische Sommerzeit)","1","44","0","1724076246348"
"1561","f","SpeechGestureMatch","../RequiredFiles/videos/NeinDaumenrunter_m.mp4","Ist der Ball in der blauen Box?","Green","Blue","F","negation","match","gesture","no","ThumbDown","male","gesture-speech","1440","900","firefox","60.79","Mac OS","21","male","right","Mon Aug 19 2024 15:18:39 GMT+0200 (Mitteleuropäische Sommerzeit)","1","45","0","1724076246348"
"1684","j","SpeechGestureMatch","../RequiredFiles/videos/NeinDaumenhoch_m.mp4","Ist der Ball in der blauen Box?","Green","Blue","J","affirmation","mismatch","gesture","no","ThumbUp","male","gesture-speech","1440","900","firefox","60.79","Mac OS","21","male","right","Mon Aug 19 2024 15:18:46 GMT+0200 (Mitteleuropäische Sommerzeit)","1","46","0","1724076246348"
"1837","f","SpeechGestureMatch","../RequiredFiles/videos/NeinDaumenrunter_f.mp4","Ist der Ball in der blauen Box?","Green","Blue","F","negation","match","gesture","no","ThumbDown","female","gesture-speech","1440","900","firefox","60.79","Mac OS","21","male","right","Mon Aug 19 2024 15:18:53 GMT+0200 (Mitteleuropäische Sommerzeit)","1","47","0","1724076246348"
"1599","f","SpeechGestureMatch","../RequiredFiles/videos/NeinDaumenrunter_m.mp4","Ist der Ball in der grünen Box?","Blue","Green","F","negation","match","gesture","no","ThumbDown","male","gesture-speech","1440","900","firefox","60.79","Mac OS","21","male","right","Mon Aug 19 2024 15:19:00 GMT+0200 (Mitteleuropäische Sommerzeit)","1","48","0","1724076246348"
"2337","f","SpeechGestureMatch","../RequiredFiles/videos/JaDaumenrunter_f.mp4","Ist der Ball in der blauen Box?","Green","Blue","F","negation","mismatch","gesture","yes","ThumbDown","female","gesture-speech","1440","900","firefox","60.79","Mac OS","21","male","right","Mon Aug 19 2024 15:19:08 GMT+0200 (Mitteleuropäische Sommerzeit)","1","49","0","1724076246348"
"1931","f","SpeechGestureMatch","../RequiredFiles/videos/NeinDaumenrunter_f.mp4","Ist der Ball in der blauen Box?","Green","Blue","F","negation","match","gesture","no","ThumbDown","female","gesture-speech","1440","900","firefox","60.79","Mac OS","21","male","right","Mon Aug 19 2024 15:19:16 GMT+0200 (Mitteleuropäische Sommerzeit)","1","50","0","1724076246348"
"1255","f","SpeechGestureMatch","../RequiredFiles/videos/NeinDaumenhoch_f.mp4","Ist der Ball in der blauen Box?","Blue","Green","F","affirmation","mismatch","gesture","no","ThumbUp","female","gesture-speech","1440","900","firefox","60.79","Mac OS","21","male","right","Mon Aug 19 2024 15:19:23 GMT+0200 (Mitteleuropäische Sommerzeit)","1","51","0","1724076246348"
"2029","j","SpeechGestureMatch","../RequiredFiles/videos/NeinDaumenrunter_f.mp4","Ist der Ball in der grünen Box?","Green","Blue","J","negation","match","gesture","no","ThumbDown","female","gesture-speech","1440","900","firefox","60.79","Mac OS","21","male","right","Mon Aug 19 2024 15:19:30 GMT+0200 (Mitteleuropäische Sommerzeit)","1","52","0","1724076246348"
"2402","f","SpeechGestureMatch","../RequiredFiles/videos/NeinDaumenrunter_f.mp4","Ist der Ball in der grünen Box?","Blue","Green","F","negation","match","gesture","no","ThumbDown","female","gesture-speech","1440","900","firefox","60.79","Mac OS","21","male","right","Mon Aug 19 2024 15:19:38 GMT+0200 (Mitteleuropäische Sommerzeit)","1","53","0","1724076246348"
"2042","j","SpeechGestureMatch","../RequiredFiles/videos/NeinDaumenrunter_f.mp4","Ist der Ball in der blauen Box?","Blue","Green","J","negation","match","gesture","no","ThumbDown","female","gesture-speech","1440","900","firefox","60.79","Mac OS","21","male","right","Mon Aug 19 2024 15:19:46 GMT+0200 (Mitteleuropäische Sommerzeit)","1","54","0","1724076246348"
"2558","j","SpeechGestureMatch","../RequiredFiles/videos/NeinDaumenhoch_f.mp4","Ist der Ball in der blauen Box?","Green","Blue","J","affirmation","mismatch","gesture","no","ThumbUp","female","gesture-speech","1440","900","firefox","60.79","Mac OS","21","male","right","Mon Aug 19 2024 15:19:54 GMT+0200 (Mitteleuropäische Sommerzeit)","1","55","0","1724076246348"
"2322","j","SpeechGestureMatch","../RequiredFiles/videos/NeinDaumenrunter_m.mp4","Ist der Ball in der blauen Box?","Blue","Green","J","negation","match","gesture","no","ThumbDown","male","gesture-speech","1440","900","firefox","60.79","Mac OS","21","male","right","Mon Aug 19 2024 15:20:02 GMT+0200 (Mitteleuropäische Sommerzeit)","1","56","0","1724076246348"
"2178","j","SpeechGestureMatch","../RequiredFiles/videos/JaDaumenrunter_m.mp4","Ist der Ball in der grünen Box?","Green","Blue","J","negation","mismatch","gesture","yes","ThumbDown","male","gesture-speech","1440","900","firefox","60.79","Mac OS","21","male","right","Mon Aug 19 2024 15:20:09 GMT+0200 (Mitteleuropäische Sommerzeit)","1","57","0","1724076246348"
"2013","f","SpeechGestureMatch","../RequiredFiles/videos/NeinDaumenhoch_m.mp4","Ist der Ball in der blauen Box?","Blue","Green","F","affirmation","mismatch","gesture","no","ThumbUp","male","gesture-speech","1440","900","firefox","60.79","Mac OS","21","male","right","Mon Aug 19 2024 15:20:17 GMT+0200 (Mitteleuropäische Sommerzeit)","1","58","0","1724076246348"
"1893","j","SpeechGestureMatch","../RequiredFiles/videos/JaDaumenhoch_f.mp4","Ist der Ball in der blauen Box?","Green","Blue","J","affirmation","match","gesture","yes","ThumbUp","female","gesture-speech","1440","900","firefox","60.79","Mac OS","21","male","right","Mon Aug 19 2024 15:20:24 GMT+0200 (Mitteleuropäische Sommerzeit)","1","59","0","1724076246348"
"1633","f","SpeechGestureMatch","../RequiredFiles/videos/JaDaumenrunter_f.mp4","Ist der Ball in der blauen Box?","Green","Blue","F","negation","mismatch","gesture","yes","ThumbDown","female","gesture-speech","1440","900","firefox","60.79","Mac OS","21","male","right","Mon Aug 19 2024 15:20:32 GMT+0200 (Mitteleuropäische Sommerzeit)","1","60","0","1724076246348"
"2645","f","SpeechGestureMatch","../RequiredFiles/videos/NeinDaumenhoch_m.mp4","Ist der Ball in der grünen Box?","Green","Blue","F","affirmation","mismatch","gesture","no","ThumbUp","male","gesture-speech","1440","900","firefox","60.79","Mac OS","21","male","right","Mon Aug 19 2024 15:20:40 GMT+0200 (Mitteleuropäische Sommerzeit)","1","61","0","1724076246348"
"1746","f","SpeechGestureMatch","../RequiredFiles/videos/JaDaumenrunter_f.mp4","Ist der Ball in der grünen Box?","Blue","Green","F","negation","mismatch","gesture","yes","ThumbDown","female","gesture-speech","1440","900","firefox","60.79","Mac OS","21","male","right","Mon Aug 19 2024 15:20:47 GMT+0200 (Mitteleuropäische Sommerzeit)","1","62","0","1724076246348"
"1834","f","SpeechGestureMatch","../RequiredFiles/videos/NeinDaumenhoch_m.mp4","Ist der Ball in der grünen Box?","Green","Blue","F","affirmation","mismatch","gesture","no","ThumbUp","male","gesture-speech","1440","900","firefox","60.79","Mac OS","21","male","right","Mon Aug 19 2024 15:20:54 GMT+0200 (Mitteleuropäische Sommerzeit)","1","63","0","1724076246348"
"1681","f","SpeechGestureMatch","../RequiredFiles/videos/JaDaumenrunter_m.mp4","Ist der Ball in der blauen Box?","Green","Blue","F","negation","mismatch","gesture","yes","ThumbDown","male","gesture-speech","1440","900","firefox","60.79","Mac OS","21","male","right","Mon Aug 19 2024 15:21:02 GMT+0200 (Mitteleuropäische Sommerzeit)","1","64","0","1724076246348"
"2663","f","SpeechGestureMatch","../RequiredFiles/videos/JaDaumenrunter_f.mp4","Ist der Ball in der grünen Box?","Blue","Green","F","negation","mismatch","gesture","yes","ThumbDown","female","gesture-speech","1440","900","firefox","60.79","Mac OS","21","male","right","Mon Aug 19 2024 15:28:18 GMT+0200 (Mitteleuropäische Sommerzeit)","2","1","0","1724076246348"
"2368","f","SpeechGestureMatch","../RequiredFiles/videos/NeinDaumenrunter_f.mp4","Ist der Ball in der grünen Box?","Blue","Green","F","negation","match","gesture","no","ThumbDown","female","gesture-speech","1440","900","firefox","60.79","Mac OS","21","male","right","Mon Aug 19 2024 15:28:26 GMT+0200 (Mitteleuropäische Sommerzeit)","2","2","0","1724076246348"
"6422","f","SpeechGestureMatch","../RequiredFiles/videos/NeinDaumenhoch_m.mp4","Ist der Ball in der grünen Box?","Green","Blue","F","affirmation","mismatch","gesture","no","ThumbUp","male","gesture-speech","1440","900","firefox","60.79","Mac OS","21","male","right","Mon Aug 19 2024 15:28:38 GMT+0200 (Mitteleuropäische Sommerzeit)","2","3","0","1724076246348"
"2961","j","SpeechGestureMatch","../RequiredFiles/videos/JaDaumenhoch_m.mp4","Ist der Ball in der blauen Box?","Green","Blue","J","affirmation","match","gesture","yes","ThumbUp","male","gesture-speech","1440","900","firefox","60.79","Mac OS","21","male","right","Mon Aug 19 2024 15:28:46 GMT+0200 (Mitteleuropäische Sommerzeit)","2","4","0","1724076246348"
"2534","j","SpeechGestureMatch","../RequiredFiles/videos/NeinDaumenhoch_m.mp4","Ist der Ball in der blauen Box?","Green","Blue","J","affirmation","mismatch","gesture","no","ThumbUp","male","gesture-speech","1440","900","firefox","60.79","Mac OS","21","male","right","Mon Aug 19 2024 15:28:54 GMT+0200 (Mitteleuropäische Sommerzeit)","2","5","0","1724076246348"
"2158","f","SpeechGestureMatch","../RequiredFiles/videos/JaDaumenhoch_m.mp4","Ist der Ball in der blauen Box?","Blue","Green","F","affirmation","match","gesture","yes","ThumbUp","male","gesture-speech","1440","900","firefox","60.79","Mac OS","21","male","right","Mon Aug 19 2024 15:29:02 GMT+0200 (Mitteleuropäische Sommerzeit)","2","6","0","1724076246348"
"2751","f","SpeechGestureMatch","../RequiredFiles/videos/NeinDaumenhoch_f.mp4","Ist der Ball in der blauen Box?","Blue","Green","F","affirmation","mismatch","gesture","no","ThumbUp","female","gesture-speech","1440","900","firefox","60.79","Mac OS","21","male","right","Mon Aug 19 2024 15:29:10 GMT+0200 (Mitteleuropäische Sommerzeit)","2","7","0","1724076246348"
"1540","j","SpeechGestureMatch","../RequiredFiles/videos/JaDaumenhoch_m.mp4","Ist der Ball in der grünen Box?","Blue","Green","J","affirmation","match","gesture","yes","ThumbUp","male","gesture-speech","1440","900","firefox","60.79","Mac OS","21","male","right","Mon Aug 19 2024 15:29:18 GMT+0200 (Mitteleuropäische Sommerzeit)","2","8","0","1724076246348"
"2148","j","SpeechGestureMatch","../RequiredFiles/videos/NeinDaumenrunter_f.mp4","Ist der Ball in der grünen Box?","Green","Blue","J","negation","match","gesture","no","ThumbDown","female","gesture-speech","1440","900","firefox","60.79","Mac OS","21","male","right","Mon Aug 19 2024 15:29:25 GMT+0200 (Mitteleuropäische Sommerzeit)","2","9","0","1724076246348"
"2140","j","SpeechGestureMatch","../RequiredFiles/videos/JaDaumenhoch_f.mp4","Ist der Ball in der blauen Box?","Green","Blue","J","affirmation","match","gesture","yes","ThumbUp","female","gesture-speech","1440","900","firefox","60.79","Mac OS","21","male","right","Mon Aug 19 2024 15:29:33 GMT+0200 (Mitteleuropäische Sommerzeit)","2","10","0","1724076246348"
"2271","j","SpeechGestureMatch","../RequiredFiles/videos/JaDaumenrunter_m.mp4","Ist der Ball in der grünen Box?","Green","Blue","J","negation","mismatch","gesture","yes","ThumbDown","male","gesture-speech","1440","900","firefox","60.79","Mac OS","21","male","right","Mon Aug 19 2024 15:29:41 GMT+0200 (Mitteleuropäische Sommerzeit)","2","11","0","1724076246348"
"1946","f","SpeechGestureMatch","../RequiredFiles/videos/JaDaumenrunter_f.mp4","Ist der Ball in der grünen Box?","Blue","Green","F","negation","mismatch","gesture","yes","ThumbDown","female","gesture-speech","1440","900","firefox","60.79","Mac OS","21","male","right","Mon Aug 19 2024 15:29:48 GMT+0200 (Mitteleuropäische Sommerzeit)","2","12","0","1724076246348"
"2188","f","SpeechGestureMatch","../RequiredFiles/videos/JaDaumenhoch_m.mp4","Ist der Ball in der grünen Box?","Green","Blue","F","affirmation","match","gesture","yes","ThumbUp","male","gesture-speech","1440","900","firefox","60.79","Mac OS","21","male","right","Mon Aug 19 2024 15:29:56 GMT+0200 (Mitteleuropäische Sommerzeit)","2","13","0","1724076246348"
"1825","f","SpeechGestureMatch","../RequiredFiles/videos/JaDaumenrunter_m.mp4","Ist der Ball in der grünen Box?","Blue","Green","F","negation","mismatch","gesture","yes","ThumbDown","male","gesture-speech","1440","900","firefox","60.79","Mac OS","21","male","right","Mon Aug 19 2024 15:30:03 GMT+0200 (Mitteleuropäische Sommerzeit)","2","14","0","1724076246348"
"2180","j","SpeechGestureMatch","../RequiredFiles/videos/JaDaumenhoch_f.mp4","Ist der Ball in der grünen Box?","Blue","Green","J","affirmation","match","gesture","yes","ThumbUp","female","gesture-speech","1440","900","firefox","60.79","Mac OS","21","male","right","Mon Aug 19 2024 15:30:11 GMT+0200 (Mitteleuropäische Sommerzeit)","2","15","0","1724076246348"
"1670","f","SpeechGestureMatch","../RequiredFiles/videos/NeinDaumenrunter_m.mp4","Ist der Ball in der grünen Box?","Green","Blue","J","negation","match","gesture","no","ThumbDown","male","gesture-speech","1440","900","firefox","60.79","Mac OS","21","male","right","Mon Aug 19 2024 15:30:18 GMT+0200 (Mitteleuropäische Sommerzeit)","2","16","1","1724076246348"
"1813","j","SpeechGestureMatch","../RequiredFiles/videos/NeinDaumenrunter_f.mp4","Ist der Ball in der blauen Box?","Blue","Green","J","negation","match","gesture","no","ThumbDown","female","gesture-speech","1440","900","firefox","60.79","Mac OS","21","male","right","Mon Aug 19 2024 15:30:25 GMT+0200 (Mitteleuropäische Sommerzeit)","2","17","0","1724076246348"
"1864","f","SpeechGestureMatch","../RequiredFiles/videos/NeinDaumenrunter_f.mp4","Ist der Ball in der grünen Box?","Green","Blue","J","negation","match","gesture","no","ThumbDown","female","gesture-speech","1440","900","firefox","60.79","Mac OS","21","male","right","Mon Aug 19 2024 15:30:33 GMT+0200 (Mitteleuropäische Sommerzeit)","2","18","1","1724076246348"
"3962","f","SpeechGestureMatch","../RequiredFiles/videos/JaDaumenrunter_m.mp4","Ist der Ball in der grünen Box?","Blue","Green","F","negation","mismatch","gesture","yes","ThumbDown","male","gesture-speech","1440","900","firefox","60.79","Mac OS","21","male","right","Mon Aug 19 2024 15:30:42 GMT+0200 (Mitteleuropäische Sommerzeit)","2","19","0","1724076246348"
"2383","j","SpeechGestureMatch","../RequiredFiles/videos/NeinDaumenhoch_f.mp4","Ist der Ball in der blauen Box?","Green","Blue","J","affirmation","mismatch","gesture","no","ThumbUp","female","gesture-speech","1440","900","firefox","60.79","Mac OS","21","male","right","Mon Aug 19 2024 15:30:50 GMT+0200 (Mitteleuropäische Sommerzeit)","2","20","0","1724076246348"
"1839","f","SpeechGestureMatch","../RequiredFiles/videos/JaDaumenrunter_m.mp4","Ist der Ball in der blauen Box?","Green","Blue","F","negation","mismatch","gesture","yes","ThumbDown","male","gesture-speech","1440","900","firefox","60.79","Mac OS","21","male","right","Mon Aug 19 2024 15:30:58 GMT+0200 (Mitteleuropäische Sommerzeit)","2","21","0","1724076246348"
"2243","f","SpeechGestureMatch","../RequiredFiles/videos/NeinDaumenhoch_m.mp4","Ist der Ball in der grünen Box?","Green","Blue","F","affirmation","mismatch","gesture","no","ThumbUp","male","gesture-speech","1440","900","firefox","60.79","Mac OS","21","male","right","Mon Aug 19 2024 15:31:05 GMT+0200 (Mitteleuropäische Sommerzeit)","2","22","0","1724076246348"
"1801","f","SpeechGestureMatch","../RequiredFiles/videos/JaDaumenrunter_f.mp4","Ist der Ball in der blauen Box?","Blue","Green","J","negation","mismatch","gesture","yes","ThumbDown","female","gesture-speech","1440","900","firefox","60.79","Mac OS","21","male","right","Mon Aug 19 2024 15:31:13 GMT+0200 (Mitteleuropäische Sommerzeit)","2","23","1","1724076246348"
"1812","j","SpeechGestureMatch","../RequiredFiles/videos/JaDaumenhoch_f.mp4","Ist der Ball in der blauen Box?","Green","Blue","J","affirmation","match","gesture","yes","ThumbUp","female","gesture-speech","1440","900","firefox","60.79","Mac OS","21","male","right","Mon Aug 19 2024 15:31:20 GMT+0200 (Mitteleuropäische Sommerzeit)","2","24","0","1724076246348"
"1919","f","SpeechGestureMatch","../RequiredFiles/videos/NeinDaumenhoch_f.mp4","Ist der Ball in der grünen Box?","Green","Blue","F","affirmation","mismatch","gesture","no","ThumbUp","female","gesture-speech","1440","900","firefox","60.79","Mac OS","21","male","right","Mon Aug 19 2024 15:31:28 GMT+0200 (Mitteleuropäische Sommerzeit)","2","25","0","1724076246348"
"1465","f","SpeechGestureMatch","../RequiredFiles/videos/JaDaumenhoch_f.mp4","Ist der Ball in der grünen Box?","Green","Blue","F","affirmation","match","gesture","yes","ThumbUp","female","gesture-speech","1440","900","firefox","60.79","Mac OS","21","male","right","Mon Aug 19 2024 15:31:35 GMT+0200 (Mitteleuropäische Sommerzeit)","2","26","0","1724076246348"
"2065","f","SpeechGestureMatch","../RequiredFiles/videos/NeinDaumenhoch_f.mp4","Ist der Ball in der grünen Box?","Green","Blue","F","affirmation","mismatch","gesture","no","ThumbUp","female","gesture-speech","1440","900","firefox","60.79","Mac OS","21","male","right","Mon Aug 19 2024 15:31:42 GMT+0200 (Mitteleuropäische Sommerzeit)","2","27","0","1724076246348"
"1955","f","SpeechGestureMatch","../RequiredFiles/videos/NeinDaumenrunter_f.mp4","Ist der Ball in der grünen Box?","Blue","Green","F","negation","match","gesture","no","ThumbDown","female","gesture-speech","1440","900","firefox","60.79","Mac OS","21","male","right","Mon Aug 19 2024 15:31:50 GMT+0200 (Mitteleuropäische Sommerzeit)","2","28","0","1724076246348"
"2084","j","SpeechGestureMatch","../RequiredFiles/videos/NeinDaumenrunter_f.mp4","Ist der Ball in der blauen Box?","Blue","Green","J","negation","match","gesture","no","ThumbDown","female","gesture-speech","1440","900","firefox","60.79","Mac OS","21","male","right","Mon Aug 19 2024 15:31:57 GMT+0200 (Mitteleuropäische Sommerzeit)","2","29","0","1724076246348"
"1624","f","SpeechGestureMatch","../RequiredFiles/videos/JaDaumenrunter_m.mp4","Ist der Ball in der blauen Box?","Green","Blue","F","negation","mismatch","gesture","yes","ThumbDown","male","gesture-speech","1440","900","firefox","60.79","Mac OS","21","male","right","Mon Aug 19 2024 15:32:05 GMT+0200 (Mitteleuropäische Sommerzeit)","2","30","0","1724076246348"
"1515","f","SpeechGestureMatch","../RequiredFiles/videos/NeinDaumenrunter_m.mp4","Ist der Ball in der grünen Box?","Blue","Green","F","negation","match","gesture","no","ThumbDown","male","gesture-speech","1440","900","firefox","60.79","Mac OS","21","male","right","Mon Aug 19 2024 15:32:12 GMT+0200 (Mitteleuropäische Sommerzeit)","2","31","0","1724076246348"
"2025","f","SpeechGestureMatch","../RequiredFiles/videos/JaDaumenhoch_f.mp4","Ist der Ball in der grünen Box?","Green","Blue","F","affirmation","match","gesture","yes","ThumbUp","female","gesture-speech","1440","900","firefox","60.79","Mac OS","21","male","right","Mon Aug 19 2024 15:32:19 GMT+0200 (Mitteleuropäische Sommerzeit)","2","32","0","1724076246348"
"1715","f","SpeechGestureMatch","../RequiredFiles/videos/JaDaumenrunter_f.mp4","Ist der Ball in der blauen Box?","Green","Blue","F","negation","mismatch","gesture","yes","ThumbDown","female","gesture-speech","1440","900","firefox","60.79","Mac OS","21","male","right","Mon Aug 19 2024 15:32:26 GMT+0200 (Mitteleuropäische Sommerzeit)","2","33","0","1724076246348"
"2373","j","SpeechGestureMatch","../RequiredFiles/videos/NeinDaumenhoch_m.mp4","Ist der Ball in der blauen Box?","Blue","Green","F","affirmation","mismatch","gesture","no","ThumbUp","male","gesture-speech","1440","900","firefox","60.79","Mac OS","21","male","right","Mon Aug 19 2024 15:32:34 GMT+0200 (Mitteleuropäische Sommerzeit)","2","34","1","1724076246348"
"1727","j","SpeechGestureMatch","../RequiredFiles/videos/JaDaumenrunter_f.mp4","Ist der Ball in der grünen Box?","Green","Blue","J","negation","mismatch","gesture","yes","ThumbDown","female","gesture-speech","1440","900","firefox","60.79","Mac OS","21","male","right","Mon Aug 19 2024 15:32:42 GMT+0200 (Mitteleuropäische Sommerzeit)","2","35","0","1724076246348"
"1843","j","SpeechGestureMatch","../RequiredFiles/videos/JaDaumenrunter_m.mp4","Ist der Ball in der blauen Box?","Blue","Green","J","negation","mismatch","gesture","yes","ThumbDown","male","gesture-speech","1440","900","firefox","60.79","Mac OS","21","male","right","Mon Aug 19 2024 15:32:49 GMT+0200 (Mitteleuropäische Sommerzeit)","2","36","0","1724076246348"
"2014","j","SpeechGestureMatch","../RequiredFiles/videos/JaDaumenrunter_f.mp4","Ist der Ball in der blauen Box?","Green","Blue","F","negation","mismatch","gesture","yes","ThumbDown","female","gesture-speech","1440","900","firefox","60.79","Mac OS","21","male","right","Mon Aug 19 2024 15:32:57 GMT+0200 (Mitteleuropäische Sommerzeit)","2","37","1","1724076246348"
"1390","j","SpeechGestureMatch","../RequiredFiles/videos/NeinDaumenrunter_m.mp4","Ist der Ball in der blauen Box?","Blue","Green","J","negation","match","gesture","no","ThumbDown","male","gesture-speech","1440","900","firefox","60.79","Mac OS","21","male","right","Mon Aug 19 2024 15:33:03 GMT+0200 (Mitteleuropäische Sommerzeit)","2","38","0","1724076246348"
"1840","j","SpeechGestureMatch","../RequiredFiles/videos/JaDaumenrunter_m.mp4","Ist der Ball in der grünen Box?","Green","Blue","J","negation","mismatch","gesture","yes","ThumbDown","male","gesture-speech","1440","900","firefox","60.79","Mac OS","21","male","right","Mon Aug 19 2024 15:33:11 GMT+0200 (Mitteleuropäische Sommerzeit)","2","39","0","1724076246348"
"1780","j","SpeechGestureMatch","../RequiredFiles/videos/JaDaumenhoch_f.mp4","Ist der Ball in der blauen Box?","Blue","Green","F","affirmation","match","gesture","yes","ThumbUp","female","gesture-speech","1440","900","firefox","60.79","Mac OS","21","male","right","Mon Aug 19 2024 15:33:18 GMT+0200 (Mitteleuropäische Sommerzeit)","2","40","1","1724076246348"
"1297","f","SpeechGestureMatch","../RequiredFiles/videos/NeinDaumenrunter_m.mp4","Ist der Ball in der blauen Box?","Green","Blue","F","negation","match","gesture","no","ThumbDown","male","gesture-speech","1440","900","firefox","60.79","Mac OS","21","male","right","Mon Aug 19 2024 15:33:25 GMT+0200 (Mitteleuropäische Sommerzeit)","2","41","0","1724076246348"
"2381","f","SpeechGestureMatch","../RequiredFiles/videos/NeinDaumenrunter_m.mp4","Ist der Ball in der grünen Box?","Blue","Green","F","negation","match","gesture","no","ThumbDown","male","gesture-speech","1440","900","firefox","60.79","Mac OS","21","male","right","Mon Aug 19 2024 15:33:33 GMT+0200 (Mitteleuropäische Sommerzeit)","2","42","0","1724076246348"
"1668","j","SpeechGestureMatch","../RequiredFiles/videos/NeinDaumenhoch_f.mp4","Ist der Ball in der grünen Box?","Blue","Green","J","affirmation","mismatch","gesture","no","ThumbUp","female","gesture-speech","1440","900","firefox","60.79","Mac OS","21","male","right","Mon Aug 19 2024 15:33:40 GMT+0200 (Mitteleuropäische Sommerzeit)","2","43","0","1724076246348"
"1862","j","SpeechGestureMatch","../RequiredFiles/videos/NeinDaumenhoch_m.mp4","Ist der Ball in der grünen Box?","Blue","Green","J","affirmation","mismatch","gesture","no","ThumbUp","male","gesture-speech","1440","900","firefox","60.79","Mac OS","21","male","right","Mon Aug 19 2024 15:33:48 GMT+0200 (Mitteleuropäische Sommerzeit)","2","44","0","1724076246348"
"1495","f","SpeechGestureMatch","../RequiredFiles/videos/JaDaumenhoch_f.mp4","Ist der Ball in der blauen Box?","Blue","Green","F","affirmation","match","gesture","yes","ThumbUp","female","gesture-speech","1440","900","firefox","60.79","Mac OS","21","male","right","Mon Aug 19 2024 15:33:55 GMT+0200 (Mitteleuropäische Sommerzeit)","2","45","0","1724076246348"
"1649","f","SpeechGestureMatch","../RequiredFiles/videos/JaDaumenhoch_f.mp4","Ist der Ball in der grünen Box?","Blue","Green","J","affirmation","match","gesture","yes","ThumbUp","female","gesture-speech","1440","900","firefox","60.79","Mac OS","21","male","right","Mon Aug 19 2024 15:34:02 GMT+0200 (Mitteleuropäische Sommerzeit)","2","46","1","1724076246348"
"1933","f","SpeechGestureMatch","../RequiredFiles/videos/NeinDaumenrunter_f.mp4","Ist der Ball in der blauen Box?","Green","Blue","F","negation","match","gesture","no","ThumbDown","female","gesture-speech","1440","900","firefox","60.79","Mac OS","21","male","right","Mon Aug 19 2024 15:34:09 GMT+0200 (Mitteleuropäische Sommerzeit)","2","47","0","1724076246348"
"1926","f","SpeechGestureMatch","../RequiredFiles/videos/NeinDaumenrunter_m.mp4","Ist der Ball in der grünen Box?","Green","Blue","J","negation","match","gesture","no","ThumbDown","male","gesture-speech","1440","900","firefox","60.79","Mac OS","21","male","right","Mon Aug 19 2024 15:34:17 GMT+0200 (Mitteleuropäische Sommerzeit)","2","48","1","1724076246348"
"1434","f","SpeechGestureMatch","../RequiredFiles/videos/NeinDaumenrunter_m.mp4","Ist der Ball in der blauen Box?","Green","Blue","F","negation","match","gesture","no","ThumbDown","male","gesture-speech","1440","900","firefox","60.79","Mac OS","21","male","right","Mon Aug 19 2024 15:34:24 GMT+0200 (Mitteleuropäische Sommerzeit)","2","49","0","1724076246348"
"1458","j","SpeechGestureMatch","../RequiredFiles/videos/NeinDaumenhoch_m.mp4","Ist der Ball in der grünen Box?","Blue","Green","J","affirmation","mismatch","gesture","no","ThumbUp","male","gesture-speech","1440","900","firefox","60.79","Mac OS","21","male","right","Mon Aug 19 2024 15:34:31 GMT+0200 (Mitteleuropäische Sommerzeit)","2","50","0","1724076246348"
"1775","j","SpeechGestureMatch","../RequiredFiles/videos/JaDaumenhoch_m.mp4","Ist der Ball in der blauen Box?","Blue","Green","F","affirmation","match","gesture","yes","ThumbUp","male","gesture-speech","1440","900","firefox","60.79","Mac OS","21","male","right","Mon Aug 19 2024 15:34:38 GMT+0200 (Mitteleuropäische Sommerzeit)","2","51","1","1724076246348"
"1399","j","SpeechGestureMatch","../RequiredFiles/videos/JaDaumenhoch_m.mp4","Ist der Ball in der blauen Box?","Green","Blue","J","affirmation","match","gesture","yes","ThumbUp","male","gesture-speech","1440","900","firefox","60.79","Mac OS","21","male","right","Mon Aug 19 2024 15:34:45 GMT+0200 (Mitteleuropäische Sommerzeit)","2","52","0","1724076246348"
"1461","f","SpeechGestureMatch","../RequiredFiles/videos/NeinDaumenhoch_m.mp4","Ist der Ball in der blauen Box?","Blue","Green","F","affirmation","mismatch","gesture","no","ThumbUp","male","gesture-speech","1440","900","firefox","60.79","Mac OS","21","male","right","Mon Aug 19 2024 15:34:52 GMT+0200 (Mitteleuropäische Sommerzeit)","2","53","0","1724076246348"
"1617","j","SpeechGestureMatch","../RequiredFiles/videos/NeinDaumenrunter_f.mp4","Ist der Ball in der blauen Box?","Green","Blue","F","negation","match","gesture","no","ThumbDown","female","gesture-speech","1440","900","firefox","60.79","Mac OS","21","male","right","Mon Aug 19 2024 15:35:00 GMT+0200 (Mitteleuropäische Sommerzeit)","2","54","1","1724076246348"
"1501","f","SpeechGestureMatch","../RequiredFiles/videos/JaDaumenrunter_m.mp4","Ist der Ball in der blauen Box?","Blue","Green","J","negation","mismatch","gesture","yes","ThumbDown","male","gesture-speech","1440","900","firefox","60.79","Mac OS","21","male","right","Mon Aug 19 2024 15:35:07 GMT+0200 (Mitteleuropäische Sommerzeit)","2","55","1","1724076246348"
"1057","j","SpeechGestureMatch","../RequiredFiles/videos/JaDaumenhoch_m.mp4","Ist der Ball in der grünen Box?","Green","Blue","F","affirmation","match","gesture","yes","ThumbUp","male","gesture-speech","1440","900","firefox","60.79","Mac OS","21","male","right","Mon Aug 19 2024 15:35:13 GMT+0200 (Mitteleuropäische Sommerzeit)","2","56","1","1724076246348"
"1743","j","SpeechGestureMatch","../RequiredFiles/videos/NeinDaumenhoch_f.mp4","Ist der Ball in der grünen Box?","Blue","Green","J","affirmation","mismatch","gesture","no","ThumbUp","female","gesture-speech","1440","900","firefox","60.79","Mac OS","21","male","right","Mon Aug 19 2024 15:35:20 GMT+0200 (Mitteleuropäische Sommerzeit)","2","57","0","1724076246348"
"1360","j","SpeechGestureMatch","../RequiredFiles/videos/NeinDaumenhoch_f.mp4","Ist der Ball in der blauen Box?","Green","Blue","J","affirmation","mismatch","gesture","no","ThumbUp","female","gesture-speech","1440","900","firefox","60.79","Mac OS","21","male","right","Mon Aug 19 2024 15:35:27 GMT+0200 (Mitteleuropäische Sommerzeit)","2","58","0","1724076246348"
"1407","j","SpeechGestureMatch","../RequiredFiles/videos/JaDaumenhoch_m.mp4","Ist der Ball in der grünen Box?","Blue","Green","J","affirmation","match","gesture","yes","ThumbUp","male","gesture-speech","1440","900","firefox","60.79","Mac OS","21","male","right","Mon Aug 19 2024 15:35:34 GMT+0200 (Mitteleuropäische Sommerzeit)","2","59","0","1724076246348"
"1752","f","SpeechGestureMatch","../RequiredFiles/videos/JaDaumenrunter_f.mp4","Ist der Ball in der blauen Box?","Blue","Green","J","negation","mismatch","gesture","yes","ThumbDown","female","gesture-speech","1440","900","firefox","60.79","Mac OS","21","male","right","Mon Aug 19 2024 15:35:42 GMT+0200 (Mitteleuropäische Sommerzeit)","2","60","1","1724076246348"
"1961","j","SpeechGestureMatch","../RequiredFiles/videos/NeinDaumenhoch_m.mp4","Ist der Ball in der blauen Box?","Green","Blue","J","affirmation","mismatch","gesture","no","ThumbUp","male","gesture-speech","1440","900","firefox","60.79","Mac OS","21","male","right","Mon Aug 19 2024 15:35:49 GMT+0200 (Mitteleuropäische Sommerzeit)","2","61","0","1724076246348"
"1672","f","SpeechGestureMatch","../RequiredFiles/videos/NeinDaumenhoch_f.mp4","Ist der Ball in der blauen Box?","Blue","Green","F","affirmation","mismatch","gesture","no","ThumbUp","female","gesture-speech","1440","900","firefox","60.79","Mac OS","21","male","right","Mon Aug 19 2024 15:35:56 GMT+0200 (Mitteleuropäische Sommerzeit)","2","62","0","1724076246348"
"1643","j","SpeechGestureMatch","../RequiredFiles/videos/JaDaumenrunter_f.mp4","Ist der Ball in der grünen Box?","Green","Blue","J","negation","mismatch","gesture","yes","ThumbDown","female","gesture-speech","1440","900","firefox","60.79","Mac OS","21","male","right","Mon Aug 19 2024 15:36:04 GMT+0200 (Mitteleuropäische Sommerzeit)","2","63","0","1724076246348"
"1720","j","SpeechGestureMatch","../RequiredFiles/videos/NeinDaumenrunter_m.mp4","Ist der Ball in der blauen Box?","Blue","Green","J","negation","match","gesture","no","ThumbDown","male","gesture-speech","1440","900","firefox","60.79","Mac OS","21","male","right","Mon Aug 19 2024 15:36:11 GMT+0200 (Mitteleuropäische Sommerzeit)","2","64","0","1724076246348"
"2675","f","SpeechGestureMatch","../RequiredFiles/videos/JaDaumenrunter_m.mp4","Ist der Ball in der blauen Box?","Blue","Green","F","affirmation","mismatch","speech","yes","ThumbDown","male","gesture-speech","1440","900","firefox","60.79","Mac OS","21","male","right","Mon Aug 19 2024 15:45:13 GMT+0200 (Mitteleuropäische Sommerzeit)","3","1","0","1724076246348"
"2996","f","SpeechGestureMatch","../RequiredFiles/videos/JaDaumenrunter_m.mp4","Ist der Ball in der grünen Box?","Green","Blue","F","affirmation","mismatch","speech","yes","ThumbDown","male","gesture-speech","1440","900","firefox","60.79","Mac OS","21","male","right","Mon Aug 19 2024 15:45:21 GMT+0200 (Mitteleuropäische Sommerzeit)","3","2","0","1724076246348"
"2432","j","SpeechGestureMatch","../RequiredFiles/videos/JaDaumenhoch_m.mp4","Ist der Ball in der grünen Box?","Blue","Green","J","affirmation","match","speech","yes","ThumbUp","male","gesture-speech","1440","900","firefox","60.79","Mac OS","21","male","right","Mon Aug 19 2024 15:45:29 GMT+0200 (Mitteleuropäische Sommerzeit)","3","3","0","1724076246348"
"1831","j","SpeechGestureMatch","../RequiredFiles/videos/NeinDaumenhoch_f.mp4","Ist der Ball in der blauen Box?","Blue","Green","J","negation","mismatch","speech","no","ThumbUp","female","gesture-speech","1440","900","firefox","60.79","Mac OS","21","male","right","Mon Aug 19 2024 15:45:37 GMT+0200 (Mitteleuropäische Sommerzeit)","3","4","0","1724076246348"
"1978","f","SpeechGestureMatch","../RequiredFiles/videos/JaDaumenhoch_f.mp4","Ist der Ball in der grünen Box?","Green","Blue","F","affirmation","match","speech","yes","ThumbUp","female","gesture-speech","1440","900","firefox","60.79","Mac OS","21","male","right","Mon Aug 19 2024 15:45:44 GMT+0200 (Mitteleuropäische Sommerzeit)","3","5","0","1724076246348"
"1707","j","SpeechGestureMatch","../RequiredFiles/videos/NeinDaumenrunter_m.mp4","Ist der Ball in der grünen Box?","Green","Blue","J","negation","match","speech","no","ThumbDown","male","gesture-speech","1440","900","firefox","60.79","Mac OS","21","male","right","Mon Aug 19 2024 15:45:51 GMT+0200 (Mitteleuropäische Sommerzeit)","3","6","0","1724076246348"
"5121","f","SpeechGestureMatch","../RequiredFiles/videos/JaDaumenrunter_f.mp4","Ist der Ball in der grünen Box?","Green","Blue","F","affirmation","mismatch","speech","yes","ThumbDown","female","gesture-speech","1440","900","firefox","60.79","Mac OS","21","male","right","Mon Aug 19 2024 15:46:02 GMT+0200 (Mitteleuropäische Sommerzeit)","3","7","0","1724076246348"
"3011","j","SpeechGestureMatch","../RequiredFiles/videos/NeinDaumenhoch_f.mp4","Ist der Ball in der blauen Box?","Blue","Green","J","negation","mismatch","speech","no","ThumbUp","female","gesture-speech","1440","900","firefox","60.79","Mac OS","21","male","right","Mon Aug 19 2024 15:46:11 GMT+0200 (Mitteleuropäische Sommerzeit)","3","8","0","1724076246348"
"2164","j","SpeechGestureMatch","../RequiredFiles/videos/JaDaumenrunter_m.mp4","Ist der Ball in der blauen Box?","Green","Blue","J","affirmation","mismatch","speech","yes","ThumbDown","male","gesture-speech","1440","900","firefox","60.79","Mac OS","21","male","right","Mon Aug 19 2024 15:46:18 GMT+0200 (Mitteleuropäische Sommerzeit)","3","9","0","1724076246348"
"2051","j","SpeechGestureMatch","../RequiredFiles/videos/NeinDaumenrunter_m.mp4","Ist der Ball in der blauen Box?","Green","Blue","F","negation","match","speech","no","ThumbDown","male","gesture-speech","1440","900","firefox","60.79","Mac OS","21","male","right","Mon Aug 19 2024 15:46:26 GMT+0200 (Mitteleuropäische Sommerzeit)","3","10","1","1724076246348"
"2464","j","SpeechGestureMatch","../RequiredFiles/videos/JaDaumenhoch_m.mp4","Ist der Ball in der grünen Box?","Blue","Green","J","affirmation","match","speech","yes","ThumbUp","male","gesture-speech","1440","900","firefox","60.79","Mac OS","21","male","right","Mon Aug 19 2024 15:46:34 GMT+0200 (Mitteleuropäische Sommerzeit)","3","11","0","1724076246348"
"1774","j","SpeechGestureMatch","../RequiredFiles/videos/NeinDaumenhoch_f.mp4","Ist der Ball in der grünen Box?","Blue","Green","F","negation","mismatch","speech","no","ThumbUp","female","gesture-speech","1440","900","firefox","60.79","Mac OS","21","male","right","Mon Aug 19 2024 15:46:41 GMT+0200 (Mitteleuropäische Sommerzeit)","3","12","1","1724076246348"
"2510","j","SpeechGestureMatch","../RequiredFiles/videos/NeinDaumenhoch_m.mp4","Ist der Ball in der grünen Box?","Green","Blue","J","negation","mismatch","speech","no","ThumbUp","male","gesture-speech","1440","900","firefox","60.79","Mac OS","21","male","right","Mon Aug 19 2024 15:46:49 GMT+0200 (Mitteleuropäische Sommerzeit)","3","13","0","1724076246348"
"1645","f","SpeechGestureMatch","../RequiredFiles/videos/JaDaumenrunter_f.mp4","Ist der Ball in der grünen Box?","Green","Blue","F","affirmation","mismatch","speech","yes","ThumbDown","female","gesture-speech","1440","900","firefox","60.79","Mac OS","21","male","right","Mon Aug 19 2024 15:46:57 GMT+0200 (Mitteleuropäische Sommerzeit)","3","14","0","1724076246348"
"2299","j","SpeechGestureMatch","../RequiredFiles/videos/NeinDaumenrunter_m.mp4","Ist der Ball in der grünen Box?","Blue","Green","F","negation","match","speech","no","ThumbDown","male","gesture-speech","1440","900","firefox","60.79","Mac OS","21","male","right","Mon Aug 19 2024 15:47:04 GMT+0200 (Mitteleuropäische Sommerzeit)","3","15","1","1724076246348"
"707","f","SpeechGestureMatch","../RequiredFiles/videos/NeinDaumenrunter_m.mp4","Ist der Ball in der blauen Box?","Blue","Green","J","negation","match","speech","no","ThumbDown","male","gesture-speech","1440","900","firefox","60.79","Mac OS","21","male","right","Mon Aug 19 2024 15:47:11 GMT+0200 (Mitteleuropäische Sommerzeit)","3","16","1","1724076246348"
"754","j","SpeechGestureMatch","../RequiredFiles/videos/NeinDaumenrunter_m.mp4","Ist der Ball in der blauen Box?","Blue","Green","J","negation","match","speech","no","ThumbDown","male","gesture-speech","1440","900","firefox","60.79","Mac OS","21","male","right","Mon Aug 19 2024 15:47:17 GMT+0200 (Mitteleuropäische Sommerzeit)","3","17","0","1724076246348"
"1842","f","SpeechGestureMatch","../RequiredFiles/videos/JaDaumenhoch_m.mp4","Ist der Ball in der blauen Box?","Blue","Green","F","affirmation","match","speech","yes","ThumbUp","male","gesture-speech","1440","900","firefox","60.79","Mac OS","21","male","right","Mon Aug 19 2024 15:47:24 GMT+0200 (Mitteleuropäische Sommerzeit)","3","18","0","1724076246348"
"2426","f","SpeechGestureMatch","../RequiredFiles/videos/NeinDaumenrunter_f.mp4","Ist der Ball in der grünen Box?","Blue","Green","F","negation","match","speech","no","ThumbDown","female","gesture-speech","1440","900","firefox","60.79","Mac OS","21","male","right","Mon Aug 19 2024 15:47:32 GMT+0200 (Mitteleuropäische Sommerzeit)","3","19","0","1724076246348"
"2805","j","SpeechGestureMatch","../RequiredFiles/videos/NeinDaumenhoch_m.mp4","Ist der Ball in der blauen Box?","Green","Blue","F","negation","mismatch","speech","no","ThumbUp","male","gesture-speech","1440","900","firefox","60.79","Mac OS","21","male","right","Mon Aug 19 2024 15:47:41 GMT+0200 (Mitteleuropäische Sommerzeit)","3","20","1","1724076246348"
"1776","f","SpeechGestureMatch","../RequiredFiles/videos/NeinDaumenhoch_m.mp4","Ist der Ball in der grünen Box?","Green","Blue","J","negation","mismatch","speech","no","ThumbUp","male","gesture-speech","1440","900","firefox","60.79","Mac OS","21","male","right","Mon Aug 19 2024 15:47:48 GMT+0200 (Mitteleuropäische Sommerzeit)","3","21","1","1724076246348"
"2711","j","SpeechGestureMatch","../RequiredFiles/videos/NeinDaumenrunter_f.mp4","Ist der Ball in der blauen Box?","Blue","Green","J","negation","match","speech","no","ThumbDown","female","gesture-speech","1440","900","firefox","60.79","Mac OS","21","male","right","Mon Aug 19 2024 15:47:56 GMT+0200 (Mitteleuropäische Sommerzeit)","3","22","0","1724076246348"
"1768","j","SpeechGestureMatch","../RequiredFiles/videos/NeinDaumenhoch_f.mp4","Ist der Ball in der grünen Box?","Blue","Green","F","negation","mismatch","speech","no","ThumbUp","female","gesture-speech","1440","900","firefox","60.79","Mac OS","21","male","right","Mon Aug 19 2024 15:48:03 GMT+0200 (Mitteleuropäische Sommerzeit)","3","23","1","1724076246348"
"2276","f","SpeechGestureMatch","../RequiredFiles/videos/NeinDaumenrunter_f.mp4","Ist der Ball in der grünen Box?","Blue","Green","F","negation","match","speech","no","ThumbDown","female","gesture-speech","1440","900","firefox","60.79","Mac OS","21","male","right","Mon Aug 19 2024 15:48:11 GMT+0200 (Mitteleuropäische Sommerzeit)","3","24","0","1724076246348"
"2124","j","SpeechGestureMatch","../RequiredFiles/videos/JaDaumenhoch_f.mp4","Ist der Ball in der blauen Box?","Green","Blue","J","affirmation","match","speech","yes","ThumbUp","female","gesture-speech","1440","900","firefox","60.79","Mac OS","21","male","right","Mon Aug 19 2024 15:48:19 GMT+0200 (Mitteleuropäische Sommerzeit)","3","25","0","1724076246348"
"1641","j","SpeechGestureMatch","../RequiredFiles/videos/JaDaumenhoch_f.mp4","Ist der Ball in der grünen Box?","Blue","Green","J","affirmation","match","speech","yes","ThumbUp","female","gesture-speech","1440","900","firefox","60.79","Mac OS","21","male","right","Mon Aug 19 2024 15:48:26 GMT+0200 (Mitteleuropäische Sommerzeit)","3","26","0","1724076246348"
"2076","f","SpeechGestureMatch","../RequiredFiles/videos/NeinDaumenhoch_f.mp4","Ist der Ball in der blauen Box?","Green","Blue","F","negation","mismatch","speech","no","ThumbUp","female","gesture-speech","1440","900","firefox","60.79","Mac OS","21","male","right","Mon Aug 19 2024 15:48:34 GMT+0200 (Mitteleuropäische Sommerzeit)","3","27","0","1724076246348"
"1338","f","SpeechGestureMatch","../RequiredFiles/videos/NeinDaumenhoch_f.mp4","Ist der Ball in der blauen Box?","Green","Blue","F","negation","mismatch","speech","no","ThumbUp","female","gesture-speech","1440","900","firefox","60.79","Mac OS","21","male","right","Mon Aug 19 2024 15:48:41 GMT+0200 (Mitteleuropäische Sommerzeit)","3","28","0","1724076246348"
"1430","f","SpeechGestureMatch","../RequiredFiles/videos/NeinDaumenrunter_f.mp4","Ist der Ball in der blauen Box?","Green","Blue","F","negation","match","speech","no","ThumbDown","female","gesture-speech","1440","900","firefox","60.79","Mac OS","21","male","right","Mon Aug 19 2024 15:48:48 GMT+0200 (Mitteleuropäische Sommerzeit)","3","29","0","1724076246348"
"1530","f","SpeechGestureMatch","../RequiredFiles/videos/JaDaumenrunter_f.mp4","Ist der Ball in der blauen Box?","Blue","Green","F","affirmation","mismatch","speech","yes","ThumbDown","female","gesture-speech","1440","900","firefox","60.79","Mac OS","21","male","right","Mon Aug 19 2024 15:48:55 GMT+0200 (Mitteleuropäische Sommerzeit)","3","30","0","1724076246348"
"1380","j","SpeechGestureMatch","../RequiredFiles/videos/NeinDaumenhoch_f.mp4","Ist der Ball in der grünen Box?","Green","Blue","J","negation","mismatch","speech","no","ThumbUp","female","gesture-speech","1440","900","firefox","60.79","Mac OS","21","male","right","Mon Aug 19 2024 15:49:02 GMT+0200 (Mitteleuropäische Sommerzeit)","3","31","0","1724076246348"
"1998","f","SpeechGestureMatch","../RequiredFiles/videos/NeinDaumenhoch_m.mp4","Ist der Ball in der blauen Box?","Green","Blue","F","negation","mismatch","speech","no","ThumbUp","male","gesture-speech","1440","900","firefox","60.79","Mac OS","21","male","right","Mon Aug 19 2024 15:49:09 GMT+0200 (Mitteleuropäische Sommerzeit)","3","32","0","1724076246348"
"2320","f","SpeechGestureMatch","../RequiredFiles/videos/JaDaumenrunter_f.mp4","Ist der Ball in der blauen Box?","Green","Blue","J","affirmation","mismatch","speech","yes","ThumbDown","female","gesture-speech","1440","900","firefox","60.79","Mac OS","21","male","right","Mon Aug 19 2024 15:49:17 GMT+0200 (Mitteleuropäische Sommerzeit)","3","33","1","1724076246348"
"1530","j","SpeechGestureMatch","../RequiredFiles/videos/JaDaumenrunter_f.mp4","Ist der Ball in der blauen Box?","Green","Blue","J","affirmation","mismatch","speech","yes","ThumbDown","female","gesture-speech","1440","900","firefox","60.79","Mac OS","21","male","right","Mon Aug 19 2024 15:49:24 GMT+0200 (Mitteleuropäische Sommerzeit)","3","34","0","1724076246348"
"1614","j","SpeechGestureMatch","../RequiredFiles/videos/JaDaumenhoch_m.mp4","Ist der Ball in der blauen Box?","Green","Blue","J","affirmation","match","speech","yes","ThumbUp","male","gesture-speech","1440","900","firefox","60.79","Mac OS","21","male","right","Mon Aug 19 2024 15:49:31 GMT+0200 (Mitteleuropäische Sommerzeit)","3","35","0","1724076246348"
"2139","j","SpeechGestureMatch","../RequiredFiles/videos/JaDaumenrunter_m.mp4","Ist der Ball in der grünen Box?","Blue","Green","J","affirmation","mismatch","speech","yes","ThumbDown","male","gesture-speech","1440","900","firefox","60.79","Mac OS","21","male","right","Mon Aug 19 2024 15:49:39 GMT+0200 (Mitteleuropäische Sommerzeit)","3","36","0","1724076246348"
"1628","f","SpeechGestureMatch","../RequiredFiles/videos/JaDaumenrunter_f.mp4","Ist der Ball in der grünen Box?","Blue","Green","J","affirmation","mismatch","speech","yes","ThumbDown","female","gesture-speech","1440","900","firefox","60.79","Mac OS","21","male","right","Mon Aug 19 2024 15:49:46 GMT+0200 (Mitteleuropäische Sommerzeit)","3","37","1","1724076246348"
"1421","j","SpeechGestureMatch","../RequiredFiles/videos/NeinDaumenhoch_m.mp4","Ist der Ball in der grünen Box?","Blue","Green","F","negation","mismatch","speech","no","ThumbUp","male","gesture-speech","1440","900","firefox","60.79","Mac OS","21","male","right","Mon Aug 19 2024 15:49:53 GMT+0200 (Mitteleuropäische Sommerzeit)","3","38","1","1724076246348"
"1237","j","SpeechGestureMatch","../RequiredFiles/videos/JaDaumenhoch_f.mp4","Ist der Ball in der blauen Box?","Green","Blue","J","affirmation","match","speech","yes","ThumbUp","female","gesture-speech","1440","900","firefox","60.79","Mac OS","21","male","right","Mon Aug 19 2024 15:50:00 GMT+0200 (Mitteleuropäische Sommerzeit)","3","39","0","1724076246348"
"1332","j","SpeechGestureMatch","../RequiredFiles/videos/JaDaumenrunter_f.mp4","Ist der Ball in der blauen Box?","Blue","Green","F","affirmation","mismatch","speech","yes","ThumbDown","female","gesture-speech","1440","900","firefox","60.79","Mac OS","21","male","right","Mon Aug 19 2024 15:50:07 GMT+0200 (Mitteleuropäische Sommerzeit)","3","40","1","1724076246348"
"1414","j","SpeechGestureMatch","../RequiredFiles/videos/JaDaumenrunter_m.mp4","Ist der Ball in der blauen Box?","Blue","Green","F","affirmation","mismatch","speech","yes","ThumbDown","male","gesture-speech","1440","900","firefox","60.79","Mac OS","21","male","right","Mon Aug 19 2024 15:50:14 GMT+0200 (Mitteleuropäische Sommerzeit)","3","41","1","1724076246348"
"58","f","SpeechGestureMatch","../RequiredFiles/videos/JaDaumenrunter_m.mp4","Ist der Ball in der grünen Box?","Green","Blue","F","affirmation","mismatch","speech","yes","ThumbDown","male","gesture-speech","1440","900","firefox","60.79","Mac OS","21","male","right","Mon Aug 19 2024 15:50:19 GMT+0200 (Mitteleuropäische Sommerzeit)","3","42","0","1724076246348"
"1","j","SpeechGestureMatch","../RequiredFiles/videos/JaDaumenhoch_m.mp4","Ist der Ball in der blauen Box?","Green","Blue","J","affirmation","match","speech","yes","ThumbUp","male","gesture-speech","1440","900","firefox","60.79","Mac OS","21","male","right","Mon Aug 19 2024 15:50:25 GMT+0200 (Mitteleuropäische Sommerzeit)","3","43","0","1724076246348"
"88","j","SpeechGestureMatch","../RequiredFiles/videos/NeinDaumenrunter_f.mp4","Ist der Ball in der blauen Box?","Green","Blue","F","negation","match","speech","no","ThumbDown","female","gesture-speech","1440","900","firefox","60.79","Mac OS","21","male","right","Mon Aug 19 2024 15:50:30 GMT+0200 (Mitteleuropäische Sommerzeit)","3","44","1","1724076246348"
"22","j","SpeechGestureMatch","../RequiredFiles/videos/JaDaumenhoch_f.mp4","Ist der Ball in der blauen Box?","Blue","Green","F","affirmation","match","speech","yes","ThumbUp","female","gesture-speech","1440","900","firefox","60.79","Mac OS","21","male","right","Mon Aug 19 2024 15:50:36 GMT+0200 (Mitteleuropäische Sommerzeit)","3","45","1","1724076246348"
"26","f","SpeechGestureMatch","../RequiredFiles/videos/NeinDaumenrunter_m.mp4","Ist der Ball in der blauen Box?","Green","Blue","F","negation","match","speech","no","ThumbDown","male","gesture-speech","1440","900","firefox","60.79","Mac OS","21","male","right","Mon Aug 19 2024 15:50:42 GMT+0200 (Mitteleuropäische Sommerzeit)","3","46","0","1724076246348"
"147","j","SpeechGestureMatch","../RequiredFiles/videos/JaDaumenrunter_m.mp4","Ist der Ball in der blauen Box?","Green","Blue","J","affirmation","mismatch","speech","yes","ThumbDown","male","gesture-speech","1440","900","firefox","60.79","Mac OS","21","male","right","Mon Aug 19 2024 15:50:47 GMT+0200 (Mitteleuropäische Sommerzeit)","3","47","0","1724076246348"
"77","j","SpeechGestureMatch","../RequiredFiles/videos/NeinDaumenrunter_f.mp4","Ist der Ball in der grünen Box?","Green","Blue","J","negation","match","speech","no","ThumbDown","female","gesture-speech","1440","900","firefox","60.79","Mac OS","21","male","right","Mon Aug 19 2024 15:50:53 GMT+0200 (Mitteleuropäische Sommerzeit)","3","48","0","1724076246348"
"20","f","SpeechGestureMatch","../RequiredFiles/videos/JaDaumenhoch_f.mp4","Ist der Ball in der grünen Box?","Blue","Green","J","affirmation","match","speech","yes","ThumbUp","female","gesture-speech","1440","900","firefox","60.79","Mac OS","21","male","right","Mon Aug 19 2024 15:50:58 GMT+0200 (Mitteleuropäische Sommerzeit)","3","49","1","1724076246348"
"745","f","SpeechGestureMatch","../RequiredFiles/videos/NeinDaumenrunter_m.mp4","Ist der Ball in der grünen Box?","Green","Blue","J","negation","match","speech","no","ThumbDown","male","gesture-speech","1440","900","firefox","60.79","Mac OS","21","male","right","Mon Aug 19 2024 15:51:05 GMT+0200 (Mitteleuropäische Sommerzeit)","3","50","1","1724076246348"
"1890","j","SpeechGestureMatch","../RequiredFiles/videos/JaDaumenhoch_m.mp4","Ist der Ball in der grünen Box?","Green","Blue","F","affirmation","match","speech","yes","ThumbUp","male","gesture-speech","1440","900","firefox","60.79","Mac OS","21","male","right","Mon Aug 19 2024 15:51:12 GMT+0200 (Mitteleuropäische Sommerzeit)","3","51","1","1724076246348"
"1658","f","SpeechGestureMatch","../RequiredFiles/videos/NeinDaumenhoch_m.mp4","Ist der Ball in der grünen Box?","Blue","Green","F","negation","mismatch","speech","no","ThumbUp","male","gesture-speech","1440","900","firefox","60.79","Mac OS","21","male","right","Mon Aug 19 2024 15:51:19 GMT+0200 (Mitteleuropäische Sommerzeit)","3","52","0","1724076246348"
"121","j","SpeechGestureMatch","../RequiredFiles/videos/NeinDaumenhoch_f.mp4","Ist der Ball in der grünen Box?","Green","Blue","J","negation","mismatch","speech","no","ThumbUp","female","gesture-speech","1440","900","firefox","60.79","Mac OS","21","male","right","Mon Aug 19 2024 15:51:25 GMT+0200 (Mitteleuropäische Sommerzeit)","3","53","0","1724076246348"
"1989","f","SpeechGestureMatch","../RequiredFiles/videos/NeinDaumenrunter_m.mp4","Ist der Ball in der grünen Box?","Blue","Green","F","negation","match","speech","no","ThumbDown","male","gesture-speech","1440","900","firefox","60.79","Mac OS","21","male","right","Mon Aug 19 2024 15:51:33 GMT+0200 (Mitteleuropäische Sommerzeit)","3","54","0","1724076246348"
"2192","f","SpeechGestureMatch","../RequiredFiles/videos/NeinDaumenhoch_m.mp4","Ist der Ball in der blauen Box?","Blue","Green","J","negation","mismatch","speech","no","ThumbUp","male","gesture-speech","1440","900","firefox","60.79","Mac OS","21","male","right","Mon Aug 19 2024 15:51:40 GMT+0200 (Mitteleuropäische Sommerzeit)","3","55","1","1724076246348"
"1974","f","SpeechGestureMatch","../RequiredFiles/videos/JaDaumenhoch_m.mp4","Ist der Ball in der blauen Box?","Blue","Green","F","affirmation","match","speech","yes","ThumbUp","male","gesture-speech","1440","900","firefox","60.79","Mac OS","21","male","right","Mon Aug 19 2024 15:51:48 GMT+0200 (Mitteleuropäische Sommerzeit)","3","56","0","1724076246348"
"2211","f","SpeechGestureMatch","../RequiredFiles/videos/JaDaumenhoch_f.mp4","Ist der Ball in der blauen Box?","Blue","Green","F","affirmation","match","speech","yes","ThumbUp","female","gesture-speech","1440","900","firefox","60.79","Mac OS","21","male","right","Mon Aug 19 2024 15:51:56 GMT+0200 (Mitteleuropäische Sommerzeit)","3","57","0","1724076246348"
"4556","j","SpeechGestureMatch","../RequiredFiles/videos/JaDaumenrunter_m.mp4","Ist der Ball in der grünen Box?","Blue","Green","J","affirmation","mismatch","speech","yes","ThumbDown","male","gesture-speech","1440","900","firefox","60.79","Mac OS","21","male","right","Mon Aug 19 2024 15:52:06 GMT+0200 (Mitteleuropäische Sommerzeit)","3","58","0","1724076246348"
"2189","j","SpeechGestureMatch","../RequiredFiles/videos/JaDaumenhoch_f.mp4","Ist der Ball in der grünen Box?","Green","Blue","F","affirmation","match","speech","yes","ThumbUp","female","gesture-speech","1440","900","firefox","60.79","Mac OS","21","male","right","Mon Aug 19 2024 15:52:13 GMT+0200 (Mitteleuropäische Sommerzeit)","3","59","1","1724076246348"
"2875","f","SpeechGestureMatch","../RequiredFiles/videos/JaDaumenrunter_f.mp4","Ist der Ball in der grünen Box?","Blue","Green","J","affirmation","mismatch","speech","yes","ThumbDown","female","gesture-speech","1440","900","firefox","60.79","Mac OS","21","male","right","Mon Aug 19 2024 15:52:22 GMT+0200 (Mitteleuropäische Sommerzeit)","3","60","1","1724076246348"
"2925","f","SpeechGestureMatch","../RequiredFiles/videos/NeinDaumenrunter_f.mp4","Ist der Ball in der blauen Box?","Blue","Green","J","negation","match","speech","no","ThumbDown","female","gesture-speech","1440","900","firefox","60.79","Mac OS","21","male","right","Mon Aug 19 2024 15:52:30 GMT+0200 (Mitteleuropäische Sommerzeit)","3","61","1","1724076246348"
"1574","j","SpeechGestureMatch","../RequiredFiles/videos/NeinDaumenhoch_m.mp4","Ist der Ball in der blauen Box?","Blue","Green","J","negation","mismatch","speech","no","ThumbUp","male","gesture-speech","1440","900","firefox","60.79","Mac OS","21","male","right","Mon Aug 19 2024 15:52:38 GMT+0200 (Mitteleuropäische Sommerzeit)","3","62","0","1724076246348"
"1694","j","SpeechGestureMatch","../RequiredFiles/videos/NeinDaumenrunter_f.mp4","Ist der Ball in der grünen Box?","Green","Blue","J","negation","match","speech","no","ThumbDown","female","gesture-speech","1440","900","firefox","60.79","Mac OS","21","male","right","Mon Aug 19 2024 15:52:45 GMT+0200 (Mitteleuropäische Sommerzeit)","3","63","0","1724076246348"
"1759","j","SpeechGestureMatch","../RequiredFiles/videos/JaDaumenhoch_m.mp4","Ist der Ball in der grünen Box?","Green","Blue","F","affirmation","match","speech","yes","ThumbUp","male","gesture-speech","1440","900","firefox","60.79","Mac OS","21","male","right","Mon Aug 19 2024 15:52:52 GMT+0200 (Mitteleuropäische Sommerzeit)","3","64","1","1724076246348"
"2152","f","SpeechGestureMatch","../RequiredFiles/videos/NeinDaumenrunter_m.mp4","Ist der Ball in der grünen Box?","Blue","Green","F","negation","match","speech","no","ThumbDown","male","gesture-speech","1440","900","firefox","60.79","Mac OS","21","male","right","Mon Aug 19 2024 15:56:25 GMT+0200 (Mitteleuropäische Sommerzeit)","4","1","0","1724076246348"
"1736","j","SpeechGestureMatch","../RequiredFiles/videos/NeinDaumenhoch_f.mp4","Ist der Ball in der blauen Box?","Blue","Green","J","negation","mismatch","speech","no","ThumbUp","female","gesture-speech","1440","900","firefox","60.79","Mac OS","21","male","right","Mon Aug 19 2024 15:56:32 GMT+0200 (Mitteleuropäische Sommerzeit)","4","2","0","1724076246348"
"1760","j","SpeechGestureMatch","../RequiredFiles/videos/JaDaumenhoch_m.mp4","Ist der Ball in der grünen Box?","Green","Blue","F","affirmation","match","speech","yes","ThumbUp","male","gesture-speech","1440","900","firefox","60.79","Mac OS","21","male","right","Mon Aug 19 2024 15:56:39 GMT+0200 (Mitteleuropäische Sommerzeit)","4","3","1","1724076246348"
"2490","f","SpeechGestureMatch","../RequiredFiles/videos/NeinDaumenhoch_f.mp4","Ist der Ball in der grünen Box?","Green","Blue","J","negation","mismatch","speech","no","ThumbUp","female","gesture-speech","1440","900","firefox","60.79","Mac OS","21","male","right","Mon Aug 19 2024 15:56:47 GMT+0200 (Mitteleuropäische Sommerzeit)","4","4","1","1724076246348"
"1494","j","SpeechGestureMatch","../RequiredFiles/videos/JaDaumenhoch_m.mp4","Ist der Ball in der grünen Box?","Blue","Green","J","affirmation","match","speech","yes","ThumbUp","male","gesture-speech","1440","900","firefox","60.79","Mac OS","21","male","right","Mon Aug 19 2024 15:56:54 GMT+0200 (Mitteleuropäische Sommerzeit)","4","5","0","1724076246348"
"1031","j","SpeechGestureMatch","../RequiredFiles/videos/JaDaumenrunter_m.mp4","Ist der Ball in der grünen Box?","Blue","Green","J","affirmation","mismatch","speech","yes","ThumbDown","male","gesture-speech","1440","900","firefox","60.79","Mac OS","21","male","right","Mon Aug 19 2024 15:57:01 GMT+0200 (Mitteleuropäische Sommerzeit)","4","6","0","1724076246348"
"1480","f","SpeechGestureMatch","../RequiredFiles/videos/NeinDaumenrunter_f.mp4","Ist der Ball in der grünen Box?","Green","Blue","J","negation","match","speech","no","ThumbDown","female","gesture-speech","1440","900","firefox","60.79","Mac OS","21","male","right","Mon Aug 19 2024 15:57:08 GMT+0200 (Mitteleuropäische Sommerzeit)","4","7","1","1724076246348"
"1250","j","SpeechGestureMatch","../RequiredFiles/videos/JaDaumenrunter_m.mp4","Ist der Ball in der blauen Box?","Blue","Green","F","affirmation","mismatch","speech","yes","ThumbDown","male","gesture-speech","1440","900","firefox","60.79","Mac OS","21","male","right","Mon Aug 19 2024 15:57:15 GMT+0200 (Mitteleuropäische Sommerzeit)","4","8","1","1724076246348"
"1500","f","SpeechGestureMatch","../RequiredFiles/videos/JaDaumenhoch_m.mp4","Ist der Ball in der grünen Box?","Green","Blue","F","affirmation","match","speech","yes","ThumbUp","male","gesture-speech","1440","900","firefox","60.79","Mac OS","21","male","right","Mon Aug 19 2024 15:57:22 GMT+0200 (Mitteleuropäische Sommerzeit)","4","9","0","1724076246348"
"2499","j","SpeechGestureMatch","../RequiredFiles/videos/JaDaumenhoch_m.mp4","Ist der Ball in der blauen Box?","Blue","Green","F","affirmation","match","speech","yes","ThumbUp","male","gesture-speech","1440","900","firefox","60.79","Mac OS","21","male","right","Mon Aug 19 2024 15:57:30 GMT+0200 (Mitteleuropäische Sommerzeit)","4","10","1","1724076246348"
"2011","j","SpeechGestureMatch","../RequiredFiles/videos/JaDaumenhoch_f.mp4","Ist der Ball in der blauen Box?","Green","Blue","J","affirmation","match","speech","yes","ThumbUp","female","gesture-speech","1440","900","firefox","60.79","Mac OS","21","male","right","Mon Aug 19 2024 15:57:37 GMT+0200 (Mitteleuropäische Sommerzeit)","4","11","0","1724076246348"
"1596","j","SpeechGestureMatch","../RequiredFiles/videos/JaDaumenhoch_f.mp4","Ist der Ball in der grünen Box?","Blue","Green","J","affirmation","match","speech","yes","ThumbUp","female","gesture-speech","1440","900","firefox","60.79","Mac OS","21","male","right","Mon Aug 19 2024 15:57:44 GMT+0200 (Mitteleuropäische Sommerzeit)","4","12","0","1724076246348"
"1711","j","SpeechGestureMatch","../RequiredFiles/videos/JaDaumenhoch_f.mp4","Ist der Ball in der grünen Box?","Green","Blue","F","affirmation","match","speech","yes","ThumbUp","female","gesture-speech","1440","900","firefox","60.79","Mac OS","21","male","right","Mon Aug 19 2024 15:57:51 GMT+0200 (Mitteleuropäische Sommerzeit)","4","13","1","1724076246348"
"1771","f","SpeechGestureMatch","../RequiredFiles/videos/NeinDaumenhoch_f.mp4","Ist der Ball in der grünen Box?","Blue","Green","F","negation","mismatch","speech","no","ThumbUp","female","gesture-speech","1440","900","firefox","60.79","Mac OS","21","male","right","Mon Aug 19 2024 15:57:59 GMT+0200 (Mitteleuropäische Sommerzeit)","4","14","0","1724076246348"
"1442","j","SpeechGestureMatch","../RequiredFiles/videos/NeinDaumenhoch_m.mp4","Ist der Ball in der blauen Box?","Blue","Green","J","negation","mismatch","speech","no","ThumbUp","male","gesture-speech","1440","900","firefox","60.79","Mac OS","21","male","right","Mon Aug 19 2024 15:58:06 GMT+0200 (Mitteleuropäische Sommerzeit)","4","15","0","1724076246348"
"1407","j","SpeechGestureMatch","../RequiredFiles/videos/NeinDaumenhoch_f.mp4","Ist der Ball in der grünen Box?","Blue","Green","F","negation","mismatch","speech","no","ThumbUp","female","gesture-speech","1440","900","firefox","60.79","Mac OS","21","male","right","Mon Aug 19 2024 15:58:13 GMT+0200 (Mitteleuropäische Sommerzeit)","4","16","1","1724076246348"
"1117","j","SpeechGestureMatch","../RequiredFiles/videos/JaDaumenrunter_f.mp4","Ist der Ball in der blauen Box?","Green","Blue","J","affirmation","mismatch","speech","yes","ThumbDown","female","gesture-speech","1440","900","firefox","60.79","Mac OS","21","male","right","Mon Aug 19 2024 15:58:19 GMT+0200 (Mitteleuropäische Sommerzeit)","4","17","0","1724076246348"
"2240","j","SpeechGestureMatch","../RequiredFiles/videos/NeinDaumenhoch_m.mp4","Ist der Ball in der grünen Box?","Green","Blue","J","negation","mismatch","speech","no","ThumbUp","male","gesture-speech","1440","900","firefox","60.79","Mac OS","21","male","right","Mon Aug 19 2024 15:58:27 GMT+0200 (Mitteleuropäische Sommerzeit)","4","18","0","1724076246348"
"2426","j","SpeechGestureMatch","../RequiredFiles/videos/NeinDaumenrunter_m.mp4","Ist der Ball in der grünen Box?","Green","Blue","J","negation","match","speech","no","ThumbDown","male","gesture-speech","1440","900","firefox","60.79","Mac OS","21","male","right","Mon Aug 19 2024 15:58:35 GMT+0200 (Mitteleuropäische Sommerzeit)","4","19","0","1724076246348"
"1600","j","SpeechGestureMatch","../RequiredFiles/videos/JaDaumenrunter_f.mp4","Ist der Ball in der blauen Box?","Blue","Green","F","affirmation","mismatch","speech","yes","ThumbDown","female","gesture-speech","1440","900","firefox","60.79","Mac OS","21","male","right","Mon Aug 19 2024 15:58:42 GMT+0200 (Mitteleuropäische Sommerzeit)","4","20","1","1724076246348"
"1938","j","SpeechGestureMatch","../RequiredFiles/videos/JaDaumenrunter_m.mp4","Ist der Ball in der blauen Box?","Green","Blue","J","affirmation","mismatch","speech","yes","ThumbDown","male","gesture-speech","1440","900","firefox","60.79","Mac OS","21","male","right","Mon Aug 19 2024 15:58:50 GMT+0200 (Mitteleuropäische Sommerzeit)","4","21","0","1724076246348"
"1787","f","SpeechGestureMatch","../RequiredFiles/videos/NeinDaumenhoch_f.mp4","Ist der Ball in der grünen Box?","Green","Blue","J","negation","mismatch","speech","no","ThumbUp","female","gesture-speech","1440","900","firefox","60.79","Mac OS","21","male","right","Mon Aug 19 2024 15:58:57 GMT+0200 (Mitteleuropäische Sommerzeit)","4","22","1","1724076246348"
"1704","j","SpeechGestureMatch","../RequiredFiles/videos/NeinDaumenrunter_f.mp4","Ist der Ball in der grünen Box?","Blue","Green","F","negation","match","speech","no","ThumbDown","female","gesture-speech","1440","900","firefox","60.79","Mac OS","21","male","right","Mon Aug 19 2024 15:59:04 GMT+0200 (Mitteleuropäische Sommerzeit)","4","23","1","1724076246348"
"2179","f","SpeechGestureMatch","../RequiredFiles/videos/JaDaumenrunter_m.mp4","Ist der Ball in der grünen Box?","Blue","Green","J","affirmation","mismatch","speech","yes","ThumbDown","male","gesture-speech","1440","900","firefox","60.79","Mac OS","21","male","right","Mon Aug 19 2024 15:59:12 GMT+0200 (Mitteleuropäische Sommerzeit)","4","24","1","1724076246348"
"2345","j","SpeechGestureMatch","../RequiredFiles/videos/NeinDaumenrunter_f.mp4","Ist der Ball in der blauen Box?","Green","Blue","F","negation","match","speech","no","ThumbDown","female","gesture-speech","1440","900","firefox","60.79","Mac OS","21","male","right","Mon Aug 19 2024 15:59:20 GMT+0200 (Mitteleuropäische Sommerzeit)","4","25","1","1724076246348"
"1961","j","SpeechGestureMatch","../RequiredFiles/videos/NeinDaumenhoch_f.mp4","Ist der Ball in der blauen Box?","Blue","Green","J","negation","mismatch","speech","no","ThumbUp","female","gesture-speech","1440","900","firefox","60.79","Mac OS","21","male","right","Mon Aug 19 2024 15:59:27 GMT+0200 (Mitteleuropäische Sommerzeit)","4","26","0","1724076246348"
"1924","f","SpeechGestureMatch","../RequiredFiles/videos/NeinDaumenhoch_m.mp4","Ist der Ball in der grünen Box?","Blue","Green","F","negation","mismatch","speech","no","ThumbUp","male","gesture-speech","1440","900","firefox","60.79","Mac OS","21","male","right","Mon Aug 19 2024 15:59:35 GMT+0200 (Mitteleuropäische Sommerzeit)","4","27","0","1724076246348"
"1232","f","SpeechGestureMatch","../RequiredFiles/videos/JaDaumenhoch_m.mp4","Ist der Ball in der blauen Box?","Green","Blue","J","affirmation","match","speech","yes","ThumbUp","male","gesture-speech","1440","900","firefox","60.79","Mac OS","21","male","right","Mon Aug 19 2024 15:59:42 GMT+0200 (Mitteleuropäische Sommerzeit)","4","28","1","1724076246348"
"1672","j","SpeechGestureMatch","../RequiredFiles/videos/NeinDaumenhoch_m.mp4","Ist der Ball in der grünen Box?","Green","Blue","J","negation","mismatch","speech","no","ThumbUp","male","gesture-speech","1440","900","firefox","60.79","Mac OS","21","male","right","Mon Aug 19 2024 15:59:49 GMT+0200 (Mitteleuropäische Sommerzeit)","4","29","0","1724076246348"
"876","f","SpeechGestureMatch","../RequiredFiles/videos/NeinDaumenhoch_m.mp4","Ist der Ball in der blauen Box?","Green","Blue","F","negation","mismatch","speech","no","ThumbUp","male","gesture-speech","1440","900","firefox","60.79","Mac OS","21","male","right","Mon Aug 19 2024 15:59:55 GMT+0200 (Mitteleuropäische Sommerzeit)","4","30","0","1724076246348"
"1762","f","SpeechGestureMatch","../RequiredFiles/videos/JaDaumenrunter_f.mp4","Ist der Ball in der grünen Box?","Blue","Green","J","affirmation","mismatch","speech","yes","ThumbDown","female","gesture-speech","1440","900","firefox","60.79","Mac OS","21","male","right","Mon Aug 19 2024 16:00:03 GMT+0200 (Mitteleuropäische Sommerzeit)","4","31","1","1724076246348"
"1795","j","SpeechGestureMatch","../RequiredFiles/videos/JaDaumenrunter_f.mp4","Ist der Ball in der blauen Box?","Blue","Green","F","affirmation","mismatch","speech","yes","ThumbDown","female","gesture-speech","1440","900","firefox","60.79","Mac OS","21","male","right","Mon Aug 19 2024 16:00:10 GMT+0200 (Mitteleuropäische Sommerzeit)","4","32","1","1724076246348"
"1454","f","SpeechGestureMatch","../RequiredFiles/videos/NeinDaumenrunter_f.mp4","Ist der Ball in der grünen Box?","Blue","Green","F","negation","match","speech","no","ThumbDown","female","gesture-speech","1440","900","firefox","60.79","Mac OS","21","male","right","Mon Aug 19 2024 16:00:17 GMT+0200 (Mitteleuropäische Sommerzeit)","4","33","0","1724076246348"
"1385","f","SpeechGestureMatch","../RequiredFiles/videos/JaDaumenhoch_f.mp4","Ist der Ball in der blauen Box?","Green","Blue","J","affirmation","match","speech","yes","ThumbUp","female","gesture-speech","1440","900","firefox","60.79","Mac OS","21","male","right","Mon Aug 19 2024 16:00:24 GMT+0200 (Mitteleuropäische Sommerzeit)","4","34","1","1724076246348"
"1548","f","SpeechGestureMatch","../RequiredFiles/videos/NeinDaumenrunter_m.mp4","Ist der Ball in der grünen Box?","Green","Blue","J","negation","match","speech","no","ThumbDown","male","gesture-speech","1440","900","firefox","60.79","Mac OS","21","male","right","Mon Aug 19 2024 16:00:31 GMT+0200 (Mitteleuropäische Sommerzeit)","4","35","1","1724076246348"
"153","j","SpeechGestureMatch","../RequiredFiles/videos/JaDaumenhoch_f.mp4","Ist der Ball in der blauen Box?","Blue","Green","F","affirmation","match","speech","yes","ThumbUp","female","gesture-speech","1440","900","firefox","60.79","Mac OS","21","male","right","Mon Aug 19 2024 16:00:37 GMT+0200 (Mitteleuropäische Sommerzeit)","4","36","1","1724076246348"
"1626","f","SpeechGestureMatch","../RequiredFiles/videos/NeinDaumenrunter_m.mp4","Ist der Ball in der blauen Box?","Green","Blue","F","negation","match","speech","no","ThumbDown","male","gesture-speech","1440","900","firefox","60.79","Mac OS","21","male","right","Mon Aug 19 2024 16:00:44 GMT+0200 (Mitteleuropäische Sommerzeit)","4","37","0","1724076246348"
"1344","f","SpeechGestureMatch","../RequiredFiles/videos/JaDaumenrunter_f.mp4","Ist der Ball in der blauen Box?","Green","Blue","J","affirmation","mismatch","speech","yes","ThumbDown","female","gesture-speech","1440","900","firefox","60.79","Mac OS","21","male","right","Mon Aug 19 2024 16:00:51 GMT+0200 (Mitteleuropäische Sommerzeit)","4","38","1","1724076246348"
"1265","j","SpeechGestureMatch","../RequiredFiles/videos/JaDaumenhoch_m.mp4","Ist der Ball in der blauen Box?","Blue","Green","F","affirmation","match","speech","yes","ThumbUp","male","gesture-speech","1440","900","firefox","60.79","Mac OS","21","male","right","Mon Aug 19 2024 16:00:58 GMT+0200 (Mitteleuropäische Sommerzeit)","4","39","1","1724076246348"
"2417","f","SpeechGestureMatch","../RequiredFiles/videos/JaDaumenhoch_f.mp4","Ist der Ball in der grünen Box?","Blue","Green","J","affirmation","match","speech","yes","ThumbUp","female","gesture-speech","1440","900","firefox","60.79","Mac OS","21","male","right","Mon Aug 19 2024 16:01:06 GMT+0200 (Mitteleuropäische Sommerzeit)","4","40","1","1724076246348"
"1287","j","SpeechGestureMatch","../RequiredFiles/videos/JaDaumenhoch_m.mp4","Ist der Ball in der blauen Box?","Green","Blue","J","affirmation","match","speech","yes","ThumbUp","male","gesture-speech","1440","900","firefox","60.79","Mac OS","21","male","right","Mon Aug 19 2024 16:01:13 GMT+0200 (Mitteleuropäische Sommerzeit)","4","41","0","1724076246348"
"1990","j","SpeechGestureMatch","../RequiredFiles/videos/NeinDaumenrunter_m.mp4","Ist der Ball in der blauen Box?","Blue","Green","J","negation","match","speech","no","ThumbDown","male","gesture-speech","1440","900","firefox","60.79","Mac OS","21","male","right","Mon Aug 19 2024 16:01:20 GMT+0200 (Mitteleuropäische Sommerzeit)","4","42","0","1724076246348"
"2506","f","SpeechGestureMatch","../RequiredFiles/videos/NeinDaumenrunter_f.mp4","Ist der Ball in der blauen Box?","Green","Blue","F","negation","match","speech","no","ThumbDown","female","gesture-speech","1440","900","firefox","60.79","Mac OS","21","male","right","Mon Aug 19 2024 16:01:28 GMT+0200 (Mitteleuropäische Sommerzeit)","4","43","0","1724076246348"
"2915","j","SpeechGestureMatch","../RequiredFiles/videos/NeinDaumenhoch_f.mp4","Ist der Ball in der blauen Box?","Green","Blue","F","negation","mismatch","speech","no","ThumbUp","female","gesture-speech","1440","900","firefox","60.79","Mac OS","21","male","right","Mon Aug 19 2024 16:01:37 GMT+0200 (Mitteleuropäische Sommerzeit)","4","44","1","1724076246348"
"1408","f","SpeechGestureMatch","../RequiredFiles/videos/JaDaumenrunter_m.mp4","Ist der Ball in der blauen Box?","Blue","Green","F","affirmation","mismatch","speech","yes","ThumbDown","male","gesture-speech","1440","900","firefox","60.79","Mac OS","21","male","right","Mon Aug 19 2024 16:01:44 GMT+0200 (Mitteleuropäische Sommerzeit)","4","45","0","1724076246348"
"1360","f","SpeechGestureMatch","../RequiredFiles/videos/NeinDaumenrunter_m.mp4","Ist der Ball in der grünen Box?","Blue","Green","F","negation","match","speech","no","ThumbDown","male","gesture-speech","1440","900","firefox","60.79","Mac OS","21","male","right","Mon Aug 19 2024 16:01:51 GMT+0200 (Mitteleuropäische Sommerzeit)","4","46","0","1724076246348"
"1717","j","SpeechGestureMatch","../RequiredFiles/videos/NeinDaumenrunter_m.mp4","Ist der Ball in der blauen Box?","Green","Blue","F","negation","match","speech","no","ThumbDown","male","gesture-speech","1440","900","firefox","60.79","Mac OS","21","male","right","Mon Aug 19 2024 16:01:58 GMT+0200 (Mitteleuropäische Sommerzeit)","4","47","1","1724076246348"
"1313","f","SpeechGestureMatch","../RequiredFiles/videos/JaDaumenhoch_f.mp4","Ist der Ball in der grünen Box?","Green","Blue","F","affirmation","match","speech","yes","ThumbUp","female","gesture-speech","1440","900","firefox","60.79","Mac OS","21","male","right","Mon Aug 19 2024 16:02:05 GMT+0200 (Mitteleuropäische Sommerzeit)","4","48","0","1724076246348"
"1668","f","SpeechGestureMatch","../RequiredFiles/videos/JaDaumenhoch_m.mp4","Ist der Ball in der grünen Box?","Blue","Green","J","affirmation","match","speech","yes","ThumbUp","male","gesture-speech","1440","900","firefox","60.79","Mac OS","21","male","right","Mon Aug 19 2024 16:02:12 GMT+0200 (Mitteleuropäische Sommerzeit)","4","49","1","1724076246348"
"1457","j","SpeechGestureMatch","../RequiredFiles/videos/NeinDaumenhoch_m.mp4","Ist der Ball in der grünen Box?","Blue","Green","F","negation","mismatch","speech","no","ThumbUp","male","gesture-speech","1440","900","firefox","60.79","Mac OS","21","male","right","Mon Aug 19 2024 16:02:19 GMT+0200 (Mitteleuropäische Sommerzeit)","4","50","1","1724076246348"
"1440","f","SpeechGestureMatch","../RequiredFiles/videos/NeinDaumenrunter_m.mp4","Ist der Ball in der blauen Box?","Blue","Green","J","negation","match","speech","no","ThumbDown","male","gesture-speech","1440","900","firefox","60.79","Mac OS","21","male","right","Mon Aug 19 2024 16:02:26 GMT+0200 (Mitteleuropäische Sommerzeit)","4","51","1","1724076246348"
"1814","j","SpeechGestureMatch","../RequiredFiles/videos/NeinDaumenrunter_f.mp4","Ist der Ball in der blauen Box?","Blue","Green","J","negation","match","speech","no","ThumbDown","female","gesture-speech","1440","900","firefox","60.79","Mac OS","21","male","right","Mon Aug 19 2024 16:02:33 GMT+0200 (Mitteleuropäische Sommerzeit)","4","52","0","1724076246348"
"1100","f","SpeechGestureMatch","../RequiredFiles/videos/NeinDaumenhoch_f.mp4","Ist der Ball in der blauen Box?","Green","Blue","F","negation","mismatch","speech","no","ThumbUp","female","gesture-speech","1440","900","firefox","60.79","Mac OS","21","male","right","Mon Aug 19 2024 16:02:40 GMT+0200 (Mitteleuropäische Sommerzeit)","4","53","0","1724076246348"
"1317","f","SpeechGestureMatch","../RequiredFiles/videos/JaDaumenrunter_m.mp4","Ist der Ball in der grünen Box?","Green","Blue","F","affirmation","mismatch","speech","yes","ThumbDown","male","gesture-speech","1440","900","firefox","60.79","Mac OS","21","male","right","Mon Aug 19 2024 16:02:47 GMT+0200 (Mitteleuropäische Sommerzeit)","4","54","0","1724076246348"
"1407","f","SpeechGestureMatch","../RequiredFiles/videos/NeinDaumenhoch_m.mp4","Ist der Ball in der blauen Box?","Blue","Green","J","negation","mismatch","speech","no","ThumbUp","male","gesture-speech","1440","900","firefox","60.79","Mac OS","21","male","right","Mon Aug 19 2024 16:02:54 GMT+0200 (Mitteleuropäische Sommerzeit)","4","55","1","1724076246348"
"1488","f","SpeechGestureMatch","../RequiredFiles/videos/JaDaumenhoch_f.mp4","Ist der Ball in der blauen Box?","Blue","Green","F","affirmation","match","speech","yes","ThumbUp","female","gesture-speech","1440","900","firefox","60.79","Mac OS","21","male","right","Mon Aug 19 2024 16:03:01 GMT+0200 (Mitteleuropäische Sommerzeit)","4","56","0","1724076246348"
"1900","f","SpeechGestureMatch","../RequiredFiles/videos/JaDaumenrunter_f.mp4","Ist der Ball in der grünen Box?","Blue","Green","J","affirmation","mismatch","speech","yes","ThumbDown","female","gesture-speech","1440","900","firefox","60.79","Mac OS","21","male","right","Mon Aug 19 2024 16:03:08 GMT+0200 (Mitteleuropäische Sommerzeit)","4","57","1","1724076246348"
"1523","f","SpeechGestureMatch","../RequiredFiles/videos/JaDaumenrunter_f.mp4","Ist der Ball in der grünen Box?","Green","Blue","F","affirmation","mismatch","speech","yes","ThumbDown","female","gesture-speech","1440","900","firefox","60.79","Mac OS","21","male","right","Mon Aug 19 2024 16:03:16 GMT+0200 (Mitteleuropäische Sommerzeit)","4","58","0","1724076246348"
"1288","f","SpeechGestureMatch","../RequiredFiles/videos/NeinDaumenrunter_f.mp4","Ist der Ball in der grünen Box?","Green","Blue","J","negation","match","speech","no","ThumbDown","female","gesture-speech","1440","900","firefox","60.79","Mac OS","21","male","right","Mon Aug 19 2024 16:03:22 GMT+0200 (Mitteleuropäische Sommerzeit)","4","59","1","1724076246348"
"1182","f","SpeechGestureMatch","../RequiredFiles/videos/JaDaumenrunter_f.mp4","Ist der Ball in der grünen Box?","Green","Blue","F","affirmation","mismatch","speech","yes","ThumbDown","female","gesture-speech","1440","900","firefox","60.79","Mac OS","21","male","right","Mon Aug 19 2024 16:03:29 GMT+0200 (Mitteleuropäische Sommerzeit)","4","60","0","1724076246348"
"1972","f","SpeechGestureMatch","../RequiredFiles/videos/NeinDaumenrunter_f.mp4","Ist der Ball in der blauen Box?","Blue","Green","J","negation","match","speech","no","ThumbDown","female","gesture-speech","1440","900","firefox","60.79","Mac OS","21","male","right","Mon Aug 19 2024 16:03:37 GMT+0200 (Mitteleuropäische Sommerzeit)","4","61","1","1724076246348"
"1444","j","SpeechGestureMatch","../RequiredFiles/videos/NeinDaumenhoch_m.mp4","Ist der Ball in der blauen Box?","Green","Blue","F","negation","mismatch","speech","no","ThumbUp","male","gesture-speech","1440","900","firefox","60.79","Mac OS","21","male","right","Mon Aug 19 2024 16:03:44 GMT+0200 (Mitteleuropäische Sommerzeit)","4","62","1","1724076246348"
"1819","f","SpeechGestureMatch","../RequiredFiles/videos/JaDaumenrunter_m.mp4","Ist der Ball in der grünen Box?","Green","Blue","F","affirmation","mismatch","speech","yes","ThumbDown","male","gesture-speech","1440","900","firefox","60.79","Mac OS","21","male","right","Mon Aug 19 2024 16:03:51 GMT+0200 (Mitteleuropäische Sommerzeit)","4","63","0","1724076246348"
"2072","f","SpeechGestureMatch","../RequiredFiles/videos/JaDaumenrunter_m.mp4","Ist der Ball in der blauen Box?","Green","Blue","J","affirmation","mismatch","speech","yes","ThumbDown","male","gesture-speech","1440","900","firefox","60.79","Mac OS","21","male","right","Mon Aug 19 2024 16:03:59 GMT+0200 (Mitteleuropäische Sommerzeit)","4","64","1","1724076246348"
