"rt","response","stim","video","question","box_colour_left","box_colour_right","correct_key","polarity","matching","modality","verbal","gesture","speaker","order","width","height","browser","vsync_rate","os","age","gender","handedness","date","blockNum","trialNum","error","vpNum"
"1228","f","SpeechGestureMatch","../RequiredFiles/videos/JaKopfJa_m_no_sound.mp4","Ist der Ball in der grünen Box?","Green","Blue","F","affirmation","na","gesture","na","HeadNod","male","gesture-speech","1440","900","chrome","59.78","Mac OS","20","female","right","Thu Oct 17 2024 10:12:44 GMT+0200 (Mitteleuropäische Sommerzeit)","1","1","0","1729155398197"
"882","f","SpeechGestureMatch","../RequiredFiles/videos/NeinKopfJa_m.mp4","Ist der Ball in der grünen Box?","Green","Blue","F","affirmation","mismatch","gesture","no","HeadNod","male","gesture-speech","1440","900","chrome","59.78","Mac OS","20","female","right","Thu Oct 17 2024 10:12:51 GMT+0200 (Mitteleuropäische Sommerzeit)","1","2","0","1729155398197"
"654","f","SpeechGestureMatch","../RequiredFiles/videos/JaKopfNein_m_no_sound.mp4","Ist der Ball in der grünen Box?","Blue","Green","F","negation","na","gesture","na","HeadShake","male","gesture-speech","1440","900","chrome","59.78","Mac OS","20","female","right","Thu Oct 17 2024 10:12:57 GMT+0200 (Mitteleuropäische Sommerzeit)","1","3","0","1729155398197"
"672","f","SpeechGestureMatch","../RequiredFiles/videos/NeinKopfNein_m.mp4","Ist der Ball in der grünen Box?","Blue","Green","F","negation","match","gesture","no","HeadShake","male","gesture-speech","1440","900","chrome","59.78","Mac OS","20","female","right","Thu Oct 17 2024 10:13:03 GMT+0200 (Mitteleuropäische Sommerzeit)","1","4","0","1729155398197"
"696","j","SpeechGestureMatch","../RequiredFiles/videos/JaKopfJa_m.mp4","Ist der Ball in der grünen Box?","Blue","Green","J","affirmation","match","gesture","yes","HeadNod","male","gesture-speech","1440","900","chrome","59.78","Mac OS","20","female","right","Thu Oct 17 2024 10:13:09 GMT+0200 (Mitteleuropäische Sommerzeit)","1","5","0","1729155398197"
"1124","j","SpeechGestureMatch","../RequiredFiles/videos/NeinKopfNein_f_no_sound.mp4","Ist der Ball in der grünen Box?","Green","Blue","J","negation","na","gesture","na","HeadShake","female","gesture-speech","1440","900","chrome","59.78","Mac OS","20","female","right","Thu Oct 17 2024 10:13:16 GMT+0200 (Mitteleuropäische Sommerzeit)","1","6","0","1729155398197"
"889","j","SpeechGestureMatch","../RequiredFiles/videos/JaKopfJa_f.mp4","Ist der Ball in der blauen Box?","Green","Blue","J","affirmation","match","gesture","yes","HeadNod","female","gesture-speech","1440","900","chrome","59.78","Mac OS","20","female","right","Thu Oct 17 2024 10:13:22 GMT+0200 (Mitteleuropäische Sommerzeit)","1","7","0","1729155398197"
"749","j","SpeechGestureMatch","../RequiredFiles/videos/JaKopfJa_f.mp4","Ist der Ball in der blauen Box?","Green","Blue","J","affirmation","match","gesture","yes","HeadNod","female","gesture-speech","1440","900","chrome","59.78","Mac OS","20","female","right","Thu Oct 17 2024 10:13:29 GMT+0200 (Mitteleuropäische Sommerzeit)","1","8","0","1729155398197"
"569","f","SpeechGestureMatch","../RequiredFiles/videos/NeinKopfJa_f_no_sound.mp4","Ist der Ball in der blauen Box?","Blue","Green","F","affirmation","na","gesture","na","HeadNod","female","gesture-speech","1440","900","chrome","59.78","Mac OS","20","female","right","Thu Oct 17 2024 10:13:35 GMT+0200 (Mitteleuropäische Sommerzeit)","1","9","0","1729155398197"
"1050","j","SpeechGestureMatch","../RequiredFiles/videos/NeinKopfNein_f.mp4","Ist der Ball in der grünen Box?","Green","Blue","J","negation","match","gesture","no","HeadShake","female","gesture-speech","1440","900","chrome","59.78","Mac OS","20","female","right","Thu Oct 17 2024 10:13:41 GMT+0200 (Mitteleuropäische Sommerzeit)","1","10","0","1729155398197"
"775","f","SpeechGestureMatch","../RequiredFiles/videos/NeinKopfNein_m_no_sound.mp4","Ist der Ball in der grünen Box?","Blue","Green","F","negation","na","gesture","na","HeadShake","male","gesture-speech","1440","900","chrome","59.78","Mac OS","20","female","right","Thu Oct 17 2024 10:13:48 GMT+0200 (Mitteleuropäische Sommerzeit)","1","11","0","1729155398197"
"877","j","SpeechGestureMatch","../RequiredFiles/videos/JaKopfNein_m.mp4","Ist der Ball in der grünen Box?","Green","Blue","J","negation","mismatch","gesture","yes","HeadShake","male","gesture-speech","1440","900","chrome","59.78","Mac OS","20","female","right","Thu Oct 17 2024 10:13:54 GMT+0200 (Mitteleuropäische Sommerzeit)","1","12","0","1729155398197"
"703","j","SpeechGestureMatch","../RequiredFiles/videos/JaKopfJa_f.mp4","Ist der Ball in der grünen Box?","Blue","Green","J","affirmation","match","gesture","yes","HeadNod","female","gesture-speech","1440","900","chrome","59.78","Mac OS","20","female","right","Thu Oct 17 2024 10:14:00 GMT+0200 (Mitteleuropäische Sommerzeit)","1","13","0","1729155398197"
"911","f","SpeechGestureMatch","../RequiredFiles/videos/NeinKopfNein_f_no_sound.mp4","Ist der Ball in der blauen Box?","Green","Blue","F","negation","na","gesture","na","HeadShake","female","gesture-speech","1440","900","chrome","59.78","Mac OS","20","female","right","Thu Oct 17 2024 10:14:07 GMT+0200 (Mitteleuropäische Sommerzeit)","1","14","0","1729155398197"
"1005","j","SpeechGestureMatch","../RequiredFiles/videos/NeinKopfJa_f.mp4","Ist der Ball in der grünen Box?","Green","Blue","F","affirmation","mismatch","gesture","no","HeadNod","female","gesture-speech","1440","900","chrome","59.78","Mac OS","20","female","right","Thu Oct 17 2024 10:14:13 GMT+0200 (Mitteleuropäische Sommerzeit)","1","15","1","1729155398197"
"858","f","SpeechGestureMatch","../RequiredFiles/videos/JaKopfJa_m.mp4","Ist der Ball in der grünen Box?","Green","Blue","F","affirmation","match","gesture","yes","HeadNod","male","gesture-speech","1440","900","chrome","59.78","Mac OS","20","female","right","Thu Oct 17 2024 10:14:20 GMT+0200 (Mitteleuropäische Sommerzeit)","1","16","0","1729155398197"
"599","j","SpeechGestureMatch","../RequiredFiles/videos/JaKopfJa_m_no_sound.mp4","Ist der Ball in der blauen Box?","Green","Blue","J","affirmation","na","gesture","na","HeadNod","male","gesture-speech","1440","900","chrome","59.78","Mac OS","20","female","right","Thu Oct 17 2024 10:14:26 GMT+0200 (Mitteleuropäische Sommerzeit)","1","17","0","1729155398197"
"873","j","SpeechGestureMatch","../RequiredFiles/videos/NeinKopfJa_m.mp4","Ist der Ball in der grünen Box?","Blue","Green","J","affirmation","mismatch","gesture","no","HeadNod","male","gesture-speech","1440","900","chrome","59.78","Mac OS","20","female","right","Thu Oct 17 2024 10:14:32 GMT+0200 (Mitteleuropäische Sommerzeit)","1","18","0","1729155398197"
"985","f","SpeechGestureMatch","../RequiredFiles/videos/JaKopfNein_f_no_sound.mp4","Ist der Ball in der blauen Box?","Green","Blue","F","negation","na","gesture","na","HeadShake","female","gesture-speech","1440","900","chrome","59.78","Mac OS","20","female","right","Thu Oct 17 2024 10:14:39 GMT+0200 (Mitteleuropäische Sommerzeit)","1","19","0","1729155398197"
"888","j","SpeechGestureMatch","../RequiredFiles/videos/JaKopfJa_f_no_sound.mp4","Ist der Ball in der blauen Box?","Green","Blue","J","affirmation","na","gesture","na","HeadNod","female","gesture-speech","1440","900","chrome","59.78","Mac OS","20","female","right","Thu Oct 17 2024 10:14:45 GMT+0200 (Mitteleuropäische Sommerzeit)","1","20","0","1729155398197"
"809","f","SpeechGestureMatch","../RequiredFiles/videos/NeinKopfNein_f_no_sound.mp4","Ist der Ball in der grünen Box?","Blue","Green","F","negation","na","gesture","na","HeadShake","female","gesture-speech","1440","900","chrome","59.78","Mac OS","20","female","right","Thu Oct 17 2024 10:14:51 GMT+0200 (Mitteleuropäische Sommerzeit)","1","21","0","1729155398197"
"656","j","SpeechGestureMatch","../RequiredFiles/videos/JaKopfNein_f_no_sound.mp4","Ist der Ball in der grünen Box?","Green","Blue","J","negation","na","gesture","na","HeadShake","female","gesture-speech","1440","900","chrome","59.78","Mac OS","20","female","right","Thu Oct 17 2024 10:14:57 GMT+0200 (Mitteleuropäische Sommerzeit)","1","22","0","1729155398197"
"670","j","SpeechGestureMatch","../RequiredFiles/videos/JaKopfJa_m.mp4","Ist der Ball in der blauen Box?","Green","Blue","J","affirmation","match","gesture","yes","HeadNod","male","gesture-speech","1440","900","chrome","59.78","Mac OS","20","female","right","Thu Oct 17 2024 10:15:04 GMT+0200 (Mitteleuropäische Sommerzeit)","1","23","0","1729155398197"
"923","f","SpeechGestureMatch","../RequiredFiles/videos/JaKopfNein_f.mp4","Ist der Ball in der grünen Box?","Blue","Green","F","negation","mismatch","gesture","yes","HeadShake","female","gesture-speech","1440","900","chrome","59.78","Mac OS","20","female","right","Thu Oct 17 2024 10:15:10 GMT+0200 (Mitteleuropäische Sommerzeit)","1","24","0","1729155398197"
"848","f","SpeechGestureMatch","../RequiredFiles/videos/NeinKopfJa_m.mp4","Ist der Ball in der blauen Box?","Blue","Green","F","affirmation","mismatch","gesture","no","HeadNod","male","gesture-speech","1440","900","chrome","59.78","Mac OS","20","female","right","Thu Oct 17 2024 10:15:16 GMT+0200 (Mitteleuropäische Sommerzeit)","1","25","0","1729155398197"
"874","j","SpeechGestureMatch","../RequiredFiles/videos/NeinKopfNein_f_no_sound.mp4","Ist der Ball in der blauen Box?","Blue","Green","J","negation","na","gesture","na","HeadShake","female","gesture-speech","1440","900","chrome","59.78","Mac OS","20","female","right","Thu Oct 17 2024 10:15:23 GMT+0200 (Mitteleuropäische Sommerzeit)","1","26","0","1729155398197"
"788","f","SpeechGestureMatch","../RequiredFiles/videos/NeinKopfJa_f.mp4","Ist der Ball in der blauen Box?","Blue","Green","F","affirmation","mismatch","gesture","no","HeadNod","female","gesture-speech","1440","900","chrome","59.78","Mac OS","20","female","right","Thu Oct 17 2024 10:15:29 GMT+0200 (Mitteleuropäische Sommerzeit)","1","27","0","1729155398197"
"879","f","SpeechGestureMatch","../RequiredFiles/videos/NeinKopfNein_m.mp4","Ist der Ball in der blauen Box?","Green","Blue","F","negation","match","gesture","no","HeadShake","male","gesture-speech","1440","900","chrome","59.78","Mac OS","20","female","right","Thu Oct 17 2024 10:15:36 GMT+0200 (Mitteleuropäische Sommerzeit)","1","28","0","1729155398197"
"900","f","SpeechGestureMatch","../RequiredFiles/videos/NeinKopfNein_f.mp4","Ist der Ball in der blauen Box?","Green","Blue","F","negation","match","gesture","no","HeadShake","female","gesture-speech","1440","900","chrome","59.78","Mac OS","20","female","right","Thu Oct 17 2024 10:15:42 GMT+0200 (Mitteleuropäische Sommerzeit)","1","29","0","1729155398197"
"704","j","SpeechGestureMatch","../RequiredFiles/videos/NeinKopfNein_m.mp4","Ist der Ball in der blauen Box?","Blue","Green","J","negation","match","gesture","no","HeadShake","male","gesture-speech","1440","900","chrome","59.78","Mac OS","20","female","right","Thu Oct 17 2024 10:15:48 GMT+0200 (Mitteleuropäische Sommerzeit)","1","30","0","1729155398197"
"796","f","SpeechGestureMatch","../RequiredFiles/videos/JaKopfNein_m.mp4","Ist der Ball in der blauen Box?","Green","Blue","F","negation","mismatch","gesture","yes","HeadShake","male","gesture-speech","1440","900","chrome","59.78","Mac OS","20","female","right","Thu Oct 17 2024 10:15:54 GMT+0200 (Mitteleuropäische Sommerzeit)","1","31","0","1729155398197"
"778","j","SpeechGestureMatch","../RequiredFiles/videos/JaKopfNein_m.mp4","Ist der Ball in der grünen Box?","Green","Blue","J","negation","mismatch","gesture","yes","HeadShake","male","gesture-speech","1440","900","chrome","59.78","Mac OS","20","female","right","Thu Oct 17 2024 10:16:01 GMT+0200 (Mitteleuropäische Sommerzeit)","1","32","0","1729155398197"
"835","j","SpeechGestureMatch","../RequiredFiles/videos/NeinKopfJa_m.mp4","Ist der Ball in der blauen Box?","Green","Blue","J","affirmation","mismatch","gesture","no","HeadNod","male","gesture-speech","1440","900","chrome","59.78","Mac OS","20","female","right","Thu Oct 17 2024 10:16:07 GMT+0200 (Mitteleuropäische Sommerzeit)","1","33","0","1729155398197"
"748","j","SpeechGestureMatch","../RequiredFiles/videos/NeinKopfJa_f.mp4","Ist der Ball in der grünen Box?","Blue","Green","J","affirmation","mismatch","gesture","no","HeadNod","female","gesture-speech","1440","900","chrome","59.78","Mac OS","20","female","right","Thu Oct 17 2024 10:16:13 GMT+0200 (Mitteleuropäische Sommerzeit)","1","34","0","1729155398197"
"708","j","SpeechGestureMatch","../RequiredFiles/videos/NeinKopfJa_f_no_sound.mp4","Ist der Ball in der grünen Box?","Blue","Green","J","affirmation","na","gesture","na","HeadNod","female","gesture-speech","1440","900","chrome","59.78","Mac OS","20","female","right","Thu Oct 17 2024 10:16:20 GMT+0200 (Mitteleuropäische Sommerzeit)","1","35","0","1729155398197"
"663","f","SpeechGestureMatch","../RequiredFiles/videos/NeinKopfJa_m.mp4","Ist der Ball in der blauen Box?","Blue","Green","F","affirmation","mismatch","gesture","no","HeadNod","male","gesture-speech","1440","900","chrome","59.78","Mac OS","20","female","right","Thu Oct 17 2024 10:16:26 GMT+0200 (Mitteleuropäische Sommerzeit)","1","36","0","1729155398197"
"884","f","SpeechGestureMatch","../RequiredFiles/videos/JaKopfNein_m.mp4","Ist der Ball in der blauen Box?","Green","Blue","F","negation","mismatch","gesture","yes","HeadShake","male","gesture-speech","1440","900","chrome","59.78","Mac OS","20","female","right","Thu Oct 17 2024 10:16:32 GMT+0200 (Mitteleuropäische Sommerzeit)","1","37","0","1729155398197"
"734","j","SpeechGestureMatch","../RequiredFiles/videos/JaKopfNein_m_no_sound.mp4","Ist der Ball in der blauen Box?","Blue","Green","J","negation","na","gesture","na","HeadShake","male","gesture-speech","1440","900","chrome","59.78","Mac OS","20","female","right","Thu Oct 17 2024 10:16:38 GMT+0200 (Mitteleuropäische Sommerzeit)","1","38","0","1729155398197"
"705","j","SpeechGestureMatch","../RequiredFiles/videos/JaKopfJa_m.mp4","Ist der Ball in der blauen Box?","Green","Blue","J","affirmation","match","gesture","yes","HeadNod","male","gesture-speech","1440","900","chrome","59.78","Mac OS","20","female","right","Thu Oct 17 2024 10:16:45 GMT+0200 (Mitteleuropäische Sommerzeit)","1","39","0","1729155398197"
"657","j","SpeechGestureMatch","../RequiredFiles/videos/JaKopfJa_f_no_sound.mp4","Ist der Ball in der grünen Box?","Blue","Green","J","affirmation","na","gesture","na","HeadNod","female","gesture-speech","1440","900","chrome","59.78","Mac OS","20","female","right","Thu Oct 17 2024 10:16:51 GMT+0200 (Mitteleuropäische Sommerzeit)","1","40","0","1729155398197"
"779","f","SpeechGestureMatch","../RequiredFiles/videos/JaKopfNein_m.mp4","Ist der Ball in der grünen Box?","Blue","Green","F","negation","mismatch","gesture","yes","HeadShake","male","gesture-speech","1440","900","chrome","59.78","Mac OS","20","female","right","Thu Oct 17 2024 10:16:57 GMT+0200 (Mitteleuropäische Sommerzeit)","1","41","0","1729155398197"
"760","j","SpeechGestureMatch","../RequiredFiles/videos/JaKopfNein_f_no_sound.mp4","Ist der Ball in der blauen Box?","Blue","Green","J","negation","na","gesture","na","HeadShake","female","gesture-speech","1440","900","chrome","59.78","Mac OS","20","female","right","Thu Oct 17 2024 10:17:03 GMT+0200 (Mitteleuropäische Sommerzeit)","1","42","0","1729155398197"
"733","j","SpeechGestureMatch","../RequiredFiles/videos/NeinKopfNein_m_no_sound.mp4","Ist der Ball in der grünen Box?","Green","Blue","J","negation","na","gesture","na","HeadShake","male","gesture-speech","1440","900","chrome","59.78","Mac OS","20","female","right","Thu Oct 17 2024 10:17:10 GMT+0200 (Mitteleuropäische Sommerzeit)","1","43","0","1729155398197"
"809","j","SpeechGestureMatch","../RequiredFiles/videos/JaKopfJa_m.mp4","Ist der Ball in der grünen Box?","Blue","Green","J","affirmation","match","gesture","yes","HeadNod","male","gesture-speech","1440","900","chrome","59.78","Mac OS","20","female","right","Thu Oct 17 2024 10:17:16 GMT+0200 (Mitteleuropäische Sommerzeit)","1","44","0","1729155398197"
"657","j","SpeechGestureMatch","../RequiredFiles/videos/NeinKopfJa_f_no_sound.mp4","Ist der Ball in der blauen Box?","Green","Blue","J","affirmation","na","gesture","na","HeadNod","female","gesture-speech","1440","900","chrome","59.78","Mac OS","20","female","right","Thu Oct 17 2024 10:17:22 GMT+0200 (Mitteleuropäische Sommerzeit)","1","45","0","1729155398197"
"760","f","SpeechGestureMatch","../RequiredFiles/videos/JaKopfJa_f.mp4","Ist der Ball in der grünen Box?","Green","Blue","F","affirmation","match","gesture","yes","HeadNod","female","gesture-speech","1440","900","chrome","59.78","Mac OS","20","female","right","Thu Oct 17 2024 10:17:28 GMT+0200 (Mitteleuropäische Sommerzeit)","1","46","0","1729155398197"
"736","f","SpeechGestureMatch","../RequiredFiles/videos/JaKopfNein_f.mp4","Ist der Ball in der grünen Box?","Blue","Green","F","negation","mismatch","gesture","yes","HeadShake","female","gesture-speech","1440","900","chrome","59.78","Mac OS","20","female","right","Thu Oct 17 2024 10:17:35 GMT+0200 (Mitteleuropäische Sommerzeit)","1","47","0","1729155398197"
"684","j","SpeechGestureMatch","../RequiredFiles/videos/JaKopfJa_f.mp4","Ist der Ball in der grünen Box?","Blue","Green","J","affirmation","match","gesture","yes","HeadNod","female","gesture-speech","1440","900","chrome","59.78","Mac OS","20","female","right","Thu Oct 17 2024 10:17:41 GMT+0200 (Mitteleuropäische Sommerzeit)","1","48","0","1729155398197"
"770","j","SpeechGestureMatch","../RequiredFiles/videos/JaKopfNein_f.mp4","Ist der Ball in der blauen Box?","Blue","Green","J","negation","mismatch","gesture","yes","HeadShake","female","gesture-speech","1440","900","chrome","59.78","Mac OS","20","female","right","Thu Oct 17 2024 10:17:47 GMT+0200 (Mitteleuropäische Sommerzeit)","1","49","0","1729155398197"
"761","j","SpeechGestureMatch","../RequiredFiles/videos/NeinKopfNein_f.mp4","Ist der Ball in der blauen Box?","Blue","Green","J","negation","match","gesture","no","HeadShake","female","gesture-speech","1440","900","chrome","59.78","Mac OS","20","female","right","Thu Oct 17 2024 10:17:53 GMT+0200 (Mitteleuropäische Sommerzeit)","1","50","0","1729155398197"
"862","f","SpeechGestureMatch","../RequiredFiles/videos/NeinKopfJa_f.mp4","Ist der Ball in der grünen Box?","Green","Blue","F","affirmation","mismatch","gesture","no","HeadNod","female","gesture-speech","1440","900","chrome","59.78","Mac OS","20","female","right","Thu Oct 17 2024 10:18:00 GMT+0200 (Mitteleuropäische Sommerzeit)","1","51","0","1729155398197"
"807","f","SpeechGestureMatch","../RequiredFiles/videos/JaKopfNein_f.mp4","Ist der Ball in der blauen Box?","Green","Blue","F","negation","mismatch","gesture","yes","HeadShake","female","gesture-speech","1440","900","chrome","59.78","Mac OS","20","female","right","Thu Oct 17 2024 10:18:06 GMT+0200 (Mitteleuropäische Sommerzeit)","1","52","0","1729155398197"
"697","f","SpeechGestureMatch","../RequiredFiles/videos/JaKopfJa_f.mp4","Ist der Ball in der blauen Box?","Blue","Green","F","affirmation","match","gesture","yes","HeadNod","female","gesture-speech","1440","900","chrome","59.78","Mac OS","20","female","right","Thu Oct 17 2024 10:18:12 GMT+0200 (Mitteleuropäische Sommerzeit)","1","53","0","1729155398197"
"694","f","SpeechGestureMatch","../RequiredFiles/videos/NeinKopfNein_m.mp4","Ist der Ball in der blauen Box?","Green","Blue","F","negation","match","gesture","no","HeadShake","male","gesture-speech","1440","900","chrome","59.78","Mac OS","20","female","right","Thu Oct 17 2024 10:18:19 GMT+0200 (Mitteleuropäische Sommerzeit)","1","54","0","1729155398197"
"830","f","SpeechGestureMatch","../RequiredFiles/videos/JaKopfJa_m.mp4","Ist der Ball in der blauen Box?","Blue","Green","F","affirmation","match","gesture","yes","HeadNod","male","gesture-speech","1440","900","chrome","59.78","Mac OS","20","female","right","Thu Oct 17 2024 10:18:25 GMT+0200 (Mitteleuropäische Sommerzeit)","1","55","0","1729155398197"
"655","f","SpeechGestureMatch","../RequiredFiles/videos/JaKopfJa_f_no_sound.mp4","Ist der Ball in der blauen Box?","Blue","Green","F","affirmation","na","gesture","na","HeadNod","female","gesture-speech","1440","900","chrome","59.78","Mac OS","20","female","right","Thu Oct 17 2024 10:18:31 GMT+0200 (Mitteleuropäische Sommerzeit)","1","56","0","1729155398197"
"704","j","SpeechGestureMatch","../RequiredFiles/videos/NeinKopfNein_m.mp4","Ist der Ball in der grünen Box?","Green","Blue","J","negation","match","gesture","no","HeadShake","male","gesture-speech","1440","900","chrome","59.78","Mac OS","20","female","right","Thu Oct 17 2024 10:18:37 GMT+0200 (Mitteleuropäische Sommerzeit)","1","57","0","1729155398197"
"642","f","SpeechGestureMatch","../RequiredFiles/videos/JaKopfNein_f_no_sound.mp4","Ist der Ball in der grünen Box?","Blue","Green","F","negation","na","gesture","na","HeadShake","female","gesture-speech","1440","900","chrome","59.78","Mac OS","20","female","right","Thu Oct 17 2024 10:18:43 GMT+0200 (Mitteleuropäische Sommerzeit)","1","58","0","1729155398197"
"619","j","SpeechGestureMatch","../RequiredFiles/videos/JaKopfNein_m_no_sound.mp4","Ist der Ball in der grünen Box?","Green","Blue","J","negation","na","gesture","na","HeadShake","male","gesture-speech","1440","900","chrome","59.78","Mac OS","20","female","right","Thu Oct 17 2024 10:18:50 GMT+0200 (Mitteleuropäische Sommerzeit)","1","59","0","1729155398197"
"755","j","SpeechGestureMatch","../RequiredFiles/videos/NeinKopfJa_f.mp4","Ist der Ball in der blauen Box?","Green","Blue","J","affirmation","mismatch","gesture","no","HeadNod","female","gesture-speech","1440","900","chrome","59.78","Mac OS","20","female","right","Thu Oct 17 2024 10:18:56 GMT+0200 (Mitteleuropäische Sommerzeit)","1","60","0","1729155398197"
"710","j","SpeechGestureMatch","../RequiredFiles/videos/JaKopfNein_f.mp4","Ist der Ball in der blauen Box?","Blue","Green","J","negation","mismatch","gesture","yes","HeadShake","female","gesture-speech","1440","900","chrome","59.78","Mac OS","20","female","right","Thu Oct 17 2024 10:19:02 GMT+0200 (Mitteleuropäische Sommerzeit)","1","61","0","1729155398197"
"688","j","SpeechGestureMatch","../RequiredFiles/videos/JaKopfNein_f.mp4","Ist der Ball in der grünen Box?","Green","Blue","J","negation","mismatch","gesture","yes","HeadShake","female","gesture-speech","1440","900","chrome","59.78","Mac OS","20","female","right","Thu Oct 17 2024 10:19:08 GMT+0200 (Mitteleuropäische Sommerzeit)","1","62","0","1729155398197"
"742","j","SpeechGestureMatch","../RequiredFiles/videos/NeinKopfJa_f.mp4","Ist der Ball in der blauen Box?","Green","Blue","J","affirmation","mismatch","gesture","no","HeadNod","female","gesture-speech","1440","900","chrome","59.78","Mac OS","20","female","right","Thu Oct 17 2024 10:19:14 GMT+0200 (Mitteleuropäische Sommerzeit)","1","63","0","1729155398197"
"709","f","SpeechGestureMatch","../RequiredFiles/videos/NeinKopfNein_f.mp4","Ist der Ball in der grünen Box?","Blue","Green","F","negation","match","gesture","no","HeadShake","female","gesture-speech","1440","900","chrome","59.78","Mac OS","20","female","right","Thu Oct 17 2024 10:19:21 GMT+0200 (Mitteleuropäische Sommerzeit)","1","64","0","1729155398197"
"665","j","SpeechGestureMatch","../RequiredFiles/videos/JaKopfNein_f.mp4","Ist der Ball in der grünen Box?","Green","Blue","J","negation","mismatch","gesture","yes","HeadShake","female","gesture-speech","1440","900","chrome","59.78","Mac OS","20","female","right","Thu Oct 17 2024 10:19:27 GMT+0200 (Mitteleuropäische Sommerzeit)","1","65","0","1729155398197"
"802","f","SpeechGestureMatch","../RequiredFiles/videos/JaKopfJa_f.mp4","Ist der Ball in der grünen Box?","Green","Blue","F","affirmation","match","gesture","yes","HeadNod","female","gesture-speech","1440","900","chrome","59.78","Mac OS","20","female","right","Thu Oct 17 2024 10:19:33 GMT+0200 (Mitteleuropäische Sommerzeit)","1","66","0","1729155398197"
"900","f","SpeechGestureMatch","../RequiredFiles/videos/NeinKopfNein_m_no_sound.mp4","Ist der Ball in der blauen Box?","Green","Blue","F","negation","na","gesture","na","HeadShake","male","gesture-speech","1440","900","chrome","59.78","Mac OS","20","female","right","Thu Oct 17 2024 10:19:40 GMT+0200 (Mitteleuropäische Sommerzeit)","1","67","0","1729155398197"
"838","f","SpeechGestureMatch","../RequiredFiles/videos/JaKopfNein_m.mp4","Ist der Ball in der grünen Box?","Blue","Green","F","negation","mismatch","gesture","yes","HeadShake","male","gesture-speech","1440","900","chrome","59.78","Mac OS","20","female","right","Thu Oct 17 2024 10:19:46 GMT+0200 (Mitteleuropäische Sommerzeit)","1","68","0","1729155398197"
"1037","j","SpeechGestureMatch","../RequiredFiles/videos/NeinKopfJa_m_no_sound.mp4","Ist der Ball in der blauen Box?","Green","Blue","J","affirmation","na","gesture","na","HeadNod","male","gesture-speech","1440","900","chrome","59.78","Mac OS","20","female","right","Thu Oct 17 2024 10:19:53 GMT+0200 (Mitteleuropäische Sommerzeit)","1","69","0","1729155398197"
"646","j","SpeechGestureMatch","../RequiredFiles/videos/NeinKopfNein_m.mp4","Ist der Ball in der blauen Box?","Blue","Green","J","negation","match","gesture","no","HeadShake","male","gesture-speech","1440","900","chrome","59.78","Mac OS","20","female","right","Thu Oct 17 2024 10:19:59 GMT+0200 (Mitteleuropäische Sommerzeit)","1","70","0","1729155398197"
"751","j","SpeechGestureMatch","../RequiredFiles/videos/JaKopfNein_m.mp4","Ist der Ball in der blauen Box?","Blue","Green","J","negation","mismatch","gesture","yes","HeadShake","male","gesture-speech","1440","900","chrome","59.78","Mac OS","20","female","right","Thu Oct 17 2024 10:20:05 GMT+0200 (Mitteleuropäische Sommerzeit)","1","71","0","1729155398197"
"707","j","SpeechGestureMatch","../RequiredFiles/videos/JaKopfJa_m_no_sound.mp4","Ist der Ball in der grünen Box?","Blue","Green","J","affirmation","na","gesture","na","HeadNod","male","gesture-speech","1440","900","chrome","59.78","Mac OS","20","female","right","Thu Oct 17 2024 10:20:11 GMT+0200 (Mitteleuropäische Sommerzeit)","1","72","0","1729155398197"
"662","j","SpeechGestureMatch","../RequiredFiles/videos/NeinKopfNein_f.mp4","Ist der Ball in der grünen Box?","Green","Blue","J","negation","match","gesture","no","HeadShake","female","gesture-speech","1440","900","chrome","59.78","Mac OS","20","female","right","Thu Oct 17 2024 10:20:17 GMT+0200 (Mitteleuropäische Sommerzeit)","1","73","0","1729155398197"
"679","f","SpeechGestureMatch","../RequiredFiles/videos/NeinKopfJa_m_no_sound.mp4","Ist der Ball in der blauen Box?","Blue","Green","F","affirmation","na","gesture","na","HeadNod","male","gesture-speech","1440","900","chrome","59.78","Mac OS","20","female","right","Thu Oct 17 2024 10:20:24 GMT+0200 (Mitteleuropäische Sommerzeit)","1","74","0","1729155398197"
"701","f","SpeechGestureMatch","../RequiredFiles/videos/JaKopfJa_m_no_sound.mp4","Ist der Ball in der blauen Box?","Blue","Green","F","affirmation","na","gesture","na","HeadNod","male","gesture-speech","1440","900","chrome","59.78","Mac OS","20","female","right","Thu Oct 17 2024 10:20:30 GMT+0200 (Mitteleuropäische Sommerzeit)","1","75","0","1729155398197"
"650","j","SpeechGestureMatch","../RequiredFiles/videos/JaKopfNein_m.mp4","Ist der Ball in der blauen Box?","Blue","Green","J","negation","mismatch","gesture","yes","HeadShake","male","gesture-speech","1440","900","chrome","59.78","Mac OS","20","female","right","Thu Oct 17 2024 10:20:36 GMT+0200 (Mitteleuropäische Sommerzeit)","1","76","0","1729155398197"
"663","f","SpeechGestureMatch","../RequiredFiles/videos/NeinKopfNein_f.mp4","Ist der Ball in der grünen Box?","Blue","Green","F","negation","match","gesture","no","HeadShake","female","gesture-speech","1440","900","chrome","59.78","Mac OS","20","female","right","Thu Oct 17 2024 10:20:42 GMT+0200 (Mitteleuropäische Sommerzeit)","1","77","0","1729155398197"
"576","f","SpeechGestureMatch","../RequiredFiles/videos/JaKopfJa_f_no_sound.mp4","Ist der Ball in der grünen Box?","Green","Blue","F","affirmation","na","gesture","na","HeadNod","female","gesture-speech","1440","900","chrome","59.78","Mac OS","20","female","right","Thu Oct 17 2024 10:20:48 GMT+0200 (Mitteleuropäische Sommerzeit)","1","78","0","1729155398197"
"695","f","SpeechGestureMatch","../RequiredFiles/videos/NeinKopfNein_f.mp4","Ist der Ball in der blauen Box?","Green","Blue","F","negation","match","gesture","no","HeadShake","female","gesture-speech","1440","900","chrome","59.78","Mac OS","20","female","right","Thu Oct 17 2024 10:20:54 GMT+0200 (Mitteleuropäische Sommerzeit)","1","79","0","1729155398197"
"769","f","SpeechGestureMatch","../RequiredFiles/videos/JaKopfJa_f.mp4","Ist der Ball in der blauen Box?","Blue","Green","F","affirmation","match","gesture","yes","HeadNod","female","gesture-speech","1440","900","chrome","59.78","Mac OS","20","female","right","Thu Oct 17 2024 10:21:01 GMT+0200 (Mitteleuropäische Sommerzeit)","1","80","0","1729155398197"
"711","j","SpeechGestureMatch","../RequiredFiles/videos/NeinKopfNein_f.mp4","Ist der Ball in der blauen Box?","Blue","Green","J","negation","match","gesture","no","HeadShake","female","gesture-speech","1440","900","chrome","59.78","Mac OS","20","female","right","Thu Oct 17 2024 10:21:07 GMT+0200 (Mitteleuropäische Sommerzeit)","1","81","0","1729155398197"
"802","f","SpeechGestureMatch","../RequiredFiles/videos/JaKopfJa_m.mp4","Ist der Ball in der blauen Box?","Blue","Green","F","affirmation","match","gesture","yes","HeadNod","male","gesture-speech","1440","900","chrome","59.78","Mac OS","20","female","right","Thu Oct 17 2024 10:21:13 GMT+0200 (Mitteleuropäische Sommerzeit)","1","82","0","1729155398197"
"750","j","SpeechGestureMatch","../RequiredFiles/videos/NeinKopfNein_m_no_sound.mp4","Ist der Ball in der blauen Box?","Blue","Green","J","negation","na","gesture","na","HeadShake","male","gesture-speech","1440","900","chrome","59.78","Mac OS","20","female","right","Thu Oct 17 2024 10:21:19 GMT+0200 (Mitteleuropäische Sommerzeit)","1","83","0","1729155398197"
"651","f","SpeechGestureMatch","../RequiredFiles/videos/NeinKopfJa_f_no_sound.mp4","Ist der Ball in der grünen Box?","Green","Blue","F","affirmation","na","gesture","na","HeadNod","female","gesture-speech","1440","900","chrome","59.78","Mac OS","20","female","right","Thu Oct 17 2024 10:21:26 GMT+0200 (Mitteleuropäische Sommerzeit)","1","84","0","1729155398197"
"607","f","SpeechGestureMatch","../RequiredFiles/videos/JaKopfJa_m.mp4","Ist der Ball in der grünen Box?","Green","Blue","F","affirmation","match","gesture","yes","HeadNod","male","gesture-speech","1440","900","chrome","59.78","Mac OS","20","female","right","Thu Oct 17 2024 10:21:32 GMT+0200 (Mitteleuropäische Sommerzeit)","1","85","0","1729155398197"
"650","j","SpeechGestureMatch","../RequiredFiles/videos/NeinKopfJa_m.mp4","Ist der Ball in der blauen Box?","Green","Blue","J","affirmation","mismatch","gesture","no","HeadNod","male","gesture-speech","1440","900","chrome","59.78","Mac OS","20","female","right","Thu Oct 17 2024 10:21:38 GMT+0200 (Mitteleuropäische Sommerzeit)","1","86","0","1729155398197"
"676","j","SpeechGestureMatch","../RequiredFiles/videos/NeinKopfJa_m.mp4","Ist der Ball in der grünen Box?","Blue","Green","J","affirmation","mismatch","gesture","no","HeadNod","male","gesture-speech","1440","900","chrome","59.78","Mac OS","20","female","right","Thu Oct 17 2024 10:21:44 GMT+0200 (Mitteleuropäische Sommerzeit)","1","87","0","1729155398197"
"672","f","SpeechGestureMatch","../RequiredFiles/videos/NeinKopfNein_m.mp4","Ist der Ball in der grünen Box?","Blue","Green","F","negation","match","gesture","no","HeadShake","male","gesture-speech","1440","900","chrome","59.78","Mac OS","20","female","right","Thu Oct 17 2024 10:21:50 GMT+0200 (Mitteleuropäische Sommerzeit)","1","88","0","1729155398197"
"659","f","SpeechGestureMatch","../RequiredFiles/videos/JaKopfNein_m_no_sound.mp4","Ist der Ball in der blauen Box?","Green","Blue","F","negation","na","gesture","na","HeadShake","male","gesture-speech","1440","900","chrome","59.78","Mac OS","20","female","right","Thu Oct 17 2024 10:21:56 GMT+0200 (Mitteleuropäische Sommerzeit)","1","89","0","1729155398197"
"765","f","SpeechGestureMatch","../RequiredFiles/videos/JaKopfNein_f.mp4","Ist der Ball in der blauen Box?","Green","Blue","F","negation","mismatch","gesture","yes","HeadShake","female","gesture-speech","1440","900","chrome","59.78","Mac OS","20","female","right","Thu Oct 17 2024 10:22:03 GMT+0200 (Mitteleuropäische Sommerzeit)","1","90","0","1729155398197"
"686","f","SpeechGestureMatch","../RequiredFiles/videos/NeinKopfJa_m_no_sound.mp4","Ist der Ball in der grünen Box?","Green","Blue","F","affirmation","na","gesture","na","HeadNod","male","gesture-speech","1440","900","chrome","59.78","Mac OS","20","female","right","Thu Oct 17 2024 10:22:09 GMT+0200 (Mitteleuropäische Sommerzeit)","1","91","0","1729155398197"
"699","j","SpeechGestureMatch","../RequiredFiles/videos/NeinKopfJa_m.mp4","Ist der Ball in der grünen Box?","Green","Blue","F","affirmation","mismatch","gesture","no","HeadNod","male","gesture-speech","1440","900","chrome","59.78","Mac OS","20","female","right","Thu Oct 17 2024 10:22:15 GMT+0200 (Mitteleuropäische Sommerzeit)","1","92","1","1729155398197"
"638","j","SpeechGestureMatch","../RequiredFiles/videos/NeinKopfJa_f.mp4","Ist der Ball in der grünen Box?","Blue","Green","J","affirmation","mismatch","gesture","no","HeadNod","female","gesture-speech","1440","900","chrome","59.78","Mac OS","20","female","right","Thu Oct 17 2024 10:22:21 GMT+0200 (Mitteleuropäische Sommerzeit)","1","93","0","1729155398197"
"813","j","SpeechGestureMatch","../RequiredFiles/videos/NeinKopfJa_m_no_sound.mp4","Ist der Ball in der grünen Box?","Blue","Green","J","affirmation","na","gesture","na","HeadNod","male","gesture-speech","1440","900","chrome","59.78","Mac OS","20","female","right","Thu Oct 17 2024 10:22:28 GMT+0200 (Mitteleuropäische Sommerzeit)","1","94","0","1729155398197"
"1027","j","SpeechGestureMatch","../RequiredFiles/videos/NeinKopfNein_m.mp4","Ist der Ball in der grünen Box?","Green","Blue","J","negation","match","gesture","no","HeadShake","male","gesture-speech","1440","900","chrome","59.78","Mac OS","20","female","right","Thu Oct 17 2024 10:22:34 GMT+0200 (Mitteleuropäische Sommerzeit)","1","95","0","1729155398197"
"721","f","SpeechGestureMatch","../RequiredFiles/videos/NeinKopfJa_f.mp4","Ist der Ball in der blauen Box?","Blue","Green","F","affirmation","mismatch","gesture","no","HeadNod","female","gesture-speech","1440","900","chrome","59.78","Mac OS","20","female","right","Thu Oct 17 2024 10:22:40 GMT+0200 (Mitteleuropäische Sommerzeit)","1","96","0","1729155398197"
"732","j","SpeechGestureMatch","../RequiredFiles/videos/NeinKopfJa_m_no_sound.mp4","Ist der Ball in der blauen Box?","Green","Blue","J","affirmation","na","gesture","na","HeadNod","male","gesture-speech","1440","900","chrome","59.78","Mac OS","20","female","right","Thu Oct 17 2024 10:23:18 GMT+0200 (Mitteleuropäische Sommerzeit)","2","1","0","1729155398197"
"648","j","SpeechGestureMatch","../RequiredFiles/videos/JaKopfJa_m.mp4","Ist der Ball in der blauen Box?","Green","Blue","J","affirmation","match","gesture","yes","HeadNod","male","gesture-speech","1440","900","chrome","59.78","Mac OS","20","female","right","Thu Oct 17 2024 10:23:25 GMT+0200 (Mitteleuropäische Sommerzeit)","2","2","0","1729155398197"
"584","f","SpeechGestureMatch","../RequiredFiles/videos/JaKopfNein_m_no_sound.mp4","Ist der Ball in der grünen Box?","Blue","Green","F","negation","na","gesture","na","HeadShake","male","gesture-speech","1440","900","chrome","59.78","Mac OS","20","female","right","Thu Oct 17 2024 10:23:31 GMT+0200 (Mitteleuropäische Sommerzeit)","2","3","0","1729155398197"
"585","f","SpeechGestureMatch","../RequiredFiles/videos/NeinKopfNein_m.mp4","Ist der Ball in der grünen Box?","Blue","Green","F","negation","match","gesture","no","HeadShake","male","gesture-speech","1440","900","chrome","59.78","Mac OS","20","female","right","Thu Oct 17 2024 10:23:37 GMT+0200 (Mitteleuropäische Sommerzeit)","2","4","0","1729155398197"
"680","j","SpeechGestureMatch","../RequiredFiles/videos/NeinKopfJa_m.mp4","Ist der Ball in der grünen Box?","Blue","Green","J","affirmation","mismatch","gesture","no","HeadNod","male","gesture-speech","1440","900","chrome","59.78","Mac OS","20","female","right","Thu Oct 17 2024 10:23:43 GMT+0200 (Mitteleuropäische Sommerzeit)","2","5","0","1729155398197"
"720","f","SpeechGestureMatch","../RequiredFiles/videos/JaKopfJa_m.mp4","Ist der Ball in der blauen Box?","Blue","Green","F","affirmation","match","gesture","yes","HeadNod","male","gesture-speech","1440","900","chrome","59.78","Mac OS","20","female","right","Thu Oct 17 2024 10:23:49 GMT+0200 (Mitteleuropäische Sommerzeit)","2","6","0","1729155398197"
"672","j","SpeechGestureMatch","../RequiredFiles/videos/JaKopfNein_m.mp4","Ist der Ball in der blauen Box?","Blue","Green","J","negation","mismatch","gesture","yes","HeadShake","male","gesture-speech","1440","900","chrome","59.78","Mac OS","20","female","right","Thu Oct 17 2024 10:23:55 GMT+0200 (Mitteleuropäische Sommerzeit)","2","7","0","1729155398197"
"706","f","SpeechGestureMatch","../RequiredFiles/videos/NeinKopfNein_f.mp4","Ist der Ball in der grünen Box?","Blue","Green","F","negation","match","gesture","no","HeadShake","female","gesture-speech","1440","900","chrome","59.78","Mac OS","20","female","right","Thu Oct 17 2024 10:24:02 GMT+0200 (Mitteleuropäische Sommerzeit)","2","8","0","1729155398197"
"732","j","SpeechGestureMatch","../RequiredFiles/videos/NeinKopfJa_m.mp4","Ist der Ball in der blauen Box?","Green","Blue","J","affirmation","mismatch","gesture","no","HeadNod","male","gesture-speech","1440","900","chrome","59.78","Mac OS","20","female","right","Thu Oct 17 2024 10:24:08 GMT+0200 (Mitteleuropäische Sommerzeit)","2","9","0","1729155398197"
"727","j","SpeechGestureMatch","../RequiredFiles/videos/JaKopfJa_m.mp4","Ist der Ball in der blauen Box?","Green","Blue","J","affirmation","match","gesture","yes","HeadNod","male","gesture-speech","1440","900","chrome","59.78","Mac OS","20","female","right","Thu Oct 17 2024 10:24:14 GMT+0200 (Mitteleuropäische Sommerzeit)","2","10","0","1729155398197"
"714","f","SpeechGestureMatch","../RequiredFiles/videos/JaKopfJa_m_no_sound.mp4","Ist der Ball in der blauen Box?","Blue","Green","F","affirmation","na","gesture","na","HeadNod","male","gesture-speech","1440","900","chrome","59.78","Mac OS","20","female","right","Thu Oct 17 2024 10:24:20 GMT+0200 (Mitteleuropäische Sommerzeit)","2","11","0","1729155398197"
"622","j","SpeechGestureMatch","../RequiredFiles/videos/JaKopfJa_m.mp4","Ist der Ball in der grünen Box?","Blue","Green","J","affirmation","match","gesture","yes","HeadNod","male","gesture-speech","1440","900","chrome","59.78","Mac OS","20","female","right","Thu Oct 17 2024 10:24:26 GMT+0200 (Mitteleuropäische Sommerzeit)","2","12","0","1729155398197"
"600","j","SpeechGestureMatch","../RequiredFiles/videos/NeinKopfJa_f.mp4","Ist der Ball in der blauen Box?","Green","Blue","J","affirmation","mismatch","gesture","no","HeadNod","female","gesture-speech","1440","900","chrome","59.78","Mac OS","20","female","right","Thu Oct 17 2024 10:24:33 GMT+0200 (Mitteleuropäische Sommerzeit)","2","13","0","1729155398197"
"690","f","SpeechGestureMatch","../RequiredFiles/videos/NeinKopfNein_f.mp4","Ist der Ball in der blauen Box?","Green","Blue","F","negation","match","gesture","no","HeadShake","female","gesture-speech","1440","900","chrome","59.78","Mac OS","20","female","right","Thu Oct 17 2024 10:24:39 GMT+0200 (Mitteleuropäische Sommerzeit)","2","14","0","1729155398197"
"614","f","SpeechGestureMatch","../RequiredFiles/videos/JaKopfNein_f.mp4","Ist der Ball in der blauen Box?","Green","Blue","F","negation","mismatch","gesture","yes","HeadShake","female","gesture-speech","1440","900","chrome","59.78","Mac OS","20","female","right","Thu Oct 17 2024 10:24:45 GMT+0200 (Mitteleuropäische Sommerzeit)","2","15","0","1729155398197"
"802","j","SpeechGestureMatch","../RequiredFiles/videos/JaKopfJa_f.mp4","Ist der Ball in der grünen Box?","Blue","Green","J","affirmation","match","gesture","yes","HeadNod","female","gesture-speech","1440","900","chrome","59.78","Mac OS","20","female","right","Thu Oct 17 2024 10:24:51 GMT+0200 (Mitteleuropäische Sommerzeit)","2","16","0","1729155398197"
"630","j","SpeechGestureMatch","../RequiredFiles/videos/JaKopfNein_f.mp4","Ist der Ball in der grünen Box?","Green","Blue","J","negation","mismatch","gesture","yes","HeadShake","female","gesture-speech","1440","900","chrome","59.78","Mac OS","20","female","right","Thu Oct 17 2024 10:24:57 GMT+0200 (Mitteleuropäische Sommerzeit)","2","17","0","1729155398197"
"772","f","SpeechGestureMatch","../RequiredFiles/videos/JaKopfNein_m_no_sound.mp4","Ist der Ball in der blauen Box?","Green","Blue","F","negation","na","gesture","na","HeadShake","male","gesture-speech","1440","900","chrome","59.78","Mac OS","20","female","right","Thu Oct 17 2024 10:25:04 GMT+0200 (Mitteleuropäische Sommerzeit)","2","18","0","1729155398197"
"647","f","SpeechGestureMatch","../RequiredFiles/videos/JaKopfNein_m.mp4","Ist der Ball in der blauen Box?","Green","Blue","F","negation","mismatch","gesture","yes","HeadShake","male","gesture-speech","1440","900","chrome","59.78","Mac OS","20","female","right","Thu Oct 17 2024 10:25:10 GMT+0200 (Mitteleuropäische Sommerzeit)","2","19","0","1729155398197"
"643","f","SpeechGestureMatch","../RequiredFiles/videos/NeinKopfJa_f_no_sound.mp4","Ist der Ball in der blauen Box?","Blue","Green","F","affirmation","na","gesture","na","HeadNod","female","gesture-speech","1440","900","chrome","59.78","Mac OS","20","female","right","Thu Oct 17 2024 10:25:16 GMT+0200 (Mitteleuropäische Sommerzeit)","2","20","0","1729155398197"
"610","j","SpeechGestureMatch","../RequiredFiles/videos/NeinKopfJa_f.mp4","Ist der Ball in der grünen Box?","Blue","Green","J","affirmation","mismatch","gesture","no","HeadNod","female","gesture-speech","1440","900","chrome","59.78","Mac OS","20","female","right","Thu Oct 17 2024 10:25:22 GMT+0200 (Mitteleuropäische Sommerzeit)","2","21","0","1729155398197"
"612","f","SpeechGestureMatch","../RequiredFiles/videos/JaKopfJa_f.mp4","Ist der Ball in der blauen Box?","Blue","Green","F","affirmation","match","gesture","yes","HeadNod","female","gesture-speech","1440","900","chrome","59.78","Mac OS","20","female","right","Thu Oct 17 2024 10:25:28 GMT+0200 (Mitteleuropäische Sommerzeit)","2","22","0","1729155398197"
"651","f","SpeechGestureMatch","../RequiredFiles/videos/NeinKopfJa_m.mp4","Ist der Ball in der blauen Box?","Blue","Green","F","affirmation","mismatch","gesture","no","HeadNod","male","gesture-speech","1440","900","chrome","59.78","Mac OS","20","female","right","Thu Oct 17 2024 10:25:34 GMT+0200 (Mitteleuropäische Sommerzeit)","2","23","0","1729155398197"
"601","j","SpeechGestureMatch","../RequiredFiles/videos/JaKopfJa_f_no_sound.mp4","Ist der Ball in der grünen Box?","Blue","Green","J","affirmation","na","gesture","na","HeadNod","female","gesture-speech","1440","900","chrome","59.78","Mac OS","20","female","right","Thu Oct 17 2024 10:25:41 GMT+0200 (Mitteleuropäische Sommerzeit)","2","24","0","1729155398197"
"564","j","SpeechGestureMatch","../RequiredFiles/videos/JaKopfJa_f.mp4","Ist der Ball in der grünen Box?","Blue","Green","J","affirmation","match","gesture","yes","HeadNod","female","gesture-speech","1440","900","chrome","59.78","Mac OS","20","female","right","Thu Oct 17 2024 10:25:47 GMT+0200 (Mitteleuropäische Sommerzeit)","2","25","0","1729155398197"
"627","f","SpeechGestureMatch","../RequiredFiles/videos/NeinKopfNein_m.mp4","Ist der Ball in der blauen Box?","Green","Blue","F","negation","match","gesture","no","HeadShake","male","gesture-speech","1440","900","chrome","59.78","Mac OS","20","female","right","Thu Oct 17 2024 10:25:53 GMT+0200 (Mitteleuropäische Sommerzeit)","2","26","0","1729155398197"
"651","f","SpeechGestureMatch","../RequiredFiles/videos/NeinKopfJa_m.mp4","Ist der Ball in der blauen Box?","Green","Blue","J","affirmation","mismatch","gesture","no","HeadNod","male","gesture-speech","1440","900","chrome","59.78","Mac OS","20","female","right","Thu Oct 17 2024 10:25:59 GMT+0200 (Mitteleuropäische Sommerzeit)","2","27","1","1729155398197"
"732","j","SpeechGestureMatch","../RequiredFiles/videos/NeinKopfJa_f.mp4","Ist der Ball in der grünen Box?","Blue","Green","J","affirmation","mismatch","gesture","no","HeadNod","female","gesture-speech","1440","900","chrome","59.78","Mac OS","20","female","right","Thu Oct 17 2024 10:26:05 GMT+0200 (Mitteleuropäische Sommerzeit)","2","28","0","1729155398197"
"649","j","SpeechGestureMatch","../RequiredFiles/videos/NeinKopfNein_m.mp4","Ist der Ball in der blauen Box?","Blue","Green","J","negation","match","gesture","no","HeadShake","male","gesture-speech","1440","900","chrome","59.78","Mac OS","20","female","right","Thu Oct 17 2024 10:26:11 GMT+0200 (Mitteleuropäische Sommerzeit)","2","29","0","1729155398197"
"707","j","SpeechGestureMatch","../RequiredFiles/videos/JaKopfNein_f.mp4","Ist der Ball in der grünen Box?","Green","Blue","J","negation","mismatch","gesture","yes","HeadShake","female","gesture-speech","1440","900","chrome","59.78","Mac OS","20","female","right","Thu Oct 17 2024 10:26:18 GMT+0200 (Mitteleuropäische Sommerzeit)","2","30","0","1729155398197"
"865","j","SpeechGestureMatch","../RequiredFiles/videos/JaKopfJa_f.mp4","Ist der Ball in der blauen Box?","Green","Blue","J","affirmation","match","gesture","yes","HeadNod","female","gesture-speech","1440","900","chrome","59.78","Mac OS","20","female","right","Thu Oct 17 2024 10:26:24 GMT+0200 (Mitteleuropäische Sommerzeit)","2","31","0","1729155398197"
"736","j","SpeechGestureMatch","../RequiredFiles/videos/NeinKopfJa_m.mp4","Ist der Ball in der grünen Box?","Blue","Green","J","affirmation","mismatch","gesture","no","HeadNod","male","gesture-speech","1440","900","chrome","59.78","Mac OS","20","female","right","Thu Oct 17 2024 10:26:30 GMT+0200 (Mitteleuropäische Sommerzeit)","2","32","0","1729155398197"
"734","j","SpeechGestureMatch","../RequiredFiles/videos/NeinKopfNein_f.mp4","Ist der Ball in der blauen Box?","Blue","Green","J","negation","match","gesture","no","HeadShake","female","gesture-speech","1440","900","chrome","59.78","Mac OS","20","female","right","Thu Oct 17 2024 10:26:36 GMT+0200 (Mitteleuropäische Sommerzeit)","2","33","0","1729155398197"
"662","j","SpeechGestureMatch","../RequiredFiles/videos/JaKopfNein_m.mp4","Ist der Ball in der grünen Box?","Green","Blue","J","negation","mismatch","gesture","yes","HeadShake","male","gesture-speech","1440","900","chrome","59.78","Mac OS","20","female","right","Thu Oct 17 2024 10:26:43 GMT+0200 (Mitteleuropäische Sommerzeit)","2","34","0","1729155398197"
"658","j","SpeechGestureMatch","../RequiredFiles/videos/JaKopfJa_m.mp4","Ist der Ball in der grünen Box?","Blue","Green","J","affirmation","match","gesture","yes","HeadNod","male","gesture-speech","1440","900","chrome","59.78","Mac OS","20","female","right","Thu Oct 17 2024 10:26:49 GMT+0200 (Mitteleuropäische Sommerzeit)","2","35","0","1729155398197"
"669","f","SpeechGestureMatch","../RequiredFiles/videos/NeinKopfJa_m.mp4","Ist der Ball in der grünen Box?","Green","Blue","F","affirmation","mismatch","gesture","no","HeadNod","male","gesture-speech","1440","900","chrome","59.78","Mac OS","20","female","right","Thu Oct 17 2024 10:26:55 GMT+0200 (Mitteleuropäische Sommerzeit)","2","36","0","1729155398197"
"658","j","SpeechGestureMatch","../RequiredFiles/videos/NeinKopfNein_f_no_sound.mp4","Ist der Ball in der blauen Box?","Blue","Green","J","negation","na","gesture","na","HeadShake","female","gesture-speech","1440","900","chrome","59.78","Mac OS","20","female","right","Thu Oct 17 2024 10:27:01 GMT+0200 (Mitteleuropäische Sommerzeit)","2","37","0","1729155398197"
"790","f","SpeechGestureMatch","../RequiredFiles/videos/NeinKopfJa_f_no_sound.mp4","Ist der Ball in der grünen Box?","Green","Blue","F","affirmation","na","gesture","na","HeadNod","female","gesture-speech","1440","900","chrome","59.78","Mac OS","20","female","right","Thu Oct 17 2024 10:27:08 GMT+0200 (Mitteleuropäische Sommerzeit)","2","38","0","1729155398197"
"568","j","SpeechGestureMatch","../RequiredFiles/videos/NeinKopfJa_f_no_sound.mp4","Ist der Ball in der grünen Box?","Blue","Green","J","affirmation","na","gesture","na","HeadNod","female","gesture-speech","1440","900","chrome","59.78","Mac OS","20","female","right","Thu Oct 17 2024 10:27:14 GMT+0200 (Mitteleuropäische Sommerzeit)","2","39","0","1729155398197"
"577","j","SpeechGestureMatch","../RequiredFiles/videos/NeinKopfNein_m_no_sound.mp4","Ist der Ball in der blauen Box?","Blue","Green","J","negation","na","gesture","na","HeadShake","male","gesture-speech","1440","900","chrome","59.78","Mac OS","20","female","right","Thu Oct 17 2024 10:27:20 GMT+0200 (Mitteleuropäische Sommerzeit)","2","40","0","1729155398197"
"676","f","SpeechGestureMatch","../RequiredFiles/videos/NeinKopfNein_f_no_sound.mp4","Ist der Ball in der blauen Box?","Green","Blue","F","negation","na","gesture","na","HeadShake","female","gesture-speech","1440","900","chrome","59.78","Mac OS","20","female","right","Thu Oct 17 2024 10:27:26 GMT+0200 (Mitteleuropäische Sommerzeit)","2","41","0","1729155398197"
"754","j","SpeechGestureMatch","../RequiredFiles/videos/NeinKopfNein_f.mp4","Ist der Ball in der grünen Box?","Green","Blue","J","negation","match","gesture","no","HeadShake","female","gesture-speech","1440","900","chrome","59.78","Mac OS","20","female","right","Thu Oct 17 2024 10:27:32 GMT+0200 (Mitteleuropäische Sommerzeit)","2","42","0","1729155398197"
"665","f","SpeechGestureMatch","../RequiredFiles/videos/NeinKopfNein_m_no_sound.mp4","Ist der Ball in der blauen Box?","Green","Blue","F","negation","na","gesture","na","HeadShake","male","gesture-speech","1440","900","chrome","59.78","Mac OS","20","female","right","Thu Oct 17 2024 10:27:38 GMT+0200 (Mitteleuropäische Sommerzeit)","2","43","0","1729155398197"
"670","j","SpeechGestureMatch","../RequiredFiles/videos/NeinKopfNein_m_no_sound.mp4","Ist der Ball in der grünen Box?","Green","Blue","J","negation","na","gesture","na","HeadShake","male","gesture-speech","1440","900","chrome","59.78","Mac OS","20","female","right","Thu Oct 17 2024 10:27:45 GMT+0200 (Mitteleuropäische Sommerzeit)","2","44","0","1729155398197"
"578","j","SpeechGestureMatch","../RequiredFiles/videos/JaKopfJa_f_no_sound.mp4","Ist der Ball in der blauen Box?","Green","Blue","J","affirmation","na","gesture","na","HeadNod","female","gesture-speech","1440","900","chrome","59.78","Mac OS","20","female","right","Thu Oct 17 2024 10:27:51 GMT+0200 (Mitteleuropäische Sommerzeit)","2","45","0","1729155398197"
"563","j","SpeechGestureMatch","../RequiredFiles/videos/JaKopfJa_m_no_sound.mp4","Ist der Ball in der blauen Box?","Green","Blue","J","affirmation","na","gesture","na","HeadNod","male","gesture-speech","1440","900","chrome","59.78","Mac OS","20","female","right","Thu Oct 17 2024 10:27:57 GMT+0200 (Mitteleuropäische Sommerzeit)","2","46","0","1729155398197"
"567","j","SpeechGestureMatch","../RequiredFiles/videos/JaKopfJa_m_no_sound.mp4","Ist der Ball in der grünen Box?","Blue","Green","J","affirmation","na","gesture","na","HeadNod","male","gesture-speech","1440","900","chrome","59.78","Mac OS","20","female","right","Thu Oct 17 2024 10:28:03 GMT+0200 (Mitteleuropäische Sommerzeit)","2","47","0","1729155398197"
"706","f","SpeechGestureMatch","../RequiredFiles/videos/NeinKopfNein_m.mp4","Ist der Ball in der blauen Box?","Green","Blue","F","negation","match","gesture","no","HeadShake","male","gesture-speech","1440","900","chrome","59.78","Mac OS","20","female","right","Thu Oct 17 2024 10:28:09 GMT+0200 (Mitteleuropäische Sommerzeit)","2","48","0","1729155398197"
"613","j","SpeechGestureMatch","../RequiredFiles/videos/JaKopfNein_f_no_sound.mp4","Ist der Ball in der grünen Box?","Green","Blue","J","negation","na","gesture","na","HeadShake","female","gesture-speech","1440","900","chrome","59.78","Mac OS","20","female","right","Thu Oct 17 2024 10:28:15 GMT+0200 (Mitteleuropäische Sommerzeit)","2","49","0","1729155398197"
"544","j","SpeechGestureMatch","../RequiredFiles/videos/JaKopfNein_m_no_sound.mp4","Ist der Ball in der grünen Box?","Green","Blue","J","negation","na","gesture","na","HeadShake","male","gesture-speech","1440","900","chrome","59.78","Mac OS","20","female","right","Thu Oct 17 2024 10:28:21 GMT+0200 (Mitteleuropäische Sommerzeit)","2","50","0","1729155398197"
"563","j","SpeechGestureMatch","../RequiredFiles/videos/JaKopfNein_m_no_sound.mp4","Ist der Ball in der blauen Box?","Blue","Green","J","negation","na","gesture","na","HeadShake","male","gesture-speech","1440","900","chrome","59.78","Mac OS","20","female","right","Thu Oct 17 2024 10:28:27 GMT+0200 (Mitteleuropäische Sommerzeit)","2","51","0","1729155398197"
"735","f","SpeechGestureMatch","../RequiredFiles/videos/JaKopfJa_m.mp4","Ist der Ball in der blauen Box?","Blue","Green","F","affirmation","match","gesture","yes","HeadNod","male","gesture-speech","1440","900","chrome","59.78","Mac OS","20","female","right","Thu Oct 17 2024 10:28:34 GMT+0200 (Mitteleuropäische Sommerzeit)","2","52","0","1729155398197"
"690","f","SpeechGestureMatch","../RequiredFiles/videos/JaKopfNein_f.mp4","Ist der Ball in der grünen Box?","Blue","Green","F","negation","mismatch","gesture","yes","HeadShake","female","gesture-speech","1440","900","chrome","59.78","Mac OS","20","female","right","Thu Oct 17 2024 10:28:40 GMT+0200 (Mitteleuropäische Sommerzeit)","2","53","0","1729155398197"
"686","j","SpeechGestureMatch","../RequiredFiles/videos/JaKopfNein_m.mp4","Ist der Ball in der blauen Box?","Blue","Green","J","negation","mismatch","gesture","yes","HeadShake","male","gesture-speech","1440","900","chrome","59.78","Mac OS","20","female","right","Thu Oct 17 2024 10:28:46 GMT+0200 (Mitteleuropäische Sommerzeit)","2","54","0","1729155398197"
"522","j","SpeechGestureMatch","../RequiredFiles/videos/JaKopfNein_f_no_sound.mp4","Ist der Ball in der blauen Box?","Blue","Green","J","negation","na","gesture","na","HeadShake","female","gesture-speech","1440","900","chrome","59.78","Mac OS","20","female","right","Thu Oct 17 2024 10:28:52 GMT+0200 (Mitteleuropäische Sommerzeit)","2","55","0","1729155398197"
"636","j","SpeechGestureMatch","../RequiredFiles/videos/NeinKopfNein_m.mp4","Ist der Ball in der blauen Box?","Blue","Green","J","negation","match","gesture","no","HeadShake","male","gesture-speech","1440","900","chrome","59.78","Mac OS","20","female","right","Thu Oct 17 2024 10:28:58 GMT+0200 (Mitteleuropäische Sommerzeit)","2","56","0","1729155398197"
"716","f","SpeechGestureMatch","../RequiredFiles/videos/NeinKopfNein_f.mp4","Ist der Ball in der grünen Box?","Blue","Green","F","negation","match","gesture","no","HeadShake","female","gesture-speech","1440","900","chrome","59.78","Mac OS","20","female","right","Thu Oct 17 2024 10:29:04 GMT+0200 (Mitteleuropäische Sommerzeit)","2","57","0","1729155398197"
"652","f","SpeechGestureMatch","../RequiredFiles/videos/NeinKopfNein_f_no_sound.mp4","Ist der Ball in der grünen Box?","Blue","Green","F","negation","na","gesture","na","HeadShake","female","gesture-speech","1440","900","chrome","59.78","Mac OS","20","female","right","Thu Oct 17 2024 10:29:11 GMT+0200 (Mitteleuropäische Sommerzeit)","2","58","0","1729155398197"
"824","f","SpeechGestureMatch","../RequiredFiles/videos/JaKopfNein_f_no_sound.mp4","Ist der Ball in der blauen Box?","Green","Blue","F","negation","na","gesture","na","HeadShake","female","gesture-speech","1440","900","chrome","59.78","Mac OS","20","female","right","Thu Oct 17 2024 10:29:17 GMT+0200 (Mitteleuropäische Sommerzeit)","2","59","0","1729155398197"
"1015","f","SpeechGestureMatch","../RequiredFiles/videos/JaKopfNein_m.mp4","Ist der Ball in der blauen Box?","Green","Blue","F","negation","mismatch","gesture","yes","HeadShake","male","gesture-speech","1440","900","chrome","59.78","Mac OS","20","female","right","Thu Oct 17 2024 10:29:23 GMT+0200 (Mitteleuropäische Sommerzeit)","2","60","0","1729155398197"
"887","f","SpeechGestureMatch","../RequiredFiles/videos/NeinKopfJa_f.mp4","Ist der Ball in der grünen Box?","Green","Blue","F","affirmation","mismatch","gesture","no","HeadNod","female","gesture-speech","1440","900","chrome","59.78","Mac OS","20","female","right","Thu Oct 17 2024 10:29:30 GMT+0200 (Mitteleuropäische Sommerzeit)","2","61","0","1729155398197"
"930","f","SpeechGestureMatch","../RequiredFiles/videos/JaKopfJa_m.mp4","Ist der Ball in der grünen Box?","Green","Blue","F","affirmation","match","gesture","yes","HeadNod","male","gesture-speech","1440","900","chrome","59.78","Mac OS","20","female","right","Thu Oct 17 2024 10:29:36 GMT+0200 (Mitteleuropäische Sommerzeit)","2","62","0","1729155398197"
"730","j","SpeechGestureMatch","../RequiredFiles/videos/NeinKopfNein_f.mp4","Ist der Ball in der blauen Box?","Blue","Green","J","negation","match","gesture","no","HeadShake","female","gesture-speech","1440","900","chrome","59.78","Mac OS","20","female","right","Thu Oct 17 2024 10:29:43 GMT+0200 (Mitteleuropäische Sommerzeit)","2","63","0","1729155398197"
"666","j","SpeechGestureMatch","../RequiredFiles/videos/NeinKopfNein_m.mp4","Ist der Ball in der grünen Box?","Green","Blue","J","negation","match","gesture","no","HeadShake","male","gesture-speech","1440","900","chrome","59.78","Mac OS","20","female","right","Thu Oct 17 2024 10:29:49 GMT+0200 (Mitteleuropäische Sommerzeit)","2","64","0","1729155398197"
"619","f","SpeechGestureMatch","../RequiredFiles/videos/JaKopfJa_f_no_sound.mp4","Ist der Ball in der blauen Box?","Blue","Green","F","affirmation","na","gesture","na","HeadNod","female","gesture-speech","1440","900","chrome","59.78","Mac OS","20","female","right","Thu Oct 17 2024 10:29:55 GMT+0200 (Mitteleuropäische Sommerzeit)","2","65","0","1729155398197"
"696","f","SpeechGestureMatch","../RequiredFiles/videos/NeinKopfJa_m.mp4","Ist der Ball in der blauen Box?","Blue","Green","F","affirmation","mismatch","gesture","no","HeadNod","male","gesture-speech","1440","900","chrome","59.78","Mac OS","20","female","right","Thu Oct 17 2024 10:30:01 GMT+0200 (Mitteleuropäische Sommerzeit)","2","66","0","1729155398197"
"721","f","SpeechGestureMatch","../RequiredFiles/videos/JaKopfJa_m.mp4","Ist der Ball in der grünen Box?","Green","Blue","F","affirmation","match","gesture","yes","HeadNod","male","gesture-speech","1440","900","chrome","59.78","Mac OS","20","female","right","Thu Oct 17 2024 10:30:07 GMT+0200 (Mitteleuropäische Sommerzeit)","2","67","0","1729155398197"
"681","f","SpeechGestureMatch","../RequiredFiles/videos/NeinKopfJa_m.mp4","Ist der Ball in der grünen Box?","Green","Blue","F","affirmation","mismatch","gesture","no","HeadNod","male","gesture-speech","1440","900","chrome","59.78","Mac OS","20","female","right","Thu Oct 17 2024 10:30:14 GMT+0200 (Mitteleuropäische Sommerzeit)","2","68","0","1729155398197"
"591","j","SpeechGestureMatch","../RequiredFiles/videos/NeinKopfJa_m_no_sound.mp4","Ist der Ball in der grünen Box?","Blue","Green","J","affirmation","na","gesture","na","HeadNod","male","gesture-speech","1440","900","chrome","59.78","Mac OS","20","female","right","Thu Oct 17 2024 10:30:20 GMT+0200 (Mitteleuropäische Sommerzeit)","2","69","0","1729155398197"
"632","f","SpeechGestureMatch","../RequiredFiles/videos/NeinKopfNein_m_no_sound.mp4","Ist der Ball in der grünen Box?","Blue","Green","F","negation","na","gesture","na","HeadShake","male","gesture-speech","1440","900","chrome","59.78","Mac OS","20","female","right","Thu Oct 17 2024 10:30:26 GMT+0200 (Mitteleuropäische Sommerzeit)","2","70","0","1729155398197"
"617","f","SpeechGestureMatch","../RequiredFiles/videos/JaKopfNein_m.mp4","Ist der Ball in der grünen Box?","Blue","Green","F","negation","mismatch","gesture","yes","HeadShake","male","gesture-speech","1440","900","chrome","59.78","Mac OS","20","female","right","Thu Oct 17 2024 10:30:32 GMT+0200 (Mitteleuropäische Sommerzeit)","2","71","0","1729155398197"
"680","j","SpeechGestureMatch","../RequiredFiles/videos/JaKopfNein_f.mp4","Ist der Ball in der blauen Box?","Blue","Green","J","negation","mismatch","gesture","yes","HeadShake","female","gesture-speech","1440","900","chrome","59.78","Mac OS","20","female","right","Thu Oct 17 2024 10:30:38 GMT+0200 (Mitteleuropäische Sommerzeit)","2","72","0","1729155398197"
"655","j","SpeechGestureMatch","../RequiredFiles/videos/NeinKopfNein_f.mp4","Ist der Ball in der grünen Box?","Green","Blue","J","negation","match","gesture","no","HeadShake","female","gesture-speech","1440","900","chrome","59.78","Mac OS","20","female","right","Thu Oct 17 2024 10:30:44 GMT+0200 (Mitteleuropäische Sommerzeit)","2","73","0","1729155398197"
"640","f","SpeechGestureMatch","../RequiredFiles/videos/JaKopfNein_f.mp4","Ist der Ball in der blauen Box?","Green","Blue","F","negation","mismatch","gesture","yes","HeadShake","female","gesture-speech","1440","900","chrome","59.78","Mac OS","20","female","right","Thu Oct 17 2024 10:30:50 GMT+0200 (Mitteleuropäische Sommerzeit)","2","74","0","1729155398197"
"813","f","SpeechGestureMatch","../RequiredFiles/videos/NeinKopfJa_f.mp4","Ist der Ball in der blauen Box?","Blue","Green","F","affirmation","mismatch","gesture","no","HeadNod","female","gesture-speech","1440","900","chrome","59.78","Mac OS","20","female","right","Thu Oct 17 2024 10:30:57 GMT+0200 (Mitteleuropäische Sommerzeit)","2","75","0","1729155398197"
"697","f","SpeechGestureMatch","../RequiredFiles/videos/NeinKopfJa_f.mp4","Ist der Ball in der grünen Box?","Green","Blue","F","affirmation","mismatch","gesture","no","HeadNod","female","gesture-speech","1440","900","chrome","59.78","Mac OS","20","female","right","Thu Oct 17 2024 10:31:03 GMT+0200 (Mitteleuropäische Sommerzeit)","2","76","0","1729155398197"
"627","f","SpeechGestureMatch","../RequiredFiles/videos/JaKopfJa_f.mp4","Ist der Ball in der grünen Box?","Green","Blue","F","affirmation","match","gesture","yes","HeadNod","female","gesture-speech","1440","900","chrome","59.78","Mac OS","20","female","right","Thu Oct 17 2024 10:31:09 GMT+0200 (Mitteleuropäische Sommerzeit)","2","77","0","1729155398197"
"716","j","SpeechGestureMatch","../RequiredFiles/videos/NeinKopfJa_f.mp4","Ist der Ball in der blauen Box?","Green","Blue","J","affirmation","mismatch","gesture","no","HeadNod","female","gesture-speech","1440","900","chrome","59.78","Mac OS","20","female","right","Thu Oct 17 2024 10:31:15 GMT+0200 (Mitteleuropäische Sommerzeit)","2","78","0","1729155398197"
"583","f","SpeechGestureMatch","../RequiredFiles/videos/NeinKopfJa_m_no_sound.mp4","Ist der Ball in der blauen Box?","Blue","Green","F","affirmation","na","gesture","na","HeadNod","male","gesture-speech","1440","900","chrome","59.78","Mac OS","20","female","right","Thu Oct 17 2024 10:31:21 GMT+0200 (Mitteleuropäische Sommerzeit)","2","79","0","1729155398197"
"641","f","SpeechGestureMatch","../RequiredFiles/videos/NeinKopfJa_m_no_sound.mp4","Ist der Ball in der grünen Box?","Green","Blue","F","affirmation","na","gesture","na","HeadNod","male","gesture-speech","1440","900","chrome","59.78","Mac OS","20","female","right","Thu Oct 17 2024 10:31:28 GMT+0200 (Mitteleuropäische Sommerzeit)","2","80","0","1729155398197"
"663","j","SpeechGestureMatch","../RequiredFiles/videos/JaKopfNein_f.mp4","Ist der Ball in der blauen Box?","Blue","Green","J","negation","mismatch","gesture","yes","HeadShake","female","gesture-speech","1440","900","chrome","59.78","Mac OS","20","female","right","Thu Oct 17 2024 10:31:34 GMT+0200 (Mitteleuropäische Sommerzeit)","2","81","0","1729155398197"
"755","j","SpeechGestureMatch","../RequiredFiles/videos/JaKopfNein_m.mp4","Ist der Ball in der grünen Box?","Green","Blue","J","negation","mismatch","gesture","yes","HeadShake","male","gesture-speech","1440","900","chrome","59.78","Mac OS","20","female","right","Thu Oct 17 2024 10:31:40 GMT+0200 (Mitteleuropäische Sommerzeit)","2","82","0","1729155398197"
"735","f","SpeechGestureMatch","../RequiredFiles/videos/JaKopfJa_f.mp4","Ist der Ball in der grünen Box?","Green","Blue","F","affirmation","match","gesture","yes","HeadNod","female","gesture-speech","1440","900","chrome","59.78","Mac OS","20","female","right","Thu Oct 17 2024 10:31:46 GMT+0200 (Mitteleuropäische Sommerzeit)","2","83","0","1729155398197"
"668","f","SpeechGestureMatch","../RequiredFiles/videos/JaKopfNein_f.mp4","Ist der Ball in der grünen Box?","Blue","Green","F","negation","mismatch","gesture","yes","HeadShake","female","gesture-speech","1440","900","chrome","59.78","Mac OS","20","female","right","Thu Oct 17 2024 10:31:53 GMT+0200 (Mitteleuropäische Sommerzeit)","2","84","0","1729155398197"
"782","f","SpeechGestureMatch","../RequiredFiles/videos/NeinKopfJa_f.mp4","Ist der Ball in der blauen Box?","Blue","Green","F","affirmation","mismatch","gesture","no","HeadNod","female","gesture-speech","1440","900","chrome","59.78","Mac OS","20","female","right","Thu Oct 17 2024 10:31:59 GMT+0200 (Mitteleuropäische Sommerzeit)","2","85","0","1729155398197"
"648","f","SpeechGestureMatch","../RequiredFiles/videos/JaKopfJa_f.mp4","Ist der Ball in der blauen Box?","Blue","Green","F","affirmation","match","gesture","yes","HeadNod","female","gesture-speech","1440","900","chrome","59.78","Mac OS","20","female","right","Thu Oct 17 2024 10:32:05 GMT+0200 (Mitteleuropäische Sommerzeit)","2","86","0","1729155398197"
"619","f","SpeechGestureMatch","../RequiredFiles/videos/JaKopfJa_m_no_sound.mp4","Ist der Ball in der grünen Box?","Green","Blue","F","affirmation","na","gesture","na","HeadNod","male","gesture-speech","1440","900","chrome","59.78","Mac OS","20","female","right","Thu Oct 17 2024 10:32:11 GMT+0200 (Mitteleuropäische Sommerzeit)","2","87","0","1729155398197"
"828","f","SpeechGestureMatch","../RequiredFiles/videos/JaKopfNein_m.mp4","Ist der Ball in der grünen Box?","Blue","Green","F","negation","mismatch","gesture","yes","HeadShake","male","gesture-speech","1440","900","chrome","59.78","Mac OS","20","female","right","Thu Oct 17 2024 10:32:17 GMT+0200 (Mitteleuropäische Sommerzeit)","2","88","0","1729155398197"
"832","f","SpeechGestureMatch","../RequiredFiles/videos/NeinKopfNein_m.mp4","Ist der Ball in der grünen Box?","Blue","Green","F","negation","match","gesture","no","HeadShake","male","gesture-speech","1440","900","chrome","59.78","Mac OS","20","female","right","Thu Oct 17 2024 10:32:24 GMT+0200 (Mitteleuropäische Sommerzeit)","2","89","0","1729155398197"
"889","j","SpeechGestureMatch","../RequiredFiles/videos/JaKopfJa_f.mp4","Ist der Ball in der blauen Box?","Green","Blue","J","affirmation","match","gesture","yes","HeadNod","female","gesture-speech","1440","900","chrome","59.78","Mac OS","20","female","right","Thu Oct 17 2024 10:32:30 GMT+0200 (Mitteleuropäische Sommerzeit)","2","90","0","1729155398197"
"636","j","SpeechGestureMatch","../RequiredFiles/videos/NeinKopfNein_f_no_sound.mp4","Ist der Ball in der grünen Box?","Green","Blue","J","negation","na","gesture","na","HeadShake","female","gesture-speech","1440","900","chrome","59.78","Mac OS","20","female","right","Thu Oct 17 2024 10:32:36 GMT+0200 (Mitteleuropäische Sommerzeit)","2","91","0","1729155398197"
"633","j","SpeechGestureMatch","../RequiredFiles/videos/NeinKopfNein_m.mp4","Ist der Ball in der grünen Box?","Green","Blue","J","negation","match","gesture","no","HeadShake","male","gesture-speech","1440","900","chrome","59.78","Mac OS","20","female","right","Thu Oct 17 2024 10:32:43 GMT+0200 (Mitteleuropäische Sommerzeit)","2","92","0","1729155398197"
"542","f","SpeechGestureMatch","../RequiredFiles/videos/JaKopfJa_f_no_sound.mp4","Ist der Ball in der grünen Box?","Green","Blue","F","affirmation","na","gesture","na","HeadNod","female","gesture-speech","1440","900","chrome","59.78","Mac OS","20","female","right","Thu Oct 17 2024 10:32:49 GMT+0200 (Mitteleuropäische Sommerzeit)","2","93","0","1729155398197"
"600","f","SpeechGestureMatch","../RequiredFiles/videos/NeinKopfJa_f_no_sound.mp4","Ist der Ball in der blauen Box?","Green","Blue","J","affirmation","na","gesture","na","HeadNod","female","gesture-speech","1440","900","chrome","59.78","Mac OS","20","female","right","Thu Oct 17 2024 10:32:55 GMT+0200 (Mitteleuropäische Sommerzeit)","2","94","1","1729155398197"
"742","f","SpeechGestureMatch","../RequiredFiles/videos/NeinKopfNein_f.mp4","Ist der Ball in der blauen Box?","Green","Blue","F","negation","match","gesture","no","HeadShake","female","gesture-speech","1440","900","chrome","59.78","Mac OS","20","female","right","Thu Oct 17 2024 10:33:01 GMT+0200 (Mitteleuropäische Sommerzeit)","2","95","0","1729155398197"
"608","f","SpeechGestureMatch","../RequiredFiles/videos/JaKopfNein_f_no_sound.mp4","Ist der Ball in der grünen Box?","Blue","Green","F","negation","na","gesture","na","HeadShake","female","gesture-speech","1440","900","chrome","59.78","Mac OS","20","female","right","Thu Oct 17 2024 10:33:07 GMT+0200 (Mitteleuropäische Sommerzeit)","2","96","0","1729155398197"
"794","f","SpeechGestureMatch","../RequiredFiles/videos/JaKopfJa_f.mp4","Ist der Ball in der blauen Box?","Blue","Green","F","affirmation","match","speech","yes","HeadNod","female","gesture-speech","1440","900","chrome","59.78","Mac OS","20","female","right","Thu Oct 17 2024 10:36:06 GMT+0200 (Mitteleuropäische Sommerzeit)","3","1","0","1729155398197"
"742","f","SpeechGestureMatch","../RequiredFiles/videos/NeinKopfJa_m.mp4","Ist der Ball in der blauen Box?","Green","Blue","F","negation","mismatch","speech","no","HeadNod","male","gesture-speech","1440","900","chrome","59.78","Mac OS","20","female","right","Thu Oct 17 2024 10:36:12 GMT+0200 (Mitteleuropäische Sommerzeit)","3","2","0","1729155398197"
"750","j","SpeechGestureMatch","../RequiredFiles/videos/JaKopfJa_f.mp4","Ist der Ball in der grünen Box?","Blue","Green","J","affirmation","match","speech","yes","HeadNod","female","gesture-speech","1440","900","chrome","59.78","Mac OS","20","female","right","Thu Oct 17 2024 10:36:18 GMT+0200 (Mitteleuropäische Sommerzeit)","3","3","0","1729155398197"
"726","f","SpeechGestureMatch","../RequiredFiles/videos/NeinKopfJa_m_no_gesture.mp4","Ist der Ball in der blauen Box?","Green","Blue","F","negation","na","speech","no","na","male","gesture-speech","1440","900","chrome","59.78","Mac OS","20","female","right","Thu Oct 17 2024 10:36:25 GMT+0200 (Mitteleuropäische Sommerzeit)","3","4","0","1729155398197"
"761","f","SpeechGestureMatch","../RequiredFiles/videos/NeinKopfNein_m_no_gesture.mp4","Ist der Ball in der blauen Box?","Green","Blue","F","negation","na","speech","no","na","male","gesture-speech","1440","900","chrome","59.78","Mac OS","20","female","right","Thu Oct 17 2024 10:36:31 GMT+0200 (Mitteleuropäische Sommerzeit)","3","5","0","1729155398197"
"835","f","SpeechGestureMatch","../RequiredFiles/videos/JaKopfNein_m.mp4","Ist der Ball in der grünen Box?","Green","Blue","F","affirmation","mismatch","speech","yes","HeadShake","male","gesture-speech","1440","900","chrome","59.78","Mac OS","20","female","right","Thu Oct 17 2024 10:36:37 GMT+0200 (Mitteleuropäische Sommerzeit)","3","6","0","1729155398197"
"914","f","SpeechGestureMatch","../RequiredFiles/videos/JaKopfNein_m_no_gesture.mp4","Ist der Ball in der grünen Box?","Green","Blue","F","affirmation","na","speech","yes","na","male","gesture-speech","1440","900","chrome","59.78","Mac OS","20","female","right","Thu Oct 17 2024 10:36:44 GMT+0200 (Mitteleuropäische Sommerzeit)","3","7","0","1729155398197"
"895","f","SpeechGestureMatch","../RequiredFiles/videos/JaKopfJa_f.mp4","Ist der Ball in der grünen Box?","Green","Blue","F","affirmation","match","speech","yes","HeadNod","female","gesture-speech","1440","900","chrome","59.78","Mac OS","20","female","right","Thu Oct 17 2024 10:36:50 GMT+0200 (Mitteleuropäische Sommerzeit)","3","8","0","1729155398197"
"668","j","SpeechGestureMatch","../RequiredFiles/videos/NeinKopfNein_f.mp4","Ist der Ball in der grünen Box?","Green","Blue","J","negation","match","speech","no","HeadShake","female","gesture-speech","1440","900","chrome","59.78","Mac OS","20","female","right","Thu Oct 17 2024 10:36:56 GMT+0200 (Mitteleuropäische Sommerzeit)","3","9","0","1729155398197"
"850","f","SpeechGestureMatch","../RequiredFiles/videos/NeinKopfJa_f_no_gesture.mp4","Ist der Ball in der grünen Box?","Blue","Green","F","negation","na","speech","no","na","female","gesture-speech","1440","900","chrome","59.78","Mac OS","20","female","right","Thu Oct 17 2024 10:37:03 GMT+0200 (Mitteleuropäische Sommerzeit)","3","10","0","1729155398197"
"1043","f","SpeechGestureMatch","../RequiredFiles/videos/NeinKopfNein_m.mp4","Ist der Ball in der blauen Box?","Green","Blue","F","negation","match","speech","no","HeadShake","male","gesture-speech","1440","900","chrome","59.78","Mac OS","20","female","right","Thu Oct 17 2024 10:37:09 GMT+0200 (Mitteleuropäische Sommerzeit)","3","11","0","1729155398197"
"1044","f","SpeechGestureMatch","../RequiredFiles/videos/JaKopfNein_m.mp4","Ist der Ball in der blauen Box?","Blue","Green","F","affirmation","mismatch","speech","yes","HeadShake","male","gesture-speech","1440","900","chrome","59.78","Mac OS","20","female","right","Thu Oct 17 2024 10:37:16 GMT+0200 (Mitteleuropäische Sommerzeit)","3","12","0","1729155398197"
"770","j","SpeechGestureMatch","../RequiredFiles/videos/NeinKopfJa_f.mp4","Ist der Ball in der grünen Box?","Green","Blue","J","negation","mismatch","speech","no","HeadNod","female","gesture-speech","1440","900","chrome","59.78","Mac OS","20","female","right","Thu Oct 17 2024 10:37:22 GMT+0200 (Mitteleuropäische Sommerzeit)","3","13","0","1729155398197"
"787","j","SpeechGestureMatch","../RequiredFiles/videos/NeinKopfNein_m_no_gesture.mp4","Ist der Ball in der grünen Box?","Green","Blue","J","negation","na","speech","no","na","male","gesture-speech","1440","900","chrome","59.78","Mac OS","20","female","right","Thu Oct 17 2024 10:37:28 GMT+0200 (Mitteleuropäische Sommerzeit)","3","14","0","1729155398197"
"738","j","SpeechGestureMatch","../RequiredFiles/videos/NeinKopfNein_m_no_gesture.mp4","Ist der Ball in der blauen Box?","Blue","Green","J","negation","na","speech","no","na","male","gesture-speech","1440","900","chrome","59.78","Mac OS","20","female","right","Thu Oct 17 2024 10:37:35 GMT+0200 (Mitteleuropäische Sommerzeit)","3","15","0","1729155398197"
"678","j","SpeechGestureMatch","../RequiredFiles/videos/NeinKopfJa_m.mp4","Ist der Ball in der blauen Box?","Green","Blue","F","negation","mismatch","speech","no","HeadNod","male","gesture-speech","1440","900","chrome","59.78","Mac OS","20","female","right","Thu Oct 17 2024 10:37:41 GMT+0200 (Mitteleuropäische Sommerzeit)","3","16","1","1729155398197"
"782","f","SpeechGestureMatch","../RequiredFiles/videos/NeinKopfJa_f.mp4","Ist der Ball in der blauen Box?","Green","Blue","F","negation","mismatch","speech","no","HeadNod","female","gesture-speech","1440","900","chrome","59.78","Mac OS","20","female","right","Thu Oct 17 2024 10:37:47 GMT+0200 (Mitteleuropäische Sommerzeit)","3","17","0","1729155398197"
"1014","j","SpeechGestureMatch","../RequiredFiles/videos/JaKopfNein_m_no_gesture.mp4","Ist der Ball in der blauen Box?","Green","Blue","J","affirmation","na","speech","yes","na","male","gesture-speech","1440","900","chrome","59.78","Mac OS","20","female","right","Thu Oct 17 2024 10:37:54 GMT+0200 (Mitteleuropäische Sommerzeit)","3","18","0","1729155398197"
"729","j","SpeechGestureMatch","../RequiredFiles/videos/JaKopfJa_m_no_gesture.mp4","Ist der Ball in der grünen Box?","Blue","Green","J","affirmation","na","speech","yes","na","male","gesture-speech","1440","900","chrome","59.78","Mac OS","20","female","right","Thu Oct 17 2024 10:38:00 GMT+0200 (Mitteleuropäische Sommerzeit)","3","19","0","1729155398197"
"766","f","SpeechGestureMatch","../RequiredFiles/videos/NeinKopfJa_f.mp4","Ist der Ball in der blauen Box?","Green","Blue","F","negation","mismatch","speech","no","HeadNod","female","gesture-speech","1440","900","chrome","59.78","Mac OS","20","female","right","Thu Oct 17 2024 10:38:06 GMT+0200 (Mitteleuropäische Sommerzeit)","3","20","0","1729155398197"
"796","f","SpeechGestureMatch","../RequiredFiles/videos/NeinKopfJa_f.mp4","Ist der Ball in der grünen Box?","Blue","Green","F","negation","mismatch","speech","no","HeadNod","female","gesture-speech","1440","900","chrome","59.78","Mac OS","20","female","right","Thu Oct 17 2024 10:38:12 GMT+0200 (Mitteleuropäische Sommerzeit)","3","21","0","1729155398197"
"878","f","SpeechGestureMatch","../RequiredFiles/videos/NeinKopfNein_f.mp4","Ist der Ball in der grünen Box?","Blue","Green","F","negation","match","speech","no","HeadShake","female","gesture-speech","1440","900","chrome","59.78","Mac OS","20","female","right","Thu Oct 17 2024 10:38:19 GMT+0200 (Mitteleuropäische Sommerzeit)","3","22","0","1729155398197"
"707","j","SpeechGestureMatch","../RequiredFiles/videos/NeinKopfNein_f.mp4","Ist der Ball in der blauen Box?","Blue","Green","J","negation","match","speech","no","HeadShake","female","gesture-speech","1440","900","chrome","59.78","Mac OS","20","female","right","Thu Oct 17 2024 10:38:25 GMT+0200 (Mitteleuropäische Sommerzeit)","3","23","0","1729155398197"
"728","f","SpeechGestureMatch","../RequiredFiles/videos/JaKopfJa_f.mp4","Ist der Ball in der grünen Box?","Green","Blue","F","affirmation","match","speech","yes","HeadNod","female","gesture-speech","1440","900","chrome","59.78","Mac OS","20","female","right","Thu Oct 17 2024 10:38:31 GMT+0200 (Mitteleuropäische Sommerzeit)","3","24","0","1729155398197"
"1147","f","SpeechGestureMatch","../RequiredFiles/videos/NeinKopfNein_f_no_gesture.mp4","Ist der Ball in der blauen Box?","Green","Blue","F","negation","na","speech","no","na","female","gesture-speech","1440","900","chrome","59.78","Mac OS","20","female","right","Thu Oct 17 2024 10:38:38 GMT+0200 (Mitteleuropäische Sommerzeit)","3","25","0","1729155398197"
"771","j","SpeechGestureMatch","../RequiredFiles/videos/JaKopfNein_m_no_gesture.mp4","Ist der Ball in der grünen Box?","Blue","Green","J","affirmation","na","speech","yes","na","male","gesture-speech","1440","900","chrome","59.78","Mac OS","20","female","right","Thu Oct 17 2024 10:38:44 GMT+0200 (Mitteleuropäische Sommerzeit)","3","26","0","1729155398197"
"705","j","SpeechGestureMatch","../RequiredFiles/videos/JaKopfJa_f.mp4","Ist der Ball in der blauen Box?","Green","Blue","J","affirmation","match","speech","yes","HeadNod","female","gesture-speech","1440","900","chrome","59.78","Mac OS","20","female","right","Thu Oct 17 2024 10:38:50 GMT+0200 (Mitteleuropäische Sommerzeit)","3","27","0","1729155398197"
"1022","j","SpeechGestureMatch","../RequiredFiles/videos/NeinKopfJa_m.mp4","Ist der Ball in der grünen Box?","Green","Blue","J","negation","mismatch","speech","no","HeadNod","male","gesture-speech","1440","900","chrome","59.78","Mac OS","20","female","right","Thu Oct 17 2024 10:38:57 GMT+0200 (Mitteleuropäische Sommerzeit)","3","28","0","1729155398197"
"972","f","SpeechGestureMatch","../RequiredFiles/videos/JaKopfNein_f.mp4","Ist der Ball in der blauen Box?","Blue","Green","F","affirmation","mismatch","speech","yes","HeadShake","female","gesture-speech","1440","900","chrome","59.78","Mac OS","20","female","right","Thu Oct 17 2024 10:39:04 GMT+0200 (Mitteleuropäische Sommerzeit)","3","29","0","1729155398197"
"713","j","SpeechGestureMatch","../RequiredFiles/videos/NeinKopfJa_f_no_gesture.mp4","Ist der Ball in der grünen Box?","Green","Blue","J","negation","na","speech","no","na","female","gesture-speech","1440","900","chrome","59.78","Mac OS","20","female","right","Thu Oct 17 2024 10:39:10 GMT+0200 (Mitteleuropäische Sommerzeit)","3","30","0","1729155398197"
"758","f","SpeechGestureMatch","../RequiredFiles/videos/NeinKopfNein_m.mp4","Ist der Ball in der blauen Box?","Green","Blue","F","negation","match","speech","no","HeadShake","male","gesture-speech","1440","900","chrome","59.78","Mac OS","20","female","right","Thu Oct 17 2024 10:39:16 GMT+0200 (Mitteleuropäische Sommerzeit)","3","31","0","1729155398197"
"773","j","SpeechGestureMatch","../RequiredFiles/videos/NeinKopfNein_m.mp4","Ist der Ball in der blauen Box?","Blue","Green","J","negation","match","speech","no","HeadShake","male","gesture-speech","1440","900","chrome","59.78","Mac OS","20","female","right","Thu Oct 17 2024 10:39:22 GMT+0200 (Mitteleuropäische Sommerzeit)","3","32","0","1729155398197"
"717","f","SpeechGestureMatch","../RequiredFiles/videos/JaKopfJa_f.mp4","Ist der Ball in der blauen Box?","Blue","Green","F","affirmation","match","speech","yes","HeadNod","female","gesture-speech","1440","900","chrome","59.78","Mac OS","20","female","right","Thu Oct 17 2024 10:39:29 GMT+0200 (Mitteleuropäische Sommerzeit)","3","33","0","1729155398197"
"808","f","SpeechGestureMatch","../RequiredFiles/videos/JaKopfJa_m_no_gesture.mp4","Ist der Ball in der grünen Box?","Green","Blue","F","affirmation","na","speech","yes","na","male","gesture-speech","1440","900","chrome","59.78","Mac OS","20","female","right","Thu Oct 17 2024 10:39:35 GMT+0200 (Mitteleuropäische Sommerzeit)","3","34","0","1729155398197"
"699","f","SpeechGestureMatch","../RequiredFiles/videos/NeinKopfNein_f.mp4","Ist der Ball in der grünen Box?","Blue","Green","F","negation","match","speech","no","HeadShake","female","gesture-speech","1440","900","chrome","59.78","Mac OS","20","female","right","Thu Oct 17 2024 10:39:41 GMT+0200 (Mitteleuropäische Sommerzeit)","3","35","0","1729155398197"
"695","f","SpeechGestureMatch","../RequiredFiles/videos/NeinKopfNein_f.mp4","Ist der Ball in der blauen Box?","Green","Blue","F","negation","match","speech","no","HeadShake","female","gesture-speech","1440","900","chrome","59.78","Mac OS","20","female","right","Thu Oct 17 2024 10:39:47 GMT+0200 (Mitteleuropäische Sommerzeit)","3","36","0","1729155398197"
"664","j","SpeechGestureMatch","../RequiredFiles/videos/NeinKopfNein_m.mp4","Ist der Ball in der grünen Box?","Green","Blue","J","negation","match","speech","no","HeadShake","male","gesture-speech","1440","900","chrome","59.78","Mac OS","20","female","right","Thu Oct 17 2024 10:39:53 GMT+0200 (Mitteleuropäische Sommerzeit)","3","37","0","1729155398197"
"796","j","SpeechGestureMatch","../RequiredFiles/videos/NeinKopfJa_f.mp4","Ist der Ball in der grünen Box?","Green","Blue","J","negation","mismatch","speech","no","HeadNod","female","gesture-speech","1440","900","chrome","59.78","Mac OS","20","female","right","Thu Oct 17 2024 10:40:00 GMT+0200 (Mitteleuropäische Sommerzeit)","3","38","0","1729155398197"
"697","j","SpeechGestureMatch","../RequiredFiles/videos/JaKopfJa_m.mp4","Ist der Ball in der blauen Box?","Green","Blue","J","affirmation","match","speech","yes","HeadNod","male","gesture-speech","1440","900","chrome","59.78","Mac OS","20","female","right","Thu Oct 17 2024 10:40:06 GMT+0200 (Mitteleuropäische Sommerzeit)","3","39","0","1729155398197"
"764","j","SpeechGestureMatch","../RequiredFiles/videos/JaKopfNein_f.mp4","Ist der Ball in der blauen Box?","Green","Blue","J","affirmation","mismatch","speech","yes","HeadShake","female","gesture-speech","1440","900","chrome","59.78","Mac OS","20","female","right","Thu Oct 17 2024 10:40:12 GMT+0200 (Mitteleuropäische Sommerzeit)","3","40","0","1729155398197"
"896","j","SpeechGestureMatch","../RequiredFiles/videos/JaKopfNein_m.mp4","Ist der Ball in der blauen Box?","Green","Blue","J","affirmation","mismatch","speech","yes","HeadShake","male","gesture-speech","1440","900","chrome","59.78","Mac OS","20","female","right","Thu Oct 17 2024 10:40:19 GMT+0200 (Mitteleuropäische Sommerzeit)","3","41","0","1729155398197"
"816","f","SpeechGestureMatch","../RequiredFiles/videos/JaKopfJa_f_no_gesture.mp4","Ist der Ball in der grünen Box?","Green","Blue","F","affirmation","na","speech","yes","na","female","gesture-speech","1440","900","chrome","59.78","Mac OS","20","female","right","Thu Oct 17 2024 10:40:25 GMT+0200 (Mitteleuropäische Sommerzeit)","3","42","0","1729155398197"
"728","j","SpeechGestureMatch","../RequiredFiles/videos/NeinKopfJa_f.mp4","Ist der Ball in der blauen Box?","Blue","Green","J","negation","mismatch","speech","no","HeadNod","female","gesture-speech","1440","900","chrome","59.78","Mac OS","20","female","right","Thu Oct 17 2024 10:40:31 GMT+0200 (Mitteleuropäische Sommerzeit)","3","43","0","1729155398197"
"746","j","SpeechGestureMatch","../RequiredFiles/videos/JaKopfNein_m.mp4","Ist der Ball in der grünen Box?","Blue","Green","J","affirmation","mismatch","speech","yes","HeadShake","male","gesture-speech","1440","900","chrome","59.78","Mac OS","20","female","right","Thu Oct 17 2024 10:40:38 GMT+0200 (Mitteleuropäische Sommerzeit)","3","44","0","1729155398197"
"704","j","SpeechGestureMatch","../RequiredFiles/videos/NeinKopfNein_m.mp4","Ist der Ball in der blauen Box?","Blue","Green","J","negation","match","speech","no","HeadShake","male","gesture-speech","1440","900","chrome","59.78","Mac OS","20","female","right","Thu Oct 17 2024 10:40:44 GMT+0200 (Mitteleuropäische Sommerzeit)","3","45","0","1729155398197"
"830","j","SpeechGestureMatch","../RequiredFiles/videos/NeinKopfJa_m_no_gesture.mp4","Ist der Ball in der blauen Box?","Blue","Green","J","negation","na","speech","no","na","male","gesture-speech","1440","900","chrome","59.78","Mac OS","20","female","right","Thu Oct 17 2024 10:40:50 GMT+0200 (Mitteleuropäische Sommerzeit)","3","46","0","1729155398197"
"817","f","SpeechGestureMatch","../RequiredFiles/videos/NeinKopfNein_m.mp4","Ist der Ball in der grünen Box?","Blue","Green","F","negation","match","speech","no","HeadShake","male","gesture-speech","1440","900","chrome","59.78","Mac OS","20","female","right","Thu Oct 17 2024 10:40:56 GMT+0200 (Mitteleuropäische Sommerzeit)","3","47","0","1729155398197"
"863","j","SpeechGestureMatch","../RequiredFiles/videos/JaKopfNein_f.mp4","Ist der Ball in der grünen Box?","Blue","Green","J","affirmation","mismatch","speech","yes","HeadShake","female","gesture-speech","1440","900","chrome","59.78","Mac OS","20","female","right","Thu Oct 17 2024 10:41:03 GMT+0200 (Mitteleuropäische Sommerzeit)","3","48","0","1729155398197"
"748","j","SpeechGestureMatch","../RequiredFiles/videos/NeinKopfNein_f_no_gesture.mp4","Ist der Ball in der blauen Box?","Blue","Green","J","negation","na","speech","no","na","female","gesture-speech","1440","900","chrome","59.78","Mac OS","20","female","right","Thu Oct 17 2024 10:41:09 GMT+0200 (Mitteleuropäische Sommerzeit)","3","49","0","1729155398197"
"846","j","SpeechGestureMatch","../RequiredFiles/videos/JaKopfJa_f_no_gesture.mp4","Ist der Ball in der grünen Box?","Blue","Green","J","affirmation","na","speech","yes","na","female","gesture-speech","1440","900","chrome","59.78","Mac OS","20","female","right","Thu Oct 17 2024 10:41:15 GMT+0200 (Mitteleuropäische Sommerzeit)","3","50","0","1729155398197"
"910","f","SpeechGestureMatch","../RequiredFiles/videos/JaKopfNein_f.mp4","Ist der Ball in der grünen Box?","Green","Blue","F","affirmation","mismatch","speech","yes","HeadShake","female","gesture-speech","1440","900","chrome","59.78","Mac OS","20","female","right","Thu Oct 17 2024 10:41:22 GMT+0200 (Mitteleuropäische Sommerzeit)","3","51","0","1729155398197"
"736","f","SpeechGestureMatch","../RequiredFiles/videos/NeinKopfNein_m_no_gesture.mp4","Ist der Ball in der grünen Box?","Blue","Green","F","negation","na","speech","no","na","male","gesture-speech","1440","900","chrome","59.78","Mac OS","20","female","right","Thu Oct 17 2024 10:41:28 GMT+0200 (Mitteleuropäische Sommerzeit)","3","52","0","1729155398197"
"729","f","SpeechGestureMatch","../RequiredFiles/videos/JaKopfNein_f_no_gesture.mp4","Ist der Ball in der blauen Box?","Blue","Green","F","affirmation","na","speech","yes","na","female","gesture-speech","1440","900","chrome","59.78","Mac OS","20","female","right","Thu Oct 17 2024 10:41:34 GMT+0200 (Mitteleuropäische Sommerzeit)","3","53","0","1729155398197"
"811","f","SpeechGestureMatch","../RequiredFiles/videos/NeinKopfJa_f_no_gesture.mp4","Ist der Ball in der blauen Box?","Green","Blue","F","negation","na","speech","no","na","female","gesture-speech","1440","900","chrome","59.78","Mac OS","20","female","right","Thu Oct 17 2024 10:41:41 GMT+0200 (Mitteleuropäische Sommerzeit)","3","54","0","1729155398197"
"766","j","SpeechGestureMatch","../RequiredFiles/videos/NeinKopfNein_f.mp4","Ist der Ball in der grünen Box?","Green","Blue","J","negation","match","speech","no","HeadShake","female","gesture-speech","1440","900","chrome","59.78","Mac OS","20","female","right","Thu Oct 17 2024 10:41:47 GMT+0200 (Mitteleuropäische Sommerzeit)","3","55","0","1729155398197"
"698","j","SpeechGestureMatch","../RequiredFiles/videos/NeinKopfJa_m.mp4","Ist der Ball in der blauen Box?","Blue","Green","J","negation","mismatch","speech","no","HeadNod","male","gesture-speech","1440","900","chrome","59.78","Mac OS","20","female","right","Thu Oct 17 2024 10:41:53 GMT+0200 (Mitteleuropäische Sommerzeit)","3","56","0","1729155398197"
"646","f","SpeechGestureMatch","../RequiredFiles/videos/NeinKopfNein_m.mp4","Ist der Ball in der grünen Box?","Blue","Green","F","negation","match","speech","no","HeadShake","male","gesture-speech","1440","900","chrome","59.78","Mac OS","20","female","right","Thu Oct 17 2024 10:41:59 GMT+0200 (Mitteleuropäische Sommerzeit)","3","57","0","1729155398197"
"810","f","SpeechGestureMatch","../RequiredFiles/videos/JaKopfNein_m.mp4","Ist der Ball in der grünen Box?","Blue","Green","J","affirmation","mismatch","speech","yes","HeadShake","male","gesture-speech","1440","900","chrome","59.78","Mac OS","20","female","right","Thu Oct 17 2024 10:42:06 GMT+0200 (Mitteleuropäische Sommerzeit)","3","58","1","1729155398197"
"728","j","SpeechGestureMatch","../RequiredFiles/videos/JaKopfJa_f.mp4","Ist der Ball in der blauen Box?","Green","Blue","J","affirmation","match","speech","yes","HeadNod","female","gesture-speech","1440","900","chrome","59.78","Mac OS","20","female","right","Thu Oct 17 2024 10:42:12 GMT+0200 (Mitteleuropäische Sommerzeit)","3","59","0","1729155398197"
"717","j","SpeechGestureMatch","../RequiredFiles/videos/NeinKopfJa_m.mp4","Ist der Ball in der blauen Box?","Blue","Green","J","negation","mismatch","speech","no","HeadNod","male","gesture-speech","1440","900","chrome","59.78","Mac OS","20","female","right","Thu Oct 17 2024 10:42:18 GMT+0200 (Mitteleuropäische Sommerzeit)","3","60","0","1729155398197"
"1100","j","SpeechGestureMatch","../RequiredFiles/videos/JaKopfNein_m.mp4","Ist der Ball in der blauen Box?","Green","Blue","J","affirmation","mismatch","speech","yes","HeadShake","male","gesture-speech","1440","900","chrome","59.78","Mac OS","20","female","right","Thu Oct 17 2024 10:42:25 GMT+0200 (Mitteleuropäische Sommerzeit)","3","61","0","1729155398197"
"974","f","SpeechGestureMatch","../RequiredFiles/videos/JaKopfJa_f_no_gesture.mp4","Ist der Ball in der blauen Box?","Blue","Green","F","affirmation","na","speech","yes","na","female","gesture-speech","1440","900","chrome","59.78","Mac OS","20","female","right","Thu Oct 17 2024 10:42:31 GMT+0200 (Mitteleuropäische Sommerzeit)","3","62","0","1729155398197"
"921","j","SpeechGestureMatch","../RequiredFiles/videos/NeinKopfJa_m_no_gesture.mp4","Ist der Ball in der grünen Box?","Green","Blue","J","negation","na","speech","no","na","male","gesture-speech","1440","900","chrome","59.78","Mac OS","20","female","right","Thu Oct 17 2024 10:42:38 GMT+0200 (Mitteleuropäische Sommerzeit)","3","63","0","1729155398197"
"885","f","SpeechGestureMatch","../RequiredFiles/videos/JaKopfNein_f_no_gesture.mp4","Ist der Ball in der grünen Box?","Green","Blue","F","affirmation","na","speech","yes","na","female","gesture-speech","1440","900","chrome","59.78","Mac OS","20","female","right","Thu Oct 17 2024 10:42:44 GMT+0200 (Mitteleuropäische Sommerzeit)","3","64","0","1729155398197"
"685","j","SpeechGestureMatch","../RequiredFiles/videos/JaKopfNein_f.mp4","Ist der Ball in der grünen Box?","Blue","Green","J","affirmation","mismatch","speech","yes","HeadShake","female","gesture-speech","1440","900","chrome","59.78","Mac OS","20","female","right","Thu Oct 17 2024 10:42:50 GMT+0200 (Mitteleuropäische Sommerzeit)","3","65","0","1729155398197"
"727","j","SpeechGestureMatch","../RequiredFiles/videos/JaKopfJa_f_no_gesture.mp4","Ist der Ball in der blauen Box?","Green","Blue","J","affirmation","na","speech","yes","na","female","gesture-speech","1440","900","chrome","59.78","Mac OS","20","female","right","Thu Oct 17 2024 10:42:57 GMT+0200 (Mitteleuropäische Sommerzeit)","3","66","0","1729155398197"
"732","f","SpeechGestureMatch","../RequiredFiles/videos/NeinKopfJa_m.mp4","Ist der Ball in der grünen Box?","Blue","Green","F","negation","mismatch","speech","no","HeadNod","male","gesture-speech","1440","900","chrome","59.78","Mac OS","20","female","right","Thu Oct 17 2024 10:43:03 GMT+0200 (Mitteleuropäische Sommerzeit)","3","67","0","1729155398197"
"721","f","SpeechGestureMatch","../RequiredFiles/videos/JaKopfNein_m.mp4","Ist der Ball in der blauen Box?","Blue","Green","F","affirmation","mismatch","speech","yes","HeadShake","male","gesture-speech","1440","900","chrome","59.78","Mac OS","20","female","right","Thu Oct 17 2024 10:43:09 GMT+0200 (Mitteleuropäische Sommerzeit)","3","68","0","1729155398197"
"837","j","SpeechGestureMatch","../RequiredFiles/videos/NeinKopfNein_f.mp4","Ist der Ball in der blauen Box?","Green","Blue","F","negation","match","speech","no","HeadShake","female","gesture-speech","1440","900","chrome","59.78","Mac OS","20","female","right","Thu Oct 17 2024 10:43:16 GMT+0200 (Mitteleuropäische Sommerzeit)","3","69","1","1729155398197"
"754","j","SpeechGestureMatch","../RequiredFiles/videos/JaKopfJa_m_no_gesture.mp4","Ist der Ball in der blauen Box?","Green","Blue","J","affirmation","na","speech","yes","na","male","gesture-speech","1440","900","chrome","59.78","Mac OS","20","female","right","Thu Oct 17 2024 10:43:22 GMT+0200 (Mitteleuropäische Sommerzeit)","3","70","0","1729155398197"
"721","j","SpeechGestureMatch","../RequiredFiles/videos/JaKopfNein_f_no_gesture.mp4","Ist der Ball in der grünen Box?","Blue","Green","J","affirmation","na","speech","yes","na","female","gesture-speech","1440","900","chrome","59.78","Mac OS","20","female","right","Thu Oct 17 2024 10:43:28 GMT+0200 (Mitteleuropäische Sommerzeit)","3","71","0","1729155398197"
"756","f","SpeechGestureMatch","../RequiredFiles/videos/JaKopfJa_m_no_gesture.mp4","Ist der Ball in der blauen Box?","Blue","Green","F","affirmation","na","speech","yes","na","male","gesture-speech","1440","900","chrome","59.78","Mac OS","20","female","right","Thu Oct 17 2024 10:43:34 GMT+0200 (Mitteleuropäische Sommerzeit)","3","72","0","1729155398197"
"795","j","SpeechGestureMatch","../RequiredFiles/videos/NeinKopfJa_f_no_gesture.mp4","Ist der Ball in der blauen Box?","Blue","Green","J","negation","na","speech","no","na","female","gesture-speech","1440","900","chrome","59.78","Mac OS","20","female","right","Thu Oct 17 2024 10:43:41 GMT+0200 (Mitteleuropäische Sommerzeit)","3","73","0","1729155398197"
"638","j","SpeechGestureMatch","../RequiredFiles/videos/JaKopfJa_m.mp4","Ist der Ball in der grünen Box?","Blue","Green","J","affirmation","match","speech","yes","HeadNod","male","gesture-speech","1440","900","chrome","59.78","Mac OS","20","female","right","Thu Oct 17 2024 10:43:47 GMT+0200 (Mitteleuropäische Sommerzeit)","3","74","0","1729155398197"
"879","f","SpeechGestureMatch","../RequiredFiles/videos/JaKopfNein_m.mp4","Ist der Ball in der grünen Box?","Green","Blue","F","affirmation","mismatch","speech","yes","HeadShake","male","gesture-speech","1440","900","chrome","59.78","Mac OS","20","female","right","Thu Oct 17 2024 10:43:53 GMT+0200 (Mitteleuropäische Sommerzeit)","3","75","0","1729155398197"
"771","f","SpeechGestureMatch","../RequiredFiles/videos/NeinKopfJa_m.mp4","Ist der Ball in der grünen Box?","Blue","Green","F","negation","mismatch","speech","no","HeadNod","male","gesture-speech","1440","900","chrome","59.78","Mac OS","20","female","right","Thu Oct 17 2024 10:43:59 GMT+0200 (Mitteleuropäische Sommerzeit)","3","76","0","1729155398197"
"876","j","SpeechGestureMatch","../RequiredFiles/videos/NeinKopfJa_m.mp4","Ist der Ball in der grünen Box?","Green","Blue","J","negation","mismatch","speech","no","HeadNod","male","gesture-speech","1440","900","chrome","59.78","Mac OS","20","female","right","Thu Oct 17 2024 10:44:06 GMT+0200 (Mitteleuropäische Sommerzeit)","3","77","0","1729155398197"
"1180","f","SpeechGestureMatch","../RequiredFiles/videos/JaKopfNein_f.mp4","Ist der Ball in der grünen Box?","Green","Blue","F","affirmation","mismatch","speech","yes","HeadShake","female","gesture-speech","1440","900","chrome","59.78","Mac OS","20","female","right","Thu Oct 17 2024 10:44:13 GMT+0200 (Mitteleuropäische Sommerzeit)","3","78","0","1729155398197"
"745","f","SpeechGestureMatch","../RequiredFiles/videos/JaKopfJa_m.mp4","Ist der Ball in der grünen Box?","Green","Blue","F","affirmation","match","speech","yes","HeadNod","male","gesture-speech","1440","900","chrome","59.78","Mac OS","20","female","right","Thu Oct 17 2024 10:44:19 GMT+0200 (Mitteleuropäische Sommerzeit)","3","79","0","1729155398197"
"640","f","SpeechGestureMatch","../RequiredFiles/videos/JaKopfJa_m.mp4","Ist der Ball in der blauen Box?","Blue","Green","F","affirmation","match","speech","yes","HeadNod","male","gesture-speech","1440","900","chrome","59.78","Mac OS","20","female","right","Thu Oct 17 2024 10:44:25 GMT+0200 (Mitteleuropäische Sommerzeit)","3","80","0","1729155398197"
"664","j","SpeechGestureMatch","../RequiredFiles/videos/JaKopfJa_m.mp4","Ist der Ball in der grünen Box?","Blue","Green","J","affirmation","match","speech","yes","HeadNod","male","gesture-speech","1440","900","chrome","59.78","Mac OS","20","female","right","Thu Oct 17 2024 10:44:31 GMT+0200 (Mitteleuropäische Sommerzeit)","3","81","0","1729155398197"
"727","f","SpeechGestureMatch","../RequiredFiles/videos/NeinKopfNein_f_no_gesture.mp4","Ist der Ball in der grünen Box?","Blue","Green","F","negation","na","speech","no","na","female","gesture-speech","1440","900","chrome","59.78","Mac OS","20","female","right","Thu Oct 17 2024 10:44:37 GMT+0200 (Mitteleuropäische Sommerzeit)","3","82","0","1729155398197"
"760","f","SpeechGestureMatch","../RequiredFiles/videos/JaKopfJa_m.mp4","Ist der Ball in der blauen Box?","Blue","Green","F","affirmation","match","speech","yes","HeadNod","male","gesture-speech","1440","900","chrome","59.78","Mac OS","20","female","right","Thu Oct 17 2024 10:44:44 GMT+0200 (Mitteleuropäische Sommerzeit)","3","83","0","1729155398197"
"817","f","SpeechGestureMatch","../RequiredFiles/videos/JaKopfNein_f.mp4","Ist der Ball in der blauen Box?","Blue","Green","F","affirmation","mismatch","speech","yes","HeadShake","female","gesture-speech","1440","900","chrome","59.78","Mac OS","20","female","right","Thu Oct 17 2024 10:44:50 GMT+0200 (Mitteleuropäische Sommerzeit)","3","84","0","1729155398197"
"696","f","SpeechGestureMatch","../RequiredFiles/videos/JaKopfNein_m_no_gesture.mp4","Ist der Ball in der blauen Box?","Blue","Green","F","affirmation","na","speech","yes","na","male","gesture-speech","1440","900","chrome","59.78","Mac OS","20","female","right","Thu Oct 17 2024 10:44:56 GMT+0200 (Mitteleuropäische Sommerzeit)","3","85","0","1729155398197"
