"rt","response","stim","video","question","box_colour_left","box_colour_right","correct_key","polarity","matching","modality","verbal","gesture","speaker","order","width","height","browser","vsync_rate","os","age","gender","handedness","date","blockNum","trialNum","error","vpNum"
"771","j","SpeechGestureMatch","../RequiredFiles/videos/JaKopfJa_f.mp4","Ist der Ball in der grünen Box?","Blue","Green","J","affirmation","match","speech","yes","HeadNod","female","speech-gesture","1920","1080","opera","60.28","Windows 10","19","male","right","Wed Oct 23 2024 21:56:56 GMT+0200 (Mitteleuropäische Sommerzeit)","1","1","0","1729716476016"
"780","f","SpeechGestureMatch","../RequiredFiles/videos/NeinKopfJa_f.mp4","Ist der Ball in der blauen Box?","Green","Blue","F","negation","mismatch","speech","no","HeadNod","female","speech-gesture","1920","1080","opera","60.28","Windows 10","19","male","right","Wed Oct 23 2024 21:57:03 GMT+0200 (Mitteleuropäische Sommerzeit)","1","2","0","1729716476016"
"684","f","SpeechGestureMatch","../RequiredFiles/videos/JaKopfJa_m.mp4","Ist der Ball in der blauen Box?","Blue","Green","F","affirmation","match","speech","yes","HeadNod","male","speech-gesture","1920","1080","opera","60.28","Windows 10","19","male","right","Wed Oct 23 2024 21:57:09 GMT+0200 (Mitteleuropäische Sommerzeit)","1","3","0","1729716476016"
"797","j","SpeechGestureMatch","../RequiredFiles/videos/JaKopfNein_m_no_gesture.mp4","Ist der Ball in der grünen Box?","Blue","Green","J","affirmation","na","speech","yes","na","male","speech-gesture","1920","1080","opera","60.28","Windows 10","19","male","right","Wed Oct 23 2024 21:57:15 GMT+0200 (Mitteleuropäische Sommerzeit)","1","4","0","1729716476016"
"754","j","SpeechGestureMatch","../RequiredFiles/videos/NeinKopfNein_f_no_gesture.mp4","Ist der Ball in der grünen Box?","Green","Blue","J","negation","na","speech","no","na","female","speech-gesture","1920","1080","opera","60.28","Windows 10","19","male","right","Wed Oct 23 2024 21:57:22 GMT+0200 (Mitteleuropäische Sommerzeit)","1","5","0","1729716476016"
"721","j","SpeechGestureMatch","../RequiredFiles/videos/NeinKopfJa_f.mp4","Ist der Ball in der blauen Box?","Blue","Green","J","negation","mismatch","speech","no","HeadNod","female","speech-gesture","1920","1080","opera","60.28","Windows 10","19","male","right","Wed Oct 23 2024 21:57:28 GMT+0200 (Mitteleuropäische Sommerzeit)","1","6","0","1729716476016"
"796","f","SpeechGestureMatch","../RequiredFiles/videos/JaKopfJa_m_no_gesture.mp4","Ist der Ball in der blauen Box?","Blue","Green","F","affirmation","na","speech","yes","na","male","speech-gesture","1920","1080","opera","60.28","Windows 10","19","male","right","Wed Oct 23 2024 21:57:34 GMT+0200 (Mitteleuropäische Sommerzeit)","1","7","0","1729716476016"
"902","f","SpeechGestureMatch","../RequiredFiles/videos/NeinKopfJa_m.mp4","Ist der Ball in der grünen Box?","Blue","Green","F","negation","mismatch","speech","no","HeadNod","male","speech-gesture","1920","1080","opera","60.28","Windows 10","19","male","right","Wed Oct 23 2024 21:57:41 GMT+0200 (Mitteleuropäische Sommerzeit)","1","8","0","1729716476016"
"1445","f","SpeechGestureMatch","../RequiredFiles/videos/JaKopfNein_m.mp4","Ist der Ball in der grünen Box?","Green","Blue","F","affirmation","mismatch","speech","yes","HeadShake","male","speech-gesture","1920","1080","opera","60.28","Windows 10","19","male","right","Wed Oct 23 2024 21:57:48 GMT+0200 (Mitteleuropäische Sommerzeit)","1","9","0","1729716476016"
"1273","f","SpeechGestureMatch","../RequiredFiles/videos/NeinKopfJa_f.mp4","Ist der Ball in der blauen Box?","Green","Blue","F","negation","mismatch","speech","no","HeadNod","female","speech-gesture","1920","1080","opera","60.28","Windows 10","19","male","right","Wed Oct 23 2024 21:57:54 GMT+0200 (Mitteleuropäische Sommerzeit)","1","10","0","1729716476016"
"646","f","SpeechGestureMatch","../RequiredFiles/videos/JaKopfJa_f.mp4","Ist der Ball in der grünen Box?","Green","Blue","F","affirmation","match","speech","yes","HeadNod","female","speech-gesture","1920","1080","opera","60.28","Windows 10","19","male","right","Wed Oct 23 2024 21:58:01 GMT+0200 (Mitteleuropäische Sommerzeit)","1","11","0","1729716476016"
"772","f","SpeechGestureMatch","../RequiredFiles/videos/NeinKopfJa_m_no_gesture.mp4","Ist der Ball in der blauen Box?","Green","Blue","F","negation","na","speech","no","na","male","speech-gesture","1920","1080","opera","60.28","Windows 10","19","male","right","Wed Oct 23 2024 21:58:07 GMT+0200 (Mitteleuropäische Sommerzeit)","1","12","0","1729716476016"
"743","f","SpeechGestureMatch","../RequiredFiles/videos/JaKopfNein_f.mp4","Ist der Ball in der grünen Box?","Green","Blue","F","affirmation","mismatch","speech","yes","HeadShake","female","speech-gesture","1920","1080","opera","60.28","Windows 10","19","male","right","Wed Oct 23 2024 21:58:13 GMT+0200 (Mitteleuropäische Sommerzeit)","1","13","0","1729716476016"
"1119","f","SpeechGestureMatch","../RequiredFiles/videos/JaKopfNein_f.mp4","Ist der Ball in der blauen Box?","Blue","Green","F","affirmation","mismatch","speech","yes","HeadShake","female","speech-gesture","1920","1080","opera","60.28","Windows 10","19","male","right","Wed Oct 23 2024 21:58:20 GMT+0200 (Mitteleuropäische Sommerzeit)","1","14","0","1729716476016"
"873","j","SpeechGestureMatch","../RequiredFiles/videos/JaKopfJa_m.mp4","Ist der Ball in der blauen Box?","Green","Blue","J","affirmation","match","speech","yes","HeadNod","male","speech-gesture","1920","1080","opera","60.28","Windows 10","19","male","right","Wed Oct 23 2024 21:58:26 GMT+0200 (Mitteleuropäische Sommerzeit)","1","15","0","1729716476016"
"702","j","SpeechGestureMatch","../RequiredFiles/videos/JaKopfJa_m.mp4","Ist der Ball in der grünen Box?","Blue","Green","J","affirmation","match","speech","yes","HeadNod","male","speech-gesture","1920","1080","opera","60.28","Windows 10","19","male","right","Wed Oct 23 2024 21:58:32 GMT+0200 (Mitteleuropäische Sommerzeit)","1","16","0","1729716476016"
"736","f","SpeechGestureMatch","../RequiredFiles/videos/NeinKopfNein_f.mp4","Ist der Ball in der blauen Box?","Green","Blue","F","negation","match","speech","no","HeadShake","female","speech-gesture","1920","1080","opera","60.28","Windows 10","19","male","right","Wed Oct 23 2024 21:58:39 GMT+0200 (Mitteleuropäische Sommerzeit)","1","17","0","1729716476016"
"901","f","SpeechGestureMatch","../RequiredFiles/videos/NeinKopfNein_m_no_gesture.mp4","Ist der Ball in der grünen Box?","Blue","Green","F","negation","na","speech","no","na","male","speech-gesture","1920","1080","opera","60.28","Windows 10","19","male","right","Wed Oct 23 2024 21:58:45 GMT+0200 (Mitteleuropäische Sommerzeit)","1","18","0","1729716476016"
"832","f","SpeechGestureMatch","../RequiredFiles/videos/NeinKopfJa_m.mp4","Ist der Ball in der blauen Box?","Green","Blue","F","negation","mismatch","speech","no","HeadNod","male","speech-gesture","1920","1080","opera","60.28","Windows 10","19","male","right","Wed Oct 23 2024 21:58:52 GMT+0200 (Mitteleuropäische Sommerzeit)","1","19","0","1729716476016"
"804","j","SpeechGestureMatch","../RequiredFiles/videos/JaKopfJa_f_no_gesture.mp4","Ist der Ball in der grünen Box?","Blue","Green","J","affirmation","na","speech","yes","na","female","speech-gesture","1920","1080","opera","60.28","Windows 10","19","male","right","Wed Oct 23 2024 21:58:58 GMT+0200 (Mitteleuropäische Sommerzeit)","1","20","0","1729716476016"
"1009","j","SpeechGestureMatch","../RequiredFiles/videos/NeinKopfJa_f.mp4","Ist der Ball in der grünen Box?","Green","Blue","J","negation","mismatch","speech","no","HeadNod","female","speech-gesture","1920","1080","opera","60.28","Windows 10","19","male","right","Wed Oct 23 2024 21:59:04 GMT+0200 (Mitteleuropäische Sommerzeit)","1","21","0","1729716476016"
"716","f","SpeechGestureMatch","../RequiredFiles/videos/JaKopfNein_f_no_gesture.mp4","Ist der Ball in der blauen Box?","Blue","Green","F","affirmation","na","speech","yes","na","female","speech-gesture","1920","1080","opera","60.28","Windows 10","19","male","right","Wed Oct 23 2024 21:59:11 GMT+0200 (Mitteleuropäische Sommerzeit)","1","22","0","1729716476016"
"796","f","SpeechGestureMatch","../RequiredFiles/videos/JaKopfNein_f.mp4","Ist der Ball in der grünen Box?","Green","Blue","F","affirmation","mismatch","speech","yes","HeadShake","female","speech-gesture","1920","1080","opera","60.28","Windows 10","19","male","right","Wed Oct 23 2024 21:59:17 GMT+0200 (Mitteleuropäische Sommerzeit)","1","23","0","1729716476016"
"946","f","SpeechGestureMatch","../RequiredFiles/videos/NeinKopfJa_m.mp4","Ist der Ball in der grünen Box?","Blue","Green","F","negation","mismatch","speech","no","HeadNod","male","speech-gesture","1920","1080","opera","60.28","Windows 10","19","male","right","Wed Oct 23 2024 21:59:23 GMT+0200 (Mitteleuropäische Sommerzeit)","1","24","0","1729716476016"
"1021","f","SpeechGestureMatch","../RequiredFiles/videos/NeinKopfNein_f.mp4","Ist der Ball in der blauen Box?","Green","Blue","F","negation","match","speech","no","HeadShake","female","speech-gesture","1920","1080","opera","60.28","Windows 10","19","male","right","Wed Oct 23 2024 21:59:30 GMT+0200 (Mitteleuropäische Sommerzeit)","1","25","0","1729716476016"
"957","j","SpeechGestureMatch","../RequiredFiles/videos/NeinKopfJa_f_no_gesture.mp4","Ist der Ball in der grünen Box?","Green","Blue","J","negation","na","speech","no","na","female","speech-gesture","1920","1080","opera","60.28","Windows 10","19","male","right","Wed Oct 23 2024 21:59:37 GMT+0200 (Mitteleuropäische Sommerzeit)","1","26","0","1729716476016"
"956","j","SpeechGestureMatch","../RequiredFiles/videos/JaKopfNein_m.mp4","Ist der Ball in der grünen Box?","Blue","Green","J","affirmation","mismatch","speech","yes","HeadShake","male","speech-gesture","1920","1080","opera","60.28","Windows 10","19","male","right","Wed Oct 23 2024 21:59:43 GMT+0200 (Mitteleuropäische Sommerzeit)","1","27","0","1729716476016"
"850","f","SpeechGestureMatch","../RequiredFiles/videos/NeinKopfNein_m.mp4","Ist der Ball in der grünen Box?","Blue","Green","F","negation","match","speech","no","HeadShake","male","speech-gesture","1920","1080","opera","60.28","Windows 10","19","male","right","Wed Oct 23 2024 21:59:49 GMT+0200 (Mitteleuropäische Sommerzeit)","1","28","0","1729716476016"
"900","j","SpeechGestureMatch","../RequiredFiles/videos/JaKopfNein_m.mp4","Ist der Ball in der blauen Box?","Green","Blue","J","affirmation","mismatch","speech","yes","HeadShake","male","speech-gesture","1920","1080","opera","60.28","Windows 10","19","male","right","Wed Oct 23 2024 21:59:56 GMT+0200 (Mitteleuropäische Sommerzeit)","1","29","0","1729716476016"
"797","f","SpeechGestureMatch","../RequiredFiles/videos/JaKopfNein_m.mp4","Ist der Ball in der blauen Box?","Blue","Green","F","affirmation","mismatch","speech","yes","HeadShake","male","speech-gesture","1920","1080","opera","60.28","Windows 10","19","male","right","Wed Oct 23 2024 22:00:02 GMT+0200 (Mitteleuropäische Sommerzeit)","1","30","0","1729716476016"
"926","j","SpeechGestureMatch","../RequiredFiles/videos/NeinKopfNein_m_no_gesture.mp4","Ist der Ball in der grünen Box?","Green","Blue","J","negation","na","speech","no","na","male","speech-gesture","1920","1080","opera","60.28","Windows 10","19","male","right","Wed Oct 23 2024 22:00:09 GMT+0200 (Mitteleuropäische Sommerzeit)","1","31","0","1729716476016"
"1074","j","SpeechGestureMatch","../RequiredFiles/videos/NeinKopfNein_f.mp4","Ist der Ball in der blauen Box?","Blue","Green","J","negation","match","speech","no","HeadShake","female","speech-gesture","1920","1080","opera","60.28","Windows 10","19","male","right","Wed Oct 23 2024 22:00:15 GMT+0200 (Mitteleuropäische Sommerzeit)","1","32","0","1729716476016"
"805","j","SpeechGestureMatch","../RequiredFiles/videos/JaKopfNein_f.mp4","Ist der Ball in der grünen Box?","Blue","Green","J","affirmation","mismatch","speech","yes","HeadShake","female","speech-gesture","1920","1080","opera","60.28","Windows 10","19","male","right","Wed Oct 23 2024 22:00:22 GMT+0200 (Mitteleuropäische Sommerzeit)","1","33","0","1729716476016"
"699","f","SpeechGestureMatch","../RequiredFiles/videos/NeinKopfNein_m_no_gesture.mp4","Ist der Ball in der blauen Box?","Green","Blue","F","negation","na","speech","no","na","male","speech-gesture","1920","1080","opera","60.28","Windows 10","19","male","right","Wed Oct 23 2024 22:00:28 GMT+0200 (Mitteleuropäische Sommerzeit)","1","34","0","1729716476016"
"856","j","SpeechGestureMatch","../RequiredFiles/videos/NeinKopfJa_m_no_gesture.mp4","Ist der Ball in der blauen Box?","Blue","Green","J","negation","na","speech","no","na","male","speech-gesture","1920","1080","opera","60.28","Windows 10","19","male","right","Wed Oct 23 2024 22:00:34 GMT+0200 (Mitteleuropäische Sommerzeit)","1","35","0","1729716476016"
"722","j","SpeechGestureMatch","../RequiredFiles/videos/JaKopfJa_f.mp4","Ist der Ball in der blauen Box?","Green","Blue","J","affirmation","match","speech","yes","HeadNod","female","speech-gesture","1920","1080","opera","60.28","Windows 10","19","male","right","Wed Oct 23 2024 22:00:40 GMT+0200 (Mitteleuropäische Sommerzeit)","1","36","0","1729716476016"
"807","f","SpeechGestureMatch","../RequiredFiles/videos/JaKopfJa_f_no_gesture.mp4","Ist der Ball in der grünen Box?","Green","Blue","F","affirmation","na","speech","yes","na","female","speech-gesture","1920","1080","opera","60.28","Windows 10","19","male","right","Wed Oct 23 2024 22:00:47 GMT+0200 (Mitteleuropäische Sommerzeit)","1","37","0","1729716476016"
"786","j","SpeechGestureMatch","../RequiredFiles/videos/JaKopfNein_f_no_gesture.mp4","Ist der Ball in der grünen Box?","Blue","Green","J","affirmation","na","speech","yes","na","female","speech-gesture","1920","1080","opera","60.28","Windows 10","19","male","right","Wed Oct 23 2024 22:00:53 GMT+0200 (Mitteleuropäische Sommerzeit)","1","38","0","1729716476016"
"745","j","SpeechGestureMatch","../RequiredFiles/videos/NeinKopfJa_m.mp4","Ist der Ball in der blauen Box?","Blue","Green","J","negation","mismatch","speech","no","HeadNod","male","speech-gesture","1920","1080","opera","60.28","Windows 10","19","male","right","Wed Oct 23 2024 22:00:59 GMT+0200 (Mitteleuropäische Sommerzeit)","1","39","0","1729716476016"
"966","j","SpeechGestureMatch","../RequiredFiles/videos/JaKopfNein_f_no_gesture.mp4","Ist der Ball in der blauen Box?","Green","Blue","J","affirmation","na","speech","yes","na","female","speech-gesture","1920","1080","opera","60.28","Windows 10","19","male","right","Wed Oct 23 2024 22:01:06 GMT+0200 (Mitteleuropäische Sommerzeit)","1","40","0","1729716476016"
"973","f","SpeechGestureMatch","../RequiredFiles/videos/JaKopfNein_m.mp4","Ist der Ball in der blauen Box?","Blue","Green","F","affirmation","mismatch","speech","yes","HeadShake","male","speech-gesture","1920","1080","opera","60.28","Windows 10","19","male","right","Wed Oct 23 2024 22:01:12 GMT+0200 (Mitteleuropäische Sommerzeit)","1","41","0","1729716476016"
"736","j","SpeechGestureMatch","../RequiredFiles/videos/JaKopfNein_f.mp4","Ist der Ball in der blauen Box?","Green","Blue","J","affirmation","mismatch","speech","yes","HeadShake","female","speech-gesture","1920","1080","opera","60.28","Windows 10","19","male","right","Wed Oct 23 2024 22:01:19 GMT+0200 (Mitteleuropäische Sommerzeit)","1","42","0","1729716476016"
"803","f","SpeechGestureMatch","../RequiredFiles/videos/NeinKopfNein_f_no_gesture.mp4","Ist der Ball in der grünen Box?","Blue","Green","F","negation","na","speech","no","na","female","speech-gesture","1920","1080","opera","60.28","Windows 10","19","male","right","Wed Oct 23 2024 22:01:25 GMT+0200 (Mitteleuropäische Sommerzeit)","1","43","0","1729716476016"
"784","j","SpeechGestureMatch","../RequiredFiles/videos/NeinKopfNein_m_no_gesture.mp4","Ist der Ball in der blauen Box?","Blue","Green","J","negation","na","speech","no","na","male","speech-gesture","1920","1080","opera","60.28","Windows 10","19","male","right","Wed Oct 23 2024 22:01:31 GMT+0200 (Mitteleuropäische Sommerzeit)","1","44","0","1729716476016"
"781","f","SpeechGestureMatch","../RequiredFiles/videos/JaKopfNein_m.mp4","Ist der Ball in der grünen Box?","Green","Blue","F","affirmation","mismatch","speech","yes","HeadShake","male","speech-gesture","1920","1080","opera","60.28","Windows 10","19","male","right","Wed Oct 23 2024 22:01:38 GMT+0200 (Mitteleuropäische Sommerzeit)","1","45","0","1729716476016"
"697","f","SpeechGestureMatch","../RequiredFiles/videos/JaKopfJa_f.mp4","Ist der Ball in der blauen Box?","Blue","Green","F","affirmation","match","speech","yes","HeadNod","female","speech-gesture","1920","1080","opera","60.28","Windows 10","19","male","right","Wed Oct 23 2024 22:01:44 GMT+0200 (Mitteleuropäische Sommerzeit)","1","46","0","1729716476016"
"694","j","SpeechGestureMatch","../RequiredFiles/videos/NeinKopfNein_m.mp4","Ist der Ball in der blauen Box?","Blue","Green","J","negation","match","speech","no","HeadShake","male","speech-gesture","1920","1080","opera","60.28","Windows 10","19","male","right","Wed Oct 23 2024 22:01:50 GMT+0200 (Mitteleuropäische Sommerzeit)","1","47","0","1729716476016"
"869","f","SpeechGestureMatch","../RequiredFiles/videos/NeinKopfNein_f_no_gesture.mp4","Ist der Ball in der blauen Box?","Green","Blue","F","negation","na","speech","no","na","female","speech-gesture","1920","1080","opera","60.28","Windows 10","19","male","right","Wed Oct 23 2024 22:01:57 GMT+0200 (Mitteleuropäische Sommerzeit)","1","48","0","1729716476016"
"773","f","SpeechGestureMatch","../RequiredFiles/videos/NeinKopfNein_m.mp4","Ist der Ball in der blauen Box?","Green","Blue","F","negation","match","speech","no","HeadShake","male","speech-gesture","1920","1080","opera","60.28","Windows 10","19","male","right","Wed Oct 23 2024 22:02:03 GMT+0200 (Mitteleuropäische Sommerzeit)","1","49","0","1729716476016"
"792","f","SpeechGestureMatch","../RequiredFiles/videos/JaKopfJa_m_no_gesture.mp4","Ist der Ball in der grünen Box?","Green","Blue","F","affirmation","na","speech","yes","na","male","speech-gesture","1920","1080","opera","60.28","Windows 10","19","male","right","Wed Oct 23 2024 22:02:09 GMT+0200 (Mitteleuropäische Sommerzeit)","1","50","0","1729716476016"
"937","f","SpeechGestureMatch","../RequiredFiles/videos/NeinKopfNein_m.mp4","Ist der Ball in der blauen Box?","Green","Blue","F","negation","match","speech","no","HeadShake","male","speech-gesture","1920","1080","opera","60.28","Windows 10","19","male","right","Wed Oct 23 2024 22:02:16 GMT+0200 (Mitteleuropäische Sommerzeit)","1","51","0","1729716476016"
"780","j","SpeechGestureMatch","../RequiredFiles/videos/NeinKopfNein_m.mp4","Ist der Ball in der grünen Box?","Green","Blue","J","negation","match","speech","no","HeadShake","male","speech-gesture","1920","1080","opera","60.28","Windows 10","19","male","right","Wed Oct 23 2024 22:02:22 GMT+0200 (Mitteleuropäische Sommerzeit)","1","52","0","1729716476016"
"1184","j","SpeechGestureMatch","../RequiredFiles/videos/JaKopfJa_f_no_gesture.mp4","Ist der Ball in der blauen Box?","Green","Blue","J","affirmation","na","speech","yes","na","female","speech-gesture","1920","1080","opera","60.28","Windows 10","19","male","right","Wed Oct 23 2024 22:02:29 GMT+0200 (Mitteleuropäische Sommerzeit)","1","53","0","1729716476016"
"813","f","SpeechGestureMatch","../RequiredFiles/videos/JaKopfNein_f.mp4","Ist der Ball in der blauen Box?","Blue","Green","F","affirmation","mismatch","speech","yes","HeadShake","female","speech-gesture","1920","1080","opera","60.28","Windows 10","19","male","right","Wed Oct 23 2024 22:02:35 GMT+0200 (Mitteleuropäische Sommerzeit)","1","54","0","1729716476016"
"663","f","SpeechGestureMatch","../RequiredFiles/videos/NeinKopfNein_m.mp4","Ist der Ball in der grünen Box?","Blue","Green","F","negation","match","speech","no","HeadShake","male","speech-gesture","1920","1080","opera","60.28","Windows 10","19","male","right","Wed Oct 23 2024 22:02:41 GMT+0200 (Mitteleuropäische Sommerzeit)","1","55","0","1729716476016"
"745","j","SpeechGestureMatch","../RequiredFiles/videos/JaKopfJa_m_no_gesture.mp4","Ist der Ball in der grünen Box?","Blue","Green","J","affirmation","na","speech","yes","na","male","speech-gesture","1920","1080","opera","60.28","Windows 10","19","male","right","Wed Oct 23 2024 22:02:48 GMT+0200 (Mitteleuropäische Sommerzeit)","1","56","0","1729716476016"
"733","j","SpeechGestureMatch","../RequiredFiles/videos/NeinKopfJa_f.mp4","Ist der Ball in der grünen Box?","Green","Blue","J","negation","mismatch","speech","no","HeadNod","female","speech-gesture","1920","1080","opera","60.28","Windows 10","19","male","right","Wed Oct 23 2024 22:02:54 GMT+0200 (Mitteleuropäische Sommerzeit)","1","57","0","1729716476016"
"1560","j","SpeechGestureMatch","../RequiredFiles/videos/JaKopfNein_f.mp4","Ist der Ball in der blauen Box?","Green","Blue","J","affirmation","mismatch","speech","yes","HeadShake","female","speech-gesture","1920","1080","opera","60.28","Windows 10","19","male","right","Wed Oct 23 2024 22:03:01 GMT+0200 (Mitteleuropäische Sommerzeit)","1","58","0","1729716476016"
"944","j","SpeechGestureMatch","../RequiredFiles/videos/NeinKopfJa_f.mp4","Ist der Ball in der blauen Box?","Blue","Green","J","negation","mismatch","speech","no","HeadNod","female","speech-gesture","1920","1080","opera","60.28","Windows 10","19","male","right","Wed Oct 23 2024 22:03:07 GMT+0200 (Mitteleuropäische Sommerzeit)","1","59","0","1729716476016"
"954","f","SpeechGestureMatch","../RequiredFiles/videos/JaKopfJa_f.mp4","Ist der Ball in der blauen Box?","Blue","Green","F","affirmation","match","speech","yes","HeadNod","female","speech-gesture","1920","1080","opera","60.28","Windows 10","19","male","right","Wed Oct 23 2024 22:03:14 GMT+0200 (Mitteleuropäische Sommerzeit)","1","60","0","1729716476016"
"722","j","SpeechGestureMatch","../RequiredFiles/videos/JaKopfJa_m_no_gesture.mp4","Ist der Ball in der blauen Box?","Green","Blue","J","affirmation","na","speech","yes","na","male","speech-gesture","1920","1080","opera","60.28","Windows 10","19","male","right","Wed Oct 23 2024 22:03:20 GMT+0200 (Mitteleuropäische Sommerzeit)","1","61","0","1729716476016"
"911","j","SpeechGestureMatch","../RequiredFiles/videos/NeinKopfNein_f.mp4","Ist der Ball in der grünen Box?","Green","Blue","J","negation","match","speech","no","HeadShake","female","speech-gesture","1920","1080","opera","60.28","Windows 10","19","male","right","Wed Oct 23 2024 22:03:27 GMT+0200 (Mitteleuropäische Sommerzeit)","1","62","0","1729716476016"
"750","j","SpeechGestureMatch","../RequiredFiles/videos/NeinKopfJa_m.mp4","Ist der Ball in der grünen Box?","Green","Blue","J","negation","mismatch","speech","no","HeadNod","male","speech-gesture","1920","1080","opera","60.28","Windows 10","19","male","right","Wed Oct 23 2024 22:03:33 GMT+0200 (Mitteleuropäische Sommerzeit)","1","63","0","1729716476016"
"762","f","SpeechGestureMatch","../RequiredFiles/videos/JaKopfJa_m.mp4","Ist der Ball in der blauen Box?","Blue","Green","F","affirmation","match","speech","yes","HeadNod","male","speech-gesture","1920","1080","opera","60.28","Windows 10","19","male","right","Wed Oct 23 2024 22:03:39 GMT+0200 (Mitteleuropäische Sommerzeit)","1","64","0","1729716476016"
"838","j","SpeechGestureMatch","../RequiredFiles/videos/JaKopfNein_m.mp4","Ist der Ball in der blauen Box?","Green","Blue","J","affirmation","mismatch","speech","yes","HeadShake","male","speech-gesture","1920","1080","opera","60.28","Windows 10","19","male","right","Wed Oct 23 2024 22:03:46 GMT+0200 (Mitteleuropäische Sommerzeit)","1","65","0","1729716476016"
"754","f","SpeechGestureMatch","../RequiredFiles/videos/JaKopfNein_f_no_gesture.mp4","Ist der Ball in der grünen Box?","Green","Blue","F","affirmation","na","speech","yes","na","female","speech-gesture","1920","1080","opera","60.28","Windows 10","19","male","right","Wed Oct 23 2024 22:03:52 GMT+0200 (Mitteleuropäische Sommerzeit)","1","66","0","1729716476016"
"893","j","SpeechGestureMatch","../RequiredFiles/videos/NeinKopfJa_m_no_gesture.mp4","Ist der Ball in der grünen Box?","Green","Blue","J","negation","na","speech","no","na","male","speech-gesture","1920","1080","opera","60.28","Windows 10","19","male","right","Wed Oct 23 2024 22:03:58 GMT+0200 (Mitteleuropäische Sommerzeit)","1","67","0","1729716476016"
"803","j","SpeechGestureMatch","../RequiredFiles/videos/NeinKopfNein_f.mp4","Ist der Ball in der blauen Box?","Blue","Green","J","negation","match","speech","no","HeadShake","female","speech-gesture","1920","1080","opera","60.28","Windows 10","19","male","right","Wed Oct 23 2024 22:04:05 GMT+0200 (Mitteleuropäische Sommerzeit)","1","68","0","1729716476016"
"680","j","SpeechGestureMatch","../RequiredFiles/videos/JaKopfJa_m.mp4","Ist der Ball in der grünen Box?","Blue","Green","J","affirmation","match","speech","yes","HeadNod","male","speech-gesture","1920","1080","opera","60.28","Windows 10","19","male","right","Wed Oct 23 2024 22:04:11 GMT+0200 (Mitteleuropäische Sommerzeit)","1","69","0","1729716476016"
"1144","f","SpeechGestureMatch","../RequiredFiles/videos/NeinKopfJa_f_no_gesture.mp4","Ist der Ball in der grünen Box?","Blue","Green","F","negation","na","speech","no","na","female","speech-gesture","1920","1080","opera","60.28","Windows 10","19","male","right","Wed Oct 23 2024 22:04:18 GMT+0200 (Mitteleuropäische Sommerzeit)","1","70","0","1729716476016"
"770","f","SpeechGestureMatch","../RequiredFiles/videos/NeinKopfJa_f.mp4","Ist der Ball in der grünen Box?","Blue","Green","F","negation","mismatch","speech","no","HeadNod","female","speech-gesture","1920","1080","opera","60.28","Windows 10","19","male","right","Wed Oct 23 2024 22:04:24 GMT+0200 (Mitteleuropäische Sommerzeit)","1","71","0","1729716476016"
"910","f","SpeechGestureMatch","../RequiredFiles/videos/NeinKopfNein_f.mp4","Ist der Ball in der grünen Box?","Blue","Green","F","negation","match","speech","no","HeadShake","female","speech-gesture","1920","1080","opera","60.28","Windows 10","19","male","right","Wed Oct 23 2024 22:04:30 GMT+0200 (Mitteleuropäische Sommerzeit)","1","72","0","1729716476016"
"926","j","SpeechGestureMatch","../RequiredFiles/videos/NeinKopfJa_m.mp4","Ist der Ball in der grünen Box?","Green","Blue","J","negation","mismatch","speech","no","HeadNod","male","speech-gesture","1920","1080","opera","60.28","Windows 10","19","male","right","Wed Oct 23 2024 22:04:37 GMT+0200 (Mitteleuropäische Sommerzeit)","1","73","0","1729716476016"
"1091","j","SpeechGestureMatch","../RequiredFiles/videos/NeinKopfJa_m.mp4","Ist der Ball in der blauen Box?","Blue","Green","J","negation","mismatch","speech","no","HeadNod","male","speech-gesture","1920","1080","opera","60.28","Windows 10","19","male","right","Wed Oct 23 2024 22:04:43 GMT+0200 (Mitteleuropäische Sommerzeit)","1","74","0","1729716476016"
"883","j","SpeechGestureMatch","../RequiredFiles/videos/JaKopfJa_m.mp4","Ist der Ball in der blauen Box?","Green","Blue","J","affirmation","match","speech","yes","HeadNod","male","speech-gesture","1920","1080","opera","60.28","Windows 10","19","male","right","Wed Oct 23 2024 22:04:50 GMT+0200 (Mitteleuropäische Sommerzeit)","1","75","0","1729716476016"
"1513","j","SpeechGestureMatch","../RequiredFiles/videos/NeinKopfNein_f.mp4","Ist der Ball in der grünen Box?","Green","Blue","J","negation","match","speech","no","HeadShake","female","speech-gesture","1920","1080","opera","60.28","Windows 10","19","male","right","Wed Oct 23 2024 22:04:57 GMT+0200 (Mitteleuropäische Sommerzeit)","1","76","0","1729716476016"
"727","j","SpeechGestureMatch","../RequiredFiles/videos/NeinKopfNein_m.mp4","Ist der Ball in der grünen Box?","Green","Blue","J","negation","match","speech","no","HeadShake","male","speech-gesture","1920","1080","opera","60.28","Windows 10","19","male","right","Wed Oct 23 2024 22:05:03 GMT+0200 (Mitteleuropäische Sommerzeit)","1","77","0","1729716476016"
"1003","f","SpeechGestureMatch","../RequiredFiles/videos/JaKopfJa_f.mp4","Ist der Ball in der grünen Box?","Green","Blue","F","affirmation","match","speech","yes","HeadNod","female","speech-gesture","1920","1080","opera","60.28","Windows 10","19","male","right","Wed Oct 23 2024 22:05:10 GMT+0200 (Mitteleuropäische Sommerzeit)","1","78","0","1729716476016"
"15157","f","SpeechGestureMatch","../RequiredFiles/videos/NeinKopfNein_f.mp4","Ist der Ball in der grünen Box?","Blue","Green","F","negation","match","speech","no","HeadShake","female","speech-gesture","1920","1080","opera","60.28","Windows 10","19","male","right","Wed Oct 23 2024 22:05:30 GMT+0200 (Mitteleuropäische Sommerzeit)","1","79","0","1729716476016"
"973","f","SpeechGestureMatch","../RequiredFiles/videos/NeinKopfJa_m_no_gesture.mp4","Ist der Ball in der grünen Box?","Blue","Green","F","negation","na","speech","no","na","male","speech-gesture","1920","1080","opera","60.28","Windows 10","19","male","right","Wed Oct 23 2024 22:05:37 GMT+0200 (Mitteleuropäische Sommerzeit)","1","80","0","1729716476016"
"832","f","SpeechGestureMatch","../RequiredFiles/videos/JaKopfJa_f_no_gesture.mp4","Ist der Ball in der blauen Box?","Blue","Green","F","affirmation","na","speech","yes","na","female","speech-gesture","1920","1080","opera","60.28","Windows 10","19","male","right","Wed Oct 23 2024 22:05:43 GMT+0200 (Mitteleuropäische Sommerzeit)","1","81","0","1729716476016"
"976","f","SpeechGestureMatch","../RequiredFiles/videos/JaKopfJa_m.mp4","Ist der Ball in der grünen Box?","Green","Blue","F","affirmation","match","speech","yes","HeadNod","male","speech-gesture","1920","1080","opera","60.28","Windows 10","19","male","right","Wed Oct 23 2024 22:05:50 GMT+0200 (Mitteleuropäische Sommerzeit)","1","82","0","1729716476016"
"707","j","SpeechGestureMatch","../RequiredFiles/videos/JaKopfJa_f.mp4","Ist der Ball in der blauen Box?","Green","Blue","J","affirmation","match","speech","yes","HeadNod","female","speech-gesture","1920","1080","opera","60.28","Windows 10","19","male","right","Wed Oct 23 2024 22:05:56 GMT+0200 (Mitteleuropäische Sommerzeit)","1","83","0","1729716476016"
"908","j","SpeechGestureMatch","../RequiredFiles/videos/JaKopfNein_m.mp4","Ist der Ball in der grünen Box?","Blue","Green","J","affirmation","mismatch","speech","yes","HeadShake","male","speech-gesture","1920","1080","opera","60.28","Windows 10","19","male","right","Wed Oct 23 2024 22:06:02 GMT+0200 (Mitteleuropäische Sommerzeit)","1","84","0","1729716476016"
"848","j","SpeechGestureMatch","../RequiredFiles/videos/JaKopfNein_m_no_gesture.mp4","Ist der Ball in der blauen Box?","Green","Blue","J","affirmation","na","speech","yes","na","male","speech-gesture","1920","1080","opera","60.28","Windows 10","19","male","right","Wed Oct 23 2024 22:06:09 GMT+0200 (Mitteleuropäische Sommerzeit)","1","85","0","1729716476016"
"810","j","SpeechGestureMatch","../RequiredFiles/videos/NeinKopfJa_f_no_gesture.mp4","Ist der Ball in der blauen Box?","Blue","Green","J","negation","na","speech","no","na","female","speech-gesture","1920","1080","opera","60.28","Windows 10","19","male","right","Wed Oct 23 2024 22:06:15 GMT+0200 (Mitteleuropäische Sommerzeit)","1","86","0","1729716476016"
"937","f","SpeechGestureMatch","../RequiredFiles/videos/JaKopfNein_m_no_gesture.mp4","Ist der Ball in der grünen Box?","Green","Blue","F","affirmation","na","speech","yes","na","male","speech-gesture","1920","1080","opera","60.28","Windows 10","19","male","right","Wed Oct 23 2024 22:06:22 GMT+0200 (Mitteleuropäische Sommerzeit)","1","87","0","1729716476016"
"703","j","SpeechGestureMatch","../RequiredFiles/videos/NeinKopfNein_m.mp4","Ist der Ball in der blauen Box?","Blue","Green","J","negation","match","speech","no","HeadShake","male","speech-gesture","1920","1080","opera","60.28","Windows 10","19","male","right","Wed Oct 23 2024 22:06:28 GMT+0200 (Mitteleuropäische Sommerzeit)","1","88","0","1729716476016"
"799","f","SpeechGestureMatch","../RequiredFiles/videos/JaKopfJa_m.mp4","Ist der Ball in der grünen Box?","Green","Blue","F","affirmation","match","speech","yes","HeadNod","male","speech-gesture","1920","1080","opera","60.28","Windows 10","19","male","right","Wed Oct 23 2024 22:06:34 GMT+0200 (Mitteleuropäische Sommerzeit)","1","89","0","1729716476016"
"735","j","SpeechGestureMatch","../RequiredFiles/videos/JaKopfNein_f.mp4","Ist der Ball in der grünen Box?","Blue","Green","J","affirmation","mismatch","speech","yes","HeadShake","female","speech-gesture","1920","1080","opera","60.28","Windows 10","19","male","right","Wed Oct 23 2024 22:06:41 GMT+0200 (Mitteleuropäische Sommerzeit)","1","90","0","1729716476016"
"1245","f","SpeechGestureMatch","../RequiredFiles/videos/NeinKopfJa_f_no_gesture.mp4","Ist der Ball in der blauen Box?","Green","Blue","F","negation","na","speech","no","na","female","speech-gesture","1920","1080","opera","60.28","Windows 10","19","male","right","Wed Oct 23 2024 22:06:47 GMT+0200 (Mitteleuropäische Sommerzeit)","1","91","0","1729716476016"
"1284","j","SpeechGestureMatch","../RequiredFiles/videos/NeinKopfNein_f_no_gesture.mp4","Ist der Ball in der blauen Box?","Blue","Green","J","negation","na","speech","no","na","female","speech-gesture","1920","1080","opera","60.28","Windows 10","19","male","right","Wed Oct 23 2024 22:06:54 GMT+0200 (Mitteleuropäische Sommerzeit)","1","92","0","1729716476016"
"1042","f","SpeechGestureMatch","../RequiredFiles/videos/NeinKopfJa_m.mp4","Ist der Ball in der blauen Box?","Green","Blue","F","negation","mismatch","speech","no","HeadNod","male","speech-gesture","1920","1080","opera","60.28","Windows 10","19","male","right","Wed Oct 23 2024 22:07:01 GMT+0200 (Mitteleuropäische Sommerzeit)","1","93","0","1729716476016"
"961","f","SpeechGestureMatch","../RequiredFiles/videos/JaKopfNein_m_no_gesture.mp4","Ist der Ball in der blauen Box?","Blue","Green","F","affirmation","na","speech","yes","na","male","speech-gesture","1920","1080","opera","60.28","Windows 10","19","male","right","Wed Oct 23 2024 22:07:07 GMT+0200 (Mitteleuropäische Sommerzeit)","1","94","0","1729716476016"
"1062","f","SpeechGestureMatch","../RequiredFiles/videos/NeinKopfJa_f.mp4","Ist der Ball in der grünen Box?","Blue","Green","F","negation","mismatch","speech","no","HeadNod","female","speech-gesture","1920","1080","opera","60.28","Windows 10","19","male","right","Wed Oct 23 2024 22:07:14 GMT+0200 (Mitteleuropäische Sommerzeit)","1","95","0","1729716476016"
"853","j","SpeechGestureMatch","../RequiredFiles/videos/JaKopfJa_f.mp4","Ist der Ball in der grünen Box?","Blue","Green","J","affirmation","match","speech","yes","HeadNod","female","speech-gesture","1920","1080","opera","60.28","Windows 10","19","male","right","Wed Oct 23 2024 22:07:20 GMT+0200 (Mitteleuropäische Sommerzeit)","1","96","0","1729716476016"
"1397","j","SpeechGestureMatch","../RequiredFiles/videos/NeinKopfJa_m.mp4","Ist der Ball in der grünen Box?","Green","Blue","J","negation","mismatch","speech","no","HeadNod","male","speech-gesture","1920","1080","opera","60.28","Windows 10","19","male","right","Wed Oct 23 2024 22:09:56 GMT+0200 (Mitteleuropäische Sommerzeit)","2","1","0","1729716476016"
"954","j","SpeechGestureMatch","../RequiredFiles/videos/NeinKopfNein_m.mp4","Ist der Ball in der blauen Box?","Blue","Green","J","negation","match","speech","no","HeadShake","male","speech-gesture","1920","1080","opera","60.28","Windows 10","19","male","right","Wed Oct 23 2024 22:10:02 GMT+0200 (Mitteleuropäische Sommerzeit)","2","2","0","1729716476016"
"829","f","SpeechGestureMatch","../RequiredFiles/videos/NeinKopfNein_f.mp4","Ist der Ball in der grünen Box?","Blue","Green","F","negation","match","speech","no","HeadShake","female","speech-gesture","1920","1080","opera","60.28","Windows 10","19","male","right","Wed Oct 23 2024 22:10:09 GMT+0200 (Mitteleuropäische Sommerzeit)","2","3","0","1729716476016"
"819","j","SpeechGestureMatch","../RequiredFiles/videos/NeinKopfJa_f_no_gesture.mp4","Ist der Ball in der grünen Box?","Green","Blue","J","negation","na","speech","no","na","female","speech-gesture","1920","1080","opera","60.28","Windows 10","19","male","right","Wed Oct 23 2024 22:10:15 GMT+0200 (Mitteleuropäische Sommerzeit)","2","4","0","1729716476016"
"962","j","SpeechGestureMatch","../RequiredFiles/videos/JaKopfNein_f.mp4","Ist der Ball in der grünen Box?","Blue","Green","J","affirmation","mismatch","speech","yes","HeadShake","female","speech-gesture","1920","1080","opera","60.28","Windows 10","19","male","right","Wed Oct 23 2024 22:10:21 GMT+0200 (Mitteleuropäische Sommerzeit)","2","5","0","1729716476016"
"803","j","SpeechGestureMatch","../RequiredFiles/videos/JaKopfJa_m.mp4","Ist der Ball in der grünen Box?","Blue","Green","J","affirmation","match","speech","yes","HeadNod","male","speech-gesture","1920","1080","opera","60.28","Windows 10","19","male","right","Wed Oct 23 2024 22:10:28 GMT+0200 (Mitteleuropäische Sommerzeit)","2","6","0","1729716476016"
"1392","j","SpeechGestureMatch","../RequiredFiles/videos/NeinKopfNein_f.mp4","Ist der Ball in der blauen Box?","Blue","Green","J","negation","match","speech","no","HeadShake","female","speech-gesture","1920","1080","opera","60.28","Windows 10","19","male","right","Wed Oct 23 2024 22:10:35 GMT+0200 (Mitteleuropäische Sommerzeit)","2","7","0","1729716476016"
"720","f","SpeechGestureMatch","../RequiredFiles/videos/NeinKopfNein_m.mp4","Ist der Ball in der grünen Box?","Blue","Green","F","negation","match","speech","no","HeadShake","male","speech-gesture","1920","1080","opera","60.28","Windows 10","19","male","right","Wed Oct 23 2024 22:10:41 GMT+0200 (Mitteleuropäische Sommerzeit)","2","8","0","1729716476016"
"1085","j","SpeechGestureMatch","../RequiredFiles/videos/NeinKopfJa_m.mp4","Ist der Ball in der blauen Box?","Green","Blue","F","negation","mismatch","speech","no","HeadNod","male","speech-gesture","1920","1080","opera","60.28","Windows 10","19","male","right","Wed Oct 23 2024 22:10:48 GMT+0200 (Mitteleuropäische Sommerzeit)","2","9","1","1729716476016"
"969","f","SpeechGestureMatch","../RequiredFiles/videos/JaKopfNein_m.mp4","Ist der Ball in der grünen Box?","Green","Blue","F","affirmation","mismatch","speech","yes","HeadShake","male","speech-gesture","1920","1080","opera","60.28","Windows 10","19","male","right","Wed Oct 23 2024 22:10:54 GMT+0200 (Mitteleuropäische Sommerzeit)","2","10","0","1729716476016"
"870","j","SpeechGestureMatch","../RequiredFiles/videos/JaKopfJa_m_no_gesture.mp4","Ist der Ball in der blauen Box?","Green","Blue","J","affirmation","na","speech","yes","na","male","speech-gesture","1920","1080","opera","60.28","Windows 10","19","male","right","Wed Oct 23 2024 22:11:00 GMT+0200 (Mitteleuropäische Sommerzeit)","2","11","0","1729716476016"
"730","j","SpeechGestureMatch","../RequiredFiles/videos/JaKopfNein_m_no_gesture.mp4","Ist der Ball in der blauen Box?","Green","Blue","J","affirmation","na","speech","yes","na","male","speech-gesture","1920","1080","opera","60.28","Windows 10","19","male","right","Wed Oct 23 2024 22:11:07 GMT+0200 (Mitteleuropäische Sommerzeit)","2","12","0","1729716476016"
"845","f","SpeechGestureMatch","../RequiredFiles/videos/NeinKopfJa_f.mp4","Ist der Ball in der blauen Box?","Green","Blue","F","negation","mismatch","speech","no","HeadNod","female","speech-gesture","1920","1080","opera","60.28","Windows 10","19","male","right","Wed Oct 23 2024 22:11:13 GMT+0200 (Mitteleuropäische Sommerzeit)","2","13","0","1729716476016"
"754","j","SpeechGestureMatch","../RequiredFiles/videos/NeinKopfNein_f.mp4","Ist der Ball in der grünen Box?","Green","Blue","J","negation","match","speech","no","HeadShake","female","speech-gesture","1920","1080","opera","60.28","Windows 10","19","male","right","Wed Oct 23 2024 22:11:19 GMT+0200 (Mitteleuropäische Sommerzeit)","2","14","0","1729716476016"
"724","j","SpeechGestureMatch","../RequiredFiles/videos/NeinKopfNein_m_no_gesture.mp4","Ist der Ball in der blauen Box?","Blue","Green","J","negation","na","speech","no","na","male","speech-gesture","1920","1080","opera","60.28","Windows 10","19","male","right","Wed Oct 23 2024 22:11:26 GMT+0200 (Mitteleuropäische Sommerzeit)","2","15","0","1729716476016"
"706","f","SpeechGestureMatch","../RequiredFiles/videos/NeinKopfNein_f.mp4","Ist der Ball in der grünen Box?","Blue","Green","F","negation","match","speech","no","HeadShake","female","speech-gesture","1920","1080","opera","60.28","Windows 10","19","male","right","Wed Oct 23 2024 22:11:32 GMT+0200 (Mitteleuropäische Sommerzeit)","2","16","0","1729716476016"
"848","f","SpeechGestureMatch","../RequiredFiles/videos/JaKopfNein_f_no_gesture.mp4","Ist der Ball in der grünen Box?","Green","Blue","F","affirmation","na","speech","yes","na","female","speech-gesture","1920","1080","opera","60.28","Windows 10","19","male","right","Wed Oct 23 2024 22:11:38 GMT+0200 (Mitteleuropäische Sommerzeit)","2","17","0","1729716476016"
"758","f","SpeechGestureMatch","../RequiredFiles/videos/JaKopfJa_f.mp4","Ist der Ball in der blauen Box?","Blue","Green","F","affirmation","match","speech","yes","HeadNod","female","speech-gesture","1920","1080","opera","60.28","Windows 10","19","male","right","Wed Oct 23 2024 22:11:45 GMT+0200 (Mitteleuropäische Sommerzeit)","2","18","0","1729716476016"
"756","j","SpeechGestureMatch","../RequiredFiles/videos/NeinKopfJa_m_no_gesture.mp4","Ist der Ball in der grünen Box?","Green","Blue","J","negation","na","speech","no","na","male","speech-gesture","1920","1080","opera","60.28","Windows 10","19","male","right","Wed Oct 23 2024 22:11:51 GMT+0200 (Mitteleuropäische Sommerzeit)","2","19","0","1729716476016"
"791","j","SpeechGestureMatch","../RequiredFiles/videos/JaKopfJa_m_no_gesture.mp4","Ist der Ball in der grünen Box?","Blue","Green","J","affirmation","na","speech","yes","na","male","speech-gesture","1920","1080","opera","60.28","Windows 10","19","male","right","Wed Oct 23 2024 22:11:57 GMT+0200 (Mitteleuropäische Sommerzeit)","2","20","0","1729716476016"
"808","j","SpeechGestureMatch","../RequiredFiles/videos/NeinKopfNein_f.mp4","Ist der Ball in der blauen Box?","Blue","Green","J","negation","match","speech","no","HeadShake","female","speech-gesture","1920","1080","opera","60.28","Windows 10","19","male","right","Wed Oct 23 2024 22:12:04 GMT+0200 (Mitteleuropäische Sommerzeit)","2","21","0","1729716476016"
"1097","f","SpeechGestureMatch","../RequiredFiles/videos/NeinKopfNein_f.mp4","Ist der Ball in der blauen Box?","Green","Blue","F","negation","match","speech","no","HeadShake","female","speech-gesture","1920","1080","opera","60.28","Windows 10","19","male","right","Wed Oct 23 2024 22:12:10 GMT+0200 (Mitteleuropäische Sommerzeit)","2","22","0","1729716476016"
"3313","j","SpeechGestureMatch","../RequiredFiles/videos/JaKopfNein_f_no_gesture.mp4","Ist der Ball in der blauen Box?","Green","Blue","J","affirmation","na","speech","yes","na","female","speech-gesture","1920","1080","opera","60.28","Windows 10","19","male","right","Wed Oct 23 2024 22:12:19 GMT+0200 (Mitteleuropäische Sommerzeit)","2","23","0","1729716476016"
"1278","j","SpeechGestureMatch","../RequiredFiles/videos/JaKopfNein_m.mp4","Ist der Ball in der blauen Box?","Green","Blue","J","affirmation","mismatch","speech","yes","HeadShake","male","speech-gesture","1920","1080","opera","60.28","Windows 10","19","male","right","Wed Oct 23 2024 22:12:26 GMT+0200 (Mitteleuropäische Sommerzeit)","2","24","0","1729716476016"
"2576","f","SpeechGestureMatch","../RequiredFiles/videos/NeinKopfJa_m.mp4","Ist der Ball in der grünen Box?","Blue","Green","F","negation","mismatch","speech","no","HeadNod","male","speech-gesture","1920","1080","opera","60.28","Windows 10","19","male","right","Wed Oct 23 2024 22:12:34 GMT+0200 (Mitteleuropäische Sommerzeit)","2","25","0","1729716476016"
"990","f","SpeechGestureMatch","../RequiredFiles/videos/JaKopfJa_m.mp4","Ist der Ball in der grünen Box?","Green","Blue","F","affirmation","match","speech","yes","HeadNod","male","speech-gesture","1920","1080","opera","60.28","Windows 10","19","male","right","Wed Oct 23 2024 22:12:40 GMT+0200 (Mitteleuropäische Sommerzeit)","2","26","0","1729716476016"
"863","f","SpeechGestureMatch","../RequiredFiles/videos/JaKopfJa_f_no_gesture.mp4","Ist der Ball in der grünen Box?","Green","Blue","F","affirmation","na","speech","yes","na","female","speech-gesture","1920","1080","opera","60.28","Windows 10","19","male","right","Wed Oct 23 2024 22:12:47 GMT+0200 (Mitteleuropäische Sommerzeit)","2","27","0","1729716476016"
"789","f","SpeechGestureMatch","../RequiredFiles/videos/NeinKopfNein_f.mp4","Ist der Ball in der blauen Box?","Green","Blue","F","negation","match","speech","no","HeadShake","female","speech-gesture","1920","1080","opera","60.28","Windows 10","19","male","right","Wed Oct 23 2024 22:12:53 GMT+0200 (Mitteleuropäische Sommerzeit)","2","28","0","1729716476016"
"730","f","SpeechGestureMatch","../RequiredFiles/videos/JaKopfJa_f.mp4","Ist der Ball in der grünen Box?","Green","Blue","F","affirmation","match","speech","yes","HeadNod","female","speech-gesture","1920","1080","opera","60.28","Windows 10","19","male","right","Wed Oct 23 2024 22:12:59 GMT+0200 (Mitteleuropäische Sommerzeit)","2","29","0","1729716476016"
"895","f","SpeechGestureMatch","../RequiredFiles/videos/NeinKopfNein_f_no_gesture.mp4","Ist der Ball in der grünen Box?","Blue","Green","F","negation","na","speech","no","na","female","speech-gesture","1920","1080","opera","60.28","Windows 10","19","male","right","Wed Oct 23 2024 22:13:06 GMT+0200 (Mitteleuropäische Sommerzeit)","2","30","0","1729716476016"
"1044","f","SpeechGestureMatch","../RequiredFiles/videos/JaKopfNein_m.mp4","Ist der Ball in der blauen Box?","Blue","Green","F","affirmation","mismatch","speech","yes","HeadShake","male","speech-gesture","1920","1080","opera","60.28","Windows 10","19","male","right","Wed Oct 23 2024 22:13:13 GMT+0200 (Mitteleuropäische Sommerzeit)","2","31","0","1729716476016"
"1039","f","SpeechGestureMatch","../RequiredFiles/videos/NeinKopfJa_m.mp4","Ist der Ball in der blauen Box?","Green","Blue","F","negation","mismatch","speech","no","HeadNod","male","speech-gesture","1920","1080","opera","60.28","Windows 10","19","male","right","Wed Oct 23 2024 22:13:19 GMT+0200 (Mitteleuropäische Sommerzeit)","2","32","0","1729716476016"
"776","f","SpeechGestureMatch","../RequiredFiles/videos/JaKopfJa_f_no_gesture.mp4","Ist der Ball in der blauen Box?","Blue","Green","F","affirmation","na","speech","yes","na","female","speech-gesture","1920","1080","opera","60.28","Windows 10","19","male","right","Wed Oct 23 2024 22:13:25 GMT+0200 (Mitteleuropäische Sommerzeit)","2","33","0","1729716476016"
"841","f","SpeechGestureMatch","../RequiredFiles/videos/NeinKopfJa_f_no_gesture.mp4","Ist der Ball in der blauen Box?","Green","Blue","F","negation","na","speech","no","na","female","speech-gesture","1920","1080","opera","60.28","Windows 10","19","male","right","Wed Oct 23 2024 22:13:32 GMT+0200 (Mitteleuropäische Sommerzeit)","2","34","0","1729716476016"
"1114","f","SpeechGestureMatch","../RequiredFiles/videos/NeinKopfJa_m_no_gesture.mp4","Ist der Ball in der grünen Box?","Blue","Green","F","negation","na","speech","no","na","male","speech-gesture","1920","1080","opera","60.28","Windows 10","19","male","right","Wed Oct 23 2024 22:13:38 GMT+0200 (Mitteleuropäische Sommerzeit)","2","35","0","1729716476016"
"748","f","SpeechGestureMatch","../RequiredFiles/videos/JaKopfJa_m.mp4","Ist der Ball in der grünen Box?","Green","Blue","F","affirmation","match","speech","yes","HeadNod","male","speech-gesture","1920","1080","opera","60.28","Windows 10","19","male","right","Wed Oct 23 2024 22:13:45 GMT+0200 (Mitteleuropäische Sommerzeit)","2","36","0","1729716476016"
"790","j","SpeechGestureMatch","../RequiredFiles/videos/JaKopfJa_f_no_gesture.mp4","Ist der Ball in der blauen Box?","Green","Blue","J","affirmation","na","speech","yes","na","female","speech-gesture","1920","1080","opera","60.28","Windows 10","19","male","right","Wed Oct 23 2024 22:13:51 GMT+0200 (Mitteleuropäische Sommerzeit)","2","37","0","1729716476016"
"650","j","SpeechGestureMatch","../RequiredFiles/videos/NeinKopfNein_m.mp4","Ist der Ball in der blauen Box?","Blue","Green","J","negation","match","speech","no","HeadShake","male","speech-gesture","1920","1080","opera","60.28","Windows 10","19","male","right","Wed Oct 23 2024 22:13:57 GMT+0200 (Mitteleuropäische Sommerzeit)","2","38","0","1729716476016"
"774","j","SpeechGestureMatch","../RequiredFiles/videos/NeinKopfJa_f.mp4","Ist der Ball in der blauen Box?","Blue","Green","J","negation","mismatch","speech","no","HeadNod","female","speech-gesture","1920","1080","opera","60.28","Windows 10","19","male","right","Wed Oct 23 2024 22:14:04 GMT+0200 (Mitteleuropäische Sommerzeit)","2","39","0","1729716476016"
"909","j","SpeechGestureMatch","../RequiredFiles/videos/JaKopfNein_f.mp4","Ist der Ball in der blauen Box?","Green","Blue","J","affirmation","mismatch","speech","yes","HeadShake","female","speech-gesture","1920","1080","opera","60.28","Windows 10","19","male","right","Wed Oct 23 2024 22:14:10 GMT+0200 (Mitteleuropäische Sommerzeit)","2","40","0","1729716476016"
"1141","f","SpeechGestureMatch","../RequiredFiles/videos/JaKopfNein_m.mp4","Ist der Ball in der grünen Box?","Green","Blue","F","affirmation","mismatch","speech","yes","HeadShake","male","speech-gesture","1920","1080","opera","60.28","Windows 10","19","male","right","Wed Oct 23 2024 22:14:17 GMT+0200 (Mitteleuropäische Sommerzeit)","2","41","0","1729716476016"
"830","j","SpeechGestureMatch","../RequiredFiles/videos/JaKopfNein_f.mp4","Ist der Ball in der blauen Box?","Green","Blue","J","affirmation","mismatch","speech","yes","HeadShake","female","speech-gesture","1920","1080","opera","60.28","Windows 10","19","male","right","Wed Oct 23 2024 22:14:23 GMT+0200 (Mitteleuropäische Sommerzeit)","2","42","0","1729716476016"
"764","f","SpeechGestureMatch","../RequiredFiles/videos/JaKopfNein_f.mp4","Ist der Ball in der blauen Box?","Blue","Green","F","affirmation","mismatch","speech","yes","HeadShake","female","speech-gesture","1920","1080","opera","60.28","Windows 10","19","male","right","Wed Oct 23 2024 22:14:29 GMT+0200 (Mitteleuropäische Sommerzeit)","2","43","0","1729716476016"
"786","j","SpeechGestureMatch","../RequiredFiles/videos/JaKopfJa_m.mp4","Ist der Ball in der grünen Box?","Blue","Green","J","affirmation","match","speech","yes","HeadNod","male","speech-gesture","1920","1080","opera","60.28","Windows 10","19","male","right","Wed Oct 23 2024 22:14:36 GMT+0200 (Mitteleuropäische Sommerzeit)","2","44","0","1729716476016"
"857","j","SpeechGestureMatch","../RequiredFiles/videos/JaKopfJa_f.mp4","Ist der Ball in der grünen Box?","Blue","Green","J","affirmation","match","speech","yes","HeadNod","female","speech-gesture","1920","1080","opera","60.28","Windows 10","19","male","right","Wed Oct 23 2024 22:14:42 GMT+0200 (Mitteleuropäische Sommerzeit)","2","45","0","1729716476016"
"728","f","SpeechGestureMatch","../RequiredFiles/videos/JaKopfJa_m_no_gesture.mp4","Ist der Ball in der grünen Box?","Green","Blue","F","affirmation","na","speech","yes","na","male","speech-gesture","1920","1080","opera","60.28","Windows 10","19","male","right","Wed Oct 23 2024 22:14:48 GMT+0200 (Mitteleuropäische Sommerzeit)","2","46","0","1729716476016"
"773","j","SpeechGestureMatch","../RequiredFiles/videos/NeinKopfNein_m_no_gesture.mp4","Ist der Ball in der grünen Box?","Green","Blue","J","negation","na","speech","no","na","male","speech-gesture","1920","1080","opera","60.28","Windows 10","19","male","right","Wed Oct 23 2024 22:14:55 GMT+0200 (Mitteleuropäische Sommerzeit)","2","47","0","1729716476016"
"963","j","SpeechGestureMatch","../RequiredFiles/videos/JaKopfNein_f.mp4","Ist der Ball in der grünen Box?","Blue","Green","J","affirmation","mismatch","speech","yes","HeadShake","female","speech-gesture","1920","1080","opera","60.28","Windows 10","19","male","right","Wed Oct 23 2024 22:15:01 GMT+0200 (Mitteleuropäische Sommerzeit)","2","48","0","1729716476016"
"908","f","SpeechGestureMatch","../RequiredFiles/videos/NeinKopfNein_m.mp4","Ist der Ball in der blauen Box?","Green","Blue","F","negation","match","speech","no","HeadShake","male","speech-gesture","1920","1080","opera","60.28","Windows 10","19","male","right","Wed Oct 23 2024 22:15:08 GMT+0200 (Mitteleuropäische Sommerzeit)","2","49","0","1729716476016"
"904","f","SpeechGestureMatch","../RequiredFiles/videos/NeinKopfJa_f.mp4","Ist der Ball in der blauen Box?","Green","Blue","F","negation","mismatch","speech","no","HeadNod","female","speech-gesture","1920","1080","opera","60.28","Windows 10","19","male","right","Wed Oct 23 2024 22:15:14 GMT+0200 (Mitteleuropäische Sommerzeit)","2","50","0","1729716476016"
"802","f","SpeechGestureMatch","../RequiredFiles/videos/JaKopfNein_f_no_gesture.mp4","Ist der Ball in der blauen Box?","Blue","Green","F","affirmation","na","speech","yes","na","female","speech-gesture","1920","1080","opera","60.28","Windows 10","19","male","right","Wed Oct 23 2024 22:15:20 GMT+0200 (Mitteleuropäische Sommerzeit)","2","51","0","1729716476016"
"748","j","SpeechGestureMatch","../RequiredFiles/videos/JaKopfJa_m.mp4","Ist der Ball in der blauen Box?","Green","Blue","J","affirmation","match","speech","yes","HeadNod","male","speech-gesture","1920","1080","opera","60.28","Windows 10","19","male","right","Wed Oct 23 2024 22:15:27 GMT+0200 (Mitteleuropäische Sommerzeit)","2","52","0","1729716476016"
"984","j","SpeechGestureMatch","../RequiredFiles/videos/NeinKopfNein_m.mp4","Ist der Ball in der grünen Box?","Green","Blue","J","negation","match","speech","no","HeadShake","male","speech-gesture","1920","1080","opera","60.28","Windows 10","19","male","right","Wed Oct 23 2024 22:15:33 GMT+0200 (Mitteleuropäische Sommerzeit)","2","53","0","1729716476016"
"868","j","SpeechGestureMatch","../RequiredFiles/videos/JaKopfNein_m.mp4","Ist der Ball in der grünen Box?","Blue","Green","J","affirmation","mismatch","speech","yes","HeadShake","male","speech-gesture","1920","1080","opera","60.28","Windows 10","19","male","right","Wed Oct 23 2024 22:15:40 GMT+0200 (Mitteleuropäische Sommerzeit)","2","54","0","1729716476016"
"887","j","SpeechGestureMatch","../RequiredFiles/videos/NeinKopfJa_m.mp4","Ist der Ball in der blauen Box?","Blue","Green","J","negation","mismatch","speech","no","HeadNod","male","speech-gesture","1920","1080","opera","60.28","Windows 10","19","male","right","Wed Oct 23 2024 22:15:46 GMT+0200 (Mitteleuropäische Sommerzeit)","2","55","0","1729716476016"
"894","j","SpeechGestureMatch","../RequiredFiles/videos/NeinKopfNein_f_no_gesture.mp4","Ist der Ball in der grünen Box?","Green","Blue","J","negation","na","speech","no","na","female","speech-gesture","1920","1080","opera","60.28","Windows 10","19","male","right","Wed Oct 23 2024 22:15:52 GMT+0200 (Mitteleuropäische Sommerzeit)","2","56","0","1729716476016"
"989","f","SpeechGestureMatch","../RequiredFiles/videos/NeinKopfJa_f.mp4","Ist der Ball in der grünen Box?","Blue","Green","F","negation","mismatch","speech","no","HeadNod","female","speech-gesture","1920","1080","opera","60.28","Windows 10","19","male","right","Wed Oct 23 2024 22:15:59 GMT+0200 (Mitteleuropäische Sommerzeit)","2","57","0","1729716476016"
"760","j","SpeechGestureMatch","../RequiredFiles/videos/NeinKopfJa_m.mp4","Ist der Ball in der grünen Box?","Green","Blue","J","negation","mismatch","speech","no","HeadNod","male","speech-gesture","1920","1080","opera","60.28","Windows 10","19","male","right","Wed Oct 23 2024 22:16:05 GMT+0200 (Mitteleuropäische Sommerzeit)","2","58","0","1729716476016"
"954","f","SpeechGestureMatch","../RequiredFiles/videos/NeinKopfNein_m.mp4","Ist der Ball in der grünen Box?","Blue","Green","F","negation","match","speech","no","HeadShake","male","speech-gesture","1920","1080","opera","60.28","Windows 10","19","male","right","Wed Oct 23 2024 22:16:12 GMT+0200 (Mitteleuropäische Sommerzeit)","2","59","0","1729716476016"
"1067","j","SpeechGestureMatch","../RequiredFiles/videos/NeinKopfNein_f.mp4","Ist der Ball in der grünen Box?","Green","Blue","J","negation","match","speech","no","HeadShake","female","speech-gesture","1920","1080","opera","60.28","Windows 10","19","male","right","Wed Oct 23 2024 22:16:18 GMT+0200 (Mitteleuropäische Sommerzeit)","2","60","0","1729716476016"
"898","f","SpeechGestureMatch","../RequiredFiles/videos/JaKopfNein_m_no_gesture.mp4","Ist der Ball in der grünen Box?","Green","Blue","F","affirmation","na","speech","yes","na","male","speech-gesture","1920","1080","opera","60.28","Windows 10","19","male","right","Wed Oct 23 2024 22:16:25 GMT+0200 (Mitteleuropäische Sommerzeit)","2","61","0","1729716476016"
"1131","j","SpeechGestureMatch","../RequiredFiles/videos/NeinKopfNein_f_no_gesture.mp4","Ist der Ball in der blauen Box?","Blue","Green","J","negation","na","speech","no","na","female","speech-gesture","1920","1080","opera","60.28","Windows 10","19","male","right","Wed Oct 23 2024 22:16:31 GMT+0200 (Mitteleuropäische Sommerzeit)","2","62","0","1729716476016"
"1040","f","SpeechGestureMatch","../RequiredFiles/videos/NeinKopfNein_m_no_gesture.mp4","Ist der Ball in der grünen Box?","Blue","Green","F","negation","na","speech","no","na","male","speech-gesture","1920","1080","opera","60.28","Windows 10","19","male","right","Wed Oct 23 2024 22:16:38 GMT+0200 (Mitteleuropäische Sommerzeit)","2","63","0","1729716476016"
"791","f","SpeechGestureMatch","../RequiredFiles/videos/JaKopfJa_m_no_gesture.mp4","Ist der Ball in der blauen Box?","Blue","Green","F","affirmation","na","speech","yes","na","male","speech-gesture","1920","1080","opera","60.28","Windows 10","19","male","right","Wed Oct 23 2024 22:16:44 GMT+0200 (Mitteleuropäische Sommerzeit)","2","64","0","1729716476016"
"855","j","SpeechGestureMatch","../RequiredFiles/videos/NeinKopfJa_m.mp4","Ist der Ball in der blauen Box?","Blue","Green","J","negation","mismatch","speech","no","HeadNod","male","speech-gesture","1920","1080","opera","60.28","Windows 10","19","male","right","Wed Oct 23 2024 22:16:51 GMT+0200 (Mitteleuropäische Sommerzeit)","2","65","0","1729716476016"
"813","f","SpeechGestureMatch","../RequiredFiles/videos/JaKopfNein_f.mp4","Ist der Ball in der blauen Box?","Blue","Green","F","affirmation","mismatch","speech","yes","HeadShake","female","speech-gesture","1920","1080","opera","60.28","Windows 10","19","male","right","Wed Oct 23 2024 22:16:57 GMT+0200 (Mitteleuropäische Sommerzeit)","2","66","0","1729716476016"
"855","j","SpeechGestureMatch","../RequiredFiles/videos/NeinKopfJa_f_no_gesture.mp4","Ist der Ball in der blauen Box?","Blue","Green","J","negation","na","speech","no","na","female","speech-gesture","1920","1080","opera","60.28","Windows 10","19","male","right","Wed Oct 23 2024 22:17:04 GMT+0200 (Mitteleuropäische Sommerzeit)","2","67","0","1729716476016"
"758","f","SpeechGestureMatch","../RequiredFiles/videos/JaKopfJa_m.mp4","Ist der Ball in der blauen Box?","Blue","Green","F","affirmation","match","speech","yes","HeadNod","male","speech-gesture","1920","1080","opera","60.28","Windows 10","19","male","right","Wed Oct 23 2024 22:17:10 GMT+0200 (Mitteleuropäische Sommerzeit)","2","68","0","1729716476016"
"810","f","SpeechGestureMatch","../RequiredFiles/videos/NeinKopfJa_f_no_gesture.mp4","Ist der Ball in der grünen Box?","Blue","Green","F","negation","na","speech","no","na","female","speech-gesture","1920","1080","opera","60.28","Windows 10","19","male","right","Wed Oct 23 2024 22:17:16 GMT+0200 (Mitteleuropäische Sommerzeit)","2","69","0","1729716476016"
"927","f","SpeechGestureMatch","../RequiredFiles/videos/NeinKopfNein_m_no_gesture.mp4","Ist der Ball in der blauen Box?","Green","Blue","F","negation","na","speech","no","na","male","speech-gesture","1920","1080","opera","60.28","Windows 10","19","male","right","Wed Oct 23 2024 22:17:23 GMT+0200 (Mitteleuropäische Sommerzeit)","2","70","0","1729716476016"
"816","j","SpeechGestureMatch","../RequiredFiles/videos/JaKopfNein_m.mp4","Ist der Ball in der grünen Box?","Blue","Green","J","affirmation","mismatch","speech","yes","HeadShake","male","speech-gesture","1920","1080","opera","60.28","Windows 10","19","male","right","Wed Oct 23 2024 22:17:29 GMT+0200 (Mitteleuropäische Sommerzeit)","2","71","0","1729716476016"
"764","j","SpeechGestureMatch","../RequiredFiles/videos/JaKopfJa_m.mp4","Ist der Ball in der blauen Box?","Green","Blue","J","affirmation","match","speech","yes","HeadNod","male","speech-gesture","1920","1080","opera","60.28","Windows 10","19","male","right","Wed Oct 23 2024 22:17:35 GMT+0200 (Mitteleuropäische Sommerzeit)","2","72","0","1729716476016"
"1048","j","SpeechGestureMatch","../RequiredFiles/videos/NeinKopfJa_f.mp4","Ist der Ball in der grünen Box?","Green","Blue","J","negation","mismatch","speech","no","HeadNod","female","speech-gesture","1920","1080","opera","60.28","Windows 10","19","male","right","Wed Oct 23 2024 22:17:42 GMT+0200 (Mitteleuropäische Sommerzeit)","2","73","0","1729716476016"
"672","f","SpeechGestureMatch","../RequiredFiles/videos/JaKopfNein_f.mp4","Ist der Ball in der grünen Box?","Green","Blue","F","affirmation","mismatch","speech","yes","HeadShake","female","speech-gesture","1920","1080","opera","60.28","Windows 10","19","male","right","Wed Oct 23 2024 22:17:48 GMT+0200 (Mitteleuropäische Sommerzeit)","2","74","0","1729716476016"
"729","f","SpeechGestureMatch","../RequiredFiles/videos/NeinKopfNein_f_no_gesture.mp4","Ist der Ball in der blauen Box?","Green","Blue","F","negation","na","speech","no","na","female","speech-gesture","1920","1080","opera","60.28","Windows 10","19","male","right","Wed Oct 23 2024 22:17:54 GMT+0200 (Mitteleuropäische Sommerzeit)","2","75","0","1729716476016"
"974","j","SpeechGestureMatch","../RequiredFiles/videos/NeinKopfJa_m_no_gesture.mp4","Ist der Ball in der blauen Box?","Blue","Green","J","negation","na","speech","no","na","male","speech-gesture","1920","1080","opera","60.28","Windows 10","19","male","right","Wed Oct 23 2024 22:18:01 GMT+0200 (Mitteleuropäische Sommerzeit)","2","76","0","1729716476016"
"1812","j","SpeechGestureMatch","../RequiredFiles/videos/JaKopfNein_f_no_gesture.mp4","Ist der Ball in der grünen Box?","Blue","Green","J","affirmation","na","speech","yes","na","female","speech-gesture","1920","1080","opera","60.28","Windows 10","19","male","right","Wed Oct 23 2024 22:18:08 GMT+0200 (Mitteleuropäische Sommerzeit)","2","77","0","1729716476016"
"805","j","SpeechGestureMatch","../RequiredFiles/videos/NeinKopfNein_m.mp4","Ist der Ball in der grünen Box?","Green","Blue","J","negation","match","speech","no","HeadShake","male","speech-gesture","1920","1080","opera","60.28","Windows 10","19","male","right","Wed Oct 23 2024 22:18:15 GMT+0200 (Mitteleuropäische Sommerzeit)","2","78","0","1729716476016"
"835","j","SpeechGestureMatch","../RequiredFiles/videos/NeinKopfJa_f.mp4","Ist der Ball in der grünen Box?","Green","Blue","J","negation","mismatch","speech","no","HeadNod","female","speech-gesture","1920","1080","opera","60.28","Windows 10","19","male","right","Wed Oct 23 2024 22:18:21 GMT+0200 (Mitteleuropäische Sommerzeit)","2","79","0","1729716476016"
"768","j","SpeechGestureMatch","../RequiredFiles/videos/JaKopfJa_f_no_gesture.mp4","Ist der Ball in der grünen Box?","Blue","Green","J","affirmation","na","speech","yes","na","female","speech-gesture","1920","1080","opera","60.28","Windows 10","19","male","right","Wed Oct 23 2024 22:18:27 GMT+0200 (Mitteleuropäische Sommerzeit)","2","80","0","1729716476016"
"696","j","SpeechGestureMatch","../RequiredFiles/videos/JaKopfJa_f.mp4","Ist der Ball in der blauen Box?","Green","Blue","J","affirmation","match","speech","yes","HeadNod","female","speech-gesture","1920","1080","opera","60.28","Windows 10","19","male","right","Wed Oct 23 2024 22:18:33 GMT+0200 (Mitteleuropäische Sommerzeit)","2","81","0","1729716476016"
"1276","f","SpeechGestureMatch","../RequiredFiles/videos/NeinKopfJa_f.mp4","Ist der Ball in der grünen Box?","Blue","Green","F","negation","mismatch","speech","no","HeadNod","female","speech-gesture","1920","1080","opera","60.28","Windows 10","19","male","right","Wed Oct 23 2024 22:18:40 GMT+0200 (Mitteleuropäische Sommerzeit)","2","82","0","1729716476016"
"1227","f","SpeechGestureMatch","../RequiredFiles/videos/JaKopfJa_f.mp4","Ist der Ball in der grünen Box?","Green","Blue","F","affirmation","match","speech","yes","HeadNod","female","speech-gesture","1920","1080","opera","60.28","Windows 10","19","male","right","Wed Oct 23 2024 22:18:47 GMT+0200 (Mitteleuropäische Sommerzeit)","2","83","0","1729716476016"
"755","f","SpeechGestureMatch","../RequiredFiles/videos/JaKopfJa_m.mp4","Ist der Ball in der blauen Box?","Blue","Green","F","affirmation","match","speech","yes","HeadNod","male","speech-gesture","1920","1080","opera","60.28","Windows 10","19","male","right","Wed Oct 23 2024 22:18:53 GMT+0200 (Mitteleuropäische Sommerzeit)","2","84","0","1729716476016"
"786","j","SpeechGestureMatch","../RequiredFiles/videos/JaKopfJa_f.mp4","Ist der Ball in der grünen Box?","Blue","Green","J","affirmation","match","speech","yes","HeadNod","female","speech-gesture","1920","1080","opera","60.28","Windows 10","19","male","right","Wed Oct 23 2024 22:19:00 GMT+0200 (Mitteleuropäische Sommerzeit)","2","85","0","1729716476016"
"1546","f","SpeechGestureMatch","../RequiredFiles/videos/JaKopfNein_m.mp4","Ist der Ball in der blauen Box?","Blue","Green","F","affirmation","mismatch","speech","yes","HeadShake","male","speech-gesture","1920","1080","opera","60.28","Windows 10","19","male","right","Wed Oct 23 2024 22:19:07 GMT+0200 (Mitteleuropäische Sommerzeit)","2","86","0","1729716476016"
"848","f","SpeechGestureMatch","../RequiredFiles/videos/NeinKopfJa_m_no_gesture.mp4","Ist der Ball in der blauen Box?","Green","Blue","F","negation","na","speech","no","na","male","speech-gesture","1920","1080","opera","60.28","Windows 10","19","male","right","Wed Oct 23 2024 22:19:13 GMT+0200 (Mitteleuropäische Sommerzeit)","2","87","0","1729716476016"
"1037","j","SpeechGestureMatch","../RequiredFiles/videos/JaKopfJa_f.mp4","Ist der Ball in der blauen Box?","Green","Blue","J","affirmation","match","speech","yes","HeadNod","female","speech-gesture","1920","1080","opera","60.28","Windows 10","19","male","right","Wed Oct 23 2024 22:19:20 GMT+0200 (Mitteleuropäische Sommerzeit)","2","88","0","1729716476016"
"797","f","SpeechGestureMatch","../RequiredFiles/videos/JaKopfNein_m_no_gesture.mp4","Ist der Ball in der blauen Box?","Blue","Green","F","affirmation","na","speech","yes","na","male","speech-gesture","1920","1080","opera","60.28","Windows 10","19","male","right","Wed Oct 23 2024 22:19:26 GMT+0200 (Mitteleuropäische Sommerzeit)","2","89","0","1729716476016"
"933","j","SpeechGestureMatch","../RequiredFiles/videos/NeinKopfJa_f.mp4","Ist der Ball in der blauen Box?","Blue","Green","J","negation","mismatch","speech","no","HeadNod","female","speech-gesture","1920","1080","opera","60.28","Windows 10","19","male","right","Wed Oct 23 2024 22:19:32 GMT+0200 (Mitteleuropäische Sommerzeit)","2","90","0","1729716476016"
"778","f","SpeechGestureMatch","../RequiredFiles/videos/JaKopfNein_f.mp4","Ist der Ball in der grünen Box?","Green","Blue","F","affirmation","mismatch","speech","yes","HeadShake","female","speech-gesture","1920","1080","opera","60.28","Windows 10","19","male","right","Wed Oct 23 2024 22:19:39 GMT+0200 (Mitteleuropäische Sommerzeit)","2","91","0","1729716476016"
"755","f","SpeechGestureMatch","../RequiredFiles/videos/JaKopfJa_f.mp4","Ist der Ball in der blauen Box?","Blue","Green","F","affirmation","match","speech","yes","HeadNod","female","speech-gesture","1920","1080","opera","60.28","Windows 10","19","male","right","Wed Oct 23 2024 22:19:45 GMT+0200 (Mitteleuropäische Sommerzeit)","2","92","0","1729716476016"
"1345","f","SpeechGestureMatch","../RequiredFiles/videos/NeinKopfNein_m.mp4","Ist der Ball in der blauen Box?","Green","Blue","F","negation","match","speech","no","HeadShake","male","speech-gesture","1920","1080","opera","60.28","Windows 10","19","male","right","Wed Oct 23 2024 22:19:52 GMT+0200 (Mitteleuropäische Sommerzeit)","2","93","0","1729716476016"
"810","f","SpeechGestureMatch","../RequiredFiles/videos/NeinKopfJa_m.mp4","Ist der Ball in der grünen Box?","Blue","Green","F","negation","mismatch","speech","no","HeadNod","male","speech-gesture","1920","1080","opera","60.28","Windows 10","19","male","right","Wed Oct 23 2024 22:19:58 GMT+0200 (Mitteleuropäische Sommerzeit)","2","94","0","1729716476016"
"744","j","SpeechGestureMatch","../RequiredFiles/videos/JaKopfNein_m_no_gesture.mp4","Ist der Ball in der grünen Box?","Blue","Green","J","affirmation","na","speech","yes","na","male","speech-gesture","1920","1080","opera","60.28","Windows 10","19","male","right","Wed Oct 23 2024 22:20:05 GMT+0200 (Mitteleuropäische Sommerzeit)","2","95","0","1729716476016"
"808","j","SpeechGestureMatch","../RequiredFiles/videos/JaKopfNein_m.mp4","Ist der Ball in der blauen Box?","Green","Blue","J","affirmation","mismatch","speech","yes","HeadShake","male","speech-gesture","1920","1080","opera","60.28","Windows 10","19","male","right","Wed Oct 23 2024 22:20:11 GMT+0200 (Mitteleuropäische Sommerzeit)","2","96","0","1729716476016"
"940","f","SpeechGestureMatch","../RequiredFiles/videos/NeinKopfJa_f.mp4","Ist der Ball in der blauen Box?","Blue","Green","F","affirmation","mismatch","gesture","no","HeadNod","female","speech-gesture","1920","1080","opera","60.28","Windows 10","19","male","right","Wed Oct 23 2024 22:24:50 GMT+0200 (Mitteleuropäische Sommerzeit)","3","1","0","1729716476016"
"663","j","SpeechGestureMatch","../RequiredFiles/videos/JaKopfJa_f_no_sound.mp4","Ist der Ball in der blauen Box?","Green","Blue","J","affirmation","na","gesture","na","HeadNod","female","speech-gesture","1920","1080","opera","60.28","Windows 10","19","male","right","Wed Oct 23 2024 22:24:56 GMT+0200 (Mitteleuropäische Sommerzeit)","3","2","0","1729716476016"
"1026","f","SpeechGestureMatch","../RequiredFiles/videos/JaKopfNein_m.mp4","Ist der Ball in der blauen Box?","Green","Blue","F","negation","mismatch","gesture","yes","HeadShake","male","speech-gesture","1920","1080","opera","60.28","Windows 10","19","male","right","Wed Oct 23 2024 22:25:03 GMT+0200 (Mitteleuropäische Sommerzeit)","3","3","0","1729716476016"
"561","j","SpeechGestureMatch","../RequiredFiles/videos/NeinKopfJa_f_no_sound.mp4","Ist der Ball in der blauen Box?","Green","Blue","J","affirmation","na","gesture","na","HeadNod","female","speech-gesture","1920","1080","opera","60.28","Windows 10","19","male","right","Wed Oct 23 2024 22:25:09 GMT+0200 (Mitteleuropäische Sommerzeit)","3","4","0","1729716476016"
"616","f","SpeechGestureMatch","../RequiredFiles/videos/JaKopfJa_m_no_sound.mp4","Ist der Ball in der grünen Box?","Green","Blue","F","affirmation","na","gesture","na","HeadNod","male","speech-gesture","1920","1080","opera","60.28","Windows 10","19","male","right","Wed Oct 23 2024 22:25:15 GMT+0200 (Mitteleuropäische Sommerzeit)","3","5","0","1729716476016"
"1212","f","SpeechGestureMatch","../RequiredFiles/videos/NeinKopfNein_m.mp4","Ist der Ball in der grünen Box?","Blue","Green","F","negation","match","gesture","no","HeadShake","male","speech-gesture","1920","1080","opera","60.28","Windows 10","19","male","right","Wed Oct 23 2024 22:25:22 GMT+0200 (Mitteleuropäische Sommerzeit)","3","6","0","1729716476016"
"775","f","SpeechGestureMatch","../RequiredFiles/videos/NeinKopfJa_f_no_sound.mp4","Ist der Ball in der grünen Box?","Green","Blue","F","affirmation","na","gesture","na","HeadNod","female","speech-gesture","1920","1080","opera","60.28","Windows 10","19","male","right","Wed Oct 23 2024 22:25:28 GMT+0200 (Mitteleuropäische Sommerzeit)","3","7","0","1729716476016"
"814","f","SpeechGestureMatch","../RequiredFiles/videos/NeinKopfJa_m.mp4","Ist der Ball in der blauen Box?","Blue","Green","F","affirmation","mismatch","gesture","no","HeadNod","male","speech-gesture","1920","1080","opera","60.28","Windows 10","19","male","right","Wed Oct 23 2024 22:25:34 GMT+0200 (Mitteleuropäische Sommerzeit)","3","8","0","1729716476016"
"1378","f","SpeechGestureMatch","../RequiredFiles/videos/JaKopfNein_f_no_sound.mp4","Ist der Ball in der grünen Box?","Blue","Green","F","negation","na","gesture","na","HeadShake","female","speech-gesture","1920","1080","opera","60.28","Windows 10","19","male","right","Wed Oct 23 2024 22:25:41 GMT+0200 (Mitteleuropäische Sommerzeit)","3","9","0","1729716476016"
"642","j","SpeechGestureMatch","../RequiredFiles/videos/NeinKopfNein_m_no_sound.mp4","Ist der Ball in der grünen Box?","Green","Blue","J","negation","na","gesture","na","HeadShake","male","speech-gesture","1920","1080","opera","60.28","Windows 10","19","male","right","Wed Oct 23 2024 22:25:47 GMT+0200 (Mitteleuropäische Sommerzeit)","3","10","0","1729716476016"
"712","j","SpeechGestureMatch","../RequiredFiles/videos/NeinKopfJa_f.mp4","Ist der Ball in der blauen Box?","Green","Blue","J","affirmation","mismatch","gesture","no","HeadNod","female","speech-gesture","1920","1080","opera","60.28","Windows 10","19","male","right","Wed Oct 23 2024 22:25:54 GMT+0200 (Mitteleuropäische Sommerzeit)","3","11","0","1729716476016"
"645","f","SpeechGestureMatch","../RequiredFiles/videos/NeinKopfNein_m_no_sound.mp4","Ist der Ball in der grünen Box?","Blue","Green","F","negation","na","gesture","na","HeadShake","male","speech-gesture","1920","1080","opera","60.28","Windows 10","19","male","right","Wed Oct 23 2024 22:26:00 GMT+0200 (Mitteleuropäische Sommerzeit)","3","12","0","1729716476016"
"1284","f","SpeechGestureMatch","../RequiredFiles/videos/NeinKopfNein_f.mp4","Ist der Ball in der blauen Box?","Green","Blue","F","negation","match","gesture","no","HeadShake","female","speech-gesture","1920","1080","opera","60.28","Windows 10","19","male","right","Wed Oct 23 2024 22:26:07 GMT+0200 (Mitteleuropäische Sommerzeit)","3","13","0","1729716476016"
"933","f","SpeechGestureMatch","../RequiredFiles/videos/JaKopfNein_f.mp4","Ist der Ball in der grünen Box?","Blue","Green","F","negation","mismatch","gesture","yes","HeadShake","female","speech-gesture","1920","1080","opera","60.28","Windows 10","19","male","right","Wed Oct 23 2024 22:26:13 GMT+0200 (Mitteleuropäische Sommerzeit)","3","14","0","1729716476016"
"715","j","SpeechGestureMatch","../RequiredFiles/videos/JaKopfJa_f_no_sound.mp4","Ist der Ball in der grünen Box?","Blue","Green","J","affirmation","na","gesture","na","HeadNod","female","speech-gesture","1920","1080","opera","60.28","Windows 10","19","male","right","Wed Oct 23 2024 22:26:19 GMT+0200 (Mitteleuropäische Sommerzeit)","3","15","0","1729716476016"
"585","j","SpeechGestureMatch","../RequiredFiles/videos/JaKopfJa_f.mp4","Ist der Ball in der blauen Box?","Green","Blue","J","affirmation","match","gesture","yes","HeadNod","female","speech-gesture","1920","1080","opera","60.28","Windows 10","19","male","right","Wed Oct 23 2024 22:26:25 GMT+0200 (Mitteleuropäische Sommerzeit)","3","16","0","1729716476016"
"938","f","SpeechGestureMatch","../RequiredFiles/videos/NeinKopfJa_f.mp4","Ist der Ball in der grünen Box?","Green","Blue","F","affirmation","mismatch","gesture","no","HeadNod","female","speech-gesture","1920","1080","opera","60.28","Windows 10","19","male","right","Wed Oct 23 2024 22:26:32 GMT+0200 (Mitteleuropäische Sommerzeit)","3","17","0","1729716476016"
"691","j","SpeechGestureMatch","../RequiredFiles/videos/NeinKopfJa_m.mp4","Ist der Ball in der grünen Box?","Blue","Green","J","affirmation","mismatch","gesture","no","HeadNod","male","speech-gesture","1920","1080","opera","60.28","Windows 10","19","male","right","Wed Oct 23 2024 22:26:38 GMT+0200 (Mitteleuropäische Sommerzeit)","3","18","0","1729716476016"
"606","j","SpeechGestureMatch","../RequiredFiles/videos/NeinKopfJa_m_no_sound.mp4","Ist der Ball in der blauen Box?","Green","Blue","J","affirmation","na","gesture","na","HeadNod","male","speech-gesture","1920","1080","opera","60.28","Windows 10","19","male","right","Wed Oct 23 2024 22:26:44 GMT+0200 (Mitteleuropäische Sommerzeit)","3","19","0","1729716476016"
"987","j","SpeechGestureMatch","../RequiredFiles/videos/NeinKopfJa_f.mp4","Ist der Ball in der blauen Box?","Green","Blue","J","affirmation","mismatch","gesture","no","HeadNod","female","speech-gesture","1920","1080","opera","60.28","Windows 10","19","male","right","Wed Oct 23 2024 22:26:51 GMT+0200 (Mitteleuropäische Sommerzeit)","3","20","0","1729716476016"
"715","f","SpeechGestureMatch","../RequiredFiles/videos/JaKopfJa_f.mp4","Ist der Ball in der grünen Box?","Green","Blue","F","affirmation","match","gesture","yes","HeadNod","female","speech-gesture","1920","1080","opera","60.28","Windows 10","19","male","right","Wed Oct 23 2024 22:26:57 GMT+0200 (Mitteleuropäische Sommerzeit)","3","21","0","1729716476016"
"1074","j","SpeechGestureMatch","../RequiredFiles/videos/NeinKopfNein_m.mp4","Ist der Ball in der grünen Box?","Green","Blue","J","negation","match","gesture","no","HeadShake","male","speech-gesture","1920","1080","opera","60.28","Windows 10","19","male","right","Wed Oct 23 2024 22:27:04 GMT+0200 (Mitteleuropäische Sommerzeit)","3","22","0","1729716476016"
"772","j","SpeechGestureMatch","../RequiredFiles/videos/JaKopfNein_f.mp4","Ist der Ball in der grünen Box?","Green","Blue","J","negation","mismatch","gesture","yes","HeadShake","female","speech-gesture","1920","1080","opera","60.28","Windows 10","19","male","right","Wed Oct 23 2024 22:27:10 GMT+0200 (Mitteleuropäische Sommerzeit)","3","23","0","1729716476016"
"996","f","SpeechGestureMatch","../RequiredFiles/videos/JaKopfNein_f_no_sound.mp4","Ist der Ball in der blauen Box?","Green","Blue","F","negation","na","gesture","na","HeadShake","female","speech-gesture","1920","1080","opera","60.28","Windows 10","19","male","right","Wed Oct 23 2024 22:27:17 GMT+0200 (Mitteleuropäische Sommerzeit)","3","24","0","1729716476016"
"622","j","SpeechGestureMatch","../RequiredFiles/videos/JaKopfJa_m_no_sound.mp4","Ist der Ball in der blauen Box?","Green","Blue","J","affirmation","na","gesture","na","HeadNod","male","speech-gesture","1920","1080","opera","60.28","Windows 10","19","male","right","Wed Oct 23 2024 22:27:23 GMT+0200 (Mitteleuropäische Sommerzeit)","3","25","0","1729716476016"
"745","j","SpeechGestureMatch","../RequiredFiles/videos/JaKopfNein_m_no_sound.mp4","Ist der Ball in der blauen Box?","Blue","Green","J","negation","na","gesture","na","HeadShake","male","speech-gesture","1920","1080","opera","60.28","Windows 10","19","male","right","Wed Oct 23 2024 22:27:29 GMT+0200 (Mitteleuropäische Sommerzeit)","3","26","0","1729716476016"
"708","j","SpeechGestureMatch","../RequiredFiles/videos/NeinKopfNein_f_no_sound.mp4","Ist der Ball in der grünen Box?","Green","Blue","J","negation","na","gesture","na","HeadShake","female","speech-gesture","1920","1080","opera","60.28","Windows 10","19","male","right","Wed Oct 23 2024 22:27:35 GMT+0200 (Mitteleuropäische Sommerzeit)","3","27","0","1729716476016"
"1780","f","SpeechGestureMatch","../RequiredFiles/videos/NeinKopfNein_m.mp4","Ist der Ball in der blauen Box?","Green","Blue","F","negation","match","gesture","no","HeadShake","male","speech-gesture","1920","1080","opera","60.28","Windows 10","19","male","right","Wed Oct 23 2024 22:27:43 GMT+0200 (Mitteleuropäische Sommerzeit)","3","28","0","1729716476016"
"1016","j","SpeechGestureMatch","../RequiredFiles/videos/JaKopfNein_f_no_sound.mp4","Ist der Ball in der blauen Box?","Blue","Green","J","negation","na","gesture","na","HeadShake","female","speech-gesture","1920","1080","opera","60.28","Windows 10","19","male","right","Wed Oct 23 2024 22:27:49 GMT+0200 (Mitteleuropäische Sommerzeit)","3","29","0","1729716476016"
"909","f","SpeechGestureMatch","../RequiredFiles/videos/JaKopfJa_f_no_sound.mp4","Ist der Ball in der blauen Box?","Blue","Green","F","affirmation","na","gesture","na","HeadNod","female","speech-gesture","1920","1080","opera","60.28","Windows 10","19","male","right","Wed Oct 23 2024 22:27:56 GMT+0200 (Mitteleuropäische Sommerzeit)","3","30","0","1729716476016"
"677","f","SpeechGestureMatch","../RequiredFiles/videos/NeinKopfJa_m_no_sound.mp4","Ist der Ball in der grünen Box?","Green","Blue","F","affirmation","na","gesture","na","HeadNod","male","speech-gesture","1920","1080","opera","60.28","Windows 10","19","male","right","Wed Oct 23 2024 22:28:02 GMT+0200 (Mitteleuropäische Sommerzeit)","3","31","0","1729716476016"
"821","j","SpeechGestureMatch","../RequiredFiles/videos/NeinKopfNein_f.mp4","Ist der Ball in der grünen Box?","Green","Blue","J","negation","match","gesture","no","HeadShake","female","speech-gesture","1920","1080","opera","60.28","Windows 10","19","male","right","Wed Oct 23 2024 22:28:08 GMT+0200 (Mitteleuropäische Sommerzeit)","3","32","0","1729716476016"
"1038","f","SpeechGestureMatch","../RequiredFiles/videos/JaKopfNein_m_no_sound.mp4","Ist der Ball in der grünen Box?","Blue","Green","F","negation","na","gesture","na","HeadShake","male","speech-gesture","1920","1080","opera","60.28","Windows 10","19","male","right","Wed Oct 23 2024 22:28:15 GMT+0200 (Mitteleuropäische Sommerzeit)","3","33","0","1729716476016"
"723","j","SpeechGestureMatch","../RequiredFiles/videos/NeinKopfNein_m.mp4","Ist der Ball in der blauen Box?","Blue","Green","J","negation","match","gesture","no","HeadShake","male","speech-gesture","1920","1080","opera","60.28","Windows 10","19","male","right","Wed Oct 23 2024 22:28:21 GMT+0200 (Mitteleuropäische Sommerzeit)","3","34","0","1729716476016"
"1111","f","SpeechGestureMatch","../RequiredFiles/videos/NeinKopfNein_f_no_sound.mp4","Ist der Ball in der grünen Box?","Blue","Green","F","negation","na","gesture","na","HeadShake","female","speech-gesture","1920","1080","opera","60.28","Windows 10","19","male","right","Wed Oct 23 2024 22:28:28 GMT+0200 (Mitteleuropäische Sommerzeit)","3","35","0","1729716476016"
"1134","j","SpeechGestureMatch","../RequiredFiles/videos/JaKopfNein_f.mp4","Ist der Ball in der blauen Box?","Blue","Green","J","negation","mismatch","gesture","yes","HeadShake","female","speech-gesture","1920","1080","opera","60.28","Windows 10","19","male","right","Wed Oct 23 2024 22:28:34 GMT+0200 (Mitteleuropäische Sommerzeit)","3","36","0","1729716476016"
"998","f","SpeechGestureMatch","../RequiredFiles/videos/JaKopfJa_m.mp4","Ist der Ball in der blauen Box?","Blue","Green","F","affirmation","match","gesture","yes","HeadNod","male","speech-gesture","1920","1080","opera","60.28","Windows 10","19","male","right","Wed Oct 23 2024 22:28:41 GMT+0200 (Mitteleuropäische Sommerzeit)","3","37","0","1729716476016"
"700","j","SpeechGestureMatch","../RequiredFiles/videos/JaKopfNein_f_no_sound.mp4","Ist der Ball in der grünen Box?","Green","Blue","J","negation","na","gesture","na","HeadShake","female","speech-gesture","1920","1080","opera","60.28","Windows 10","19","male","right","Wed Oct 23 2024 22:28:47 GMT+0200 (Mitteleuropäische Sommerzeit)","3","38","0","1729716476016"
"837","j","SpeechGestureMatch","../RequiredFiles/videos/JaKopfNein_m_no_sound.mp4","Ist der Ball in der grünen Box?","Green","Blue","J","negation","na","gesture","na","HeadShake","male","speech-gesture","1920","1080","opera","60.28","Windows 10","19","male","right","Wed Oct 23 2024 22:28:53 GMT+0200 (Mitteleuropäische Sommerzeit)","3","39","0","1729716476016"
"1513","f","SpeechGestureMatch","../RequiredFiles/videos/JaKopfNein_f.mp4","Ist der Ball in der blauen Box?","Green","Blue","F","negation","mismatch","gesture","yes","HeadShake","female","speech-gesture","1920","1080","opera","60.28","Windows 10","19","male","right","Wed Oct 23 2024 22:29:00 GMT+0200 (Mitteleuropäische Sommerzeit)","3","40","0","1729716476016"
"929","f","SpeechGestureMatch","../RequiredFiles/videos/NeinKopfNein_m.mp4","Ist der Ball in der grünen Box?","Blue","Green","F","negation","match","gesture","no","HeadShake","male","speech-gesture","1920","1080","opera","60.28","Windows 10","19","male","right","Wed Oct 23 2024 22:29:07 GMT+0200 (Mitteleuropäische Sommerzeit)","3","41","0","1729716476016"
"616","f","SpeechGestureMatch","../RequiredFiles/videos/JaKopfJa_m.mp4","Ist der Ball in der grünen Box?","Green","Blue","F","affirmation","match","gesture","yes","HeadNod","male","speech-gesture","1920","1080","opera","60.28","Windows 10","19","male","right","Wed Oct 23 2024 22:29:13 GMT+0200 (Mitteleuropäische Sommerzeit)","3","42","0","1729716476016"
"915","f","SpeechGestureMatch","../RequiredFiles/videos/JaKopfNein_m.mp4","Ist der Ball in der blauen Box?","Green","Blue","F","negation","mismatch","gesture","yes","HeadShake","male","speech-gesture","1920","1080","opera","60.28","Windows 10","19","male","right","Wed Oct 23 2024 22:29:20 GMT+0200 (Mitteleuropäische Sommerzeit)","3","43","0","1729716476016"
"777","j","SpeechGestureMatch","../RequiredFiles/videos/NeinKopfNein_m_no_sound.mp4","Ist der Ball in der blauen Box?","Blue","Green","J","negation","na","gesture","na","HeadShake","male","speech-gesture","1920","1080","opera","60.28","Windows 10","19","male","right","Wed Oct 23 2024 22:29:26 GMT+0200 (Mitteleuropäische Sommerzeit)","3","44","0","1729716476016"
"782","j","SpeechGestureMatch","../RequiredFiles/videos/NeinKopfJa_m.mp4","Ist der Ball in der grünen Box?","Blue","Green","J","affirmation","mismatch","gesture","no","HeadNod","male","speech-gesture","1920","1080","opera","60.28","Windows 10","19","male","right","Wed Oct 23 2024 22:29:32 GMT+0200 (Mitteleuropäische Sommerzeit)","3","45","0","1729716476016"
"1147","f","SpeechGestureMatch","../RequiredFiles/videos/JaKopfNein_f.mp4","Ist der Ball in der grünen Box?","Blue","Green","F","negation","mismatch","gesture","yes","HeadShake","female","speech-gesture","1920","1080","opera","60.28","Windows 10","19","male","right","Wed Oct 23 2024 22:29:39 GMT+0200 (Mitteleuropäische Sommerzeit)","3","46","0","1729716476016"
"732","f","SpeechGestureMatch","../RequiredFiles/videos/NeinKopfJa_m_no_sound.mp4","Ist der Ball in der blauen Box?","Blue","Green","F","affirmation","na","gesture","na","HeadNod","male","speech-gesture","1920","1080","opera","60.28","Windows 10","19","male","right","Wed Oct 23 2024 22:29:45 GMT+0200 (Mitteleuropäische Sommerzeit)","3","47","0","1729716476016"
"841","j","SpeechGestureMatch","../RequiredFiles/videos/JaKopfJa_m.mp4","Ist der Ball in der grünen Box?","Blue","Green","J","affirmation","match","gesture","yes","HeadNod","male","speech-gesture","1920","1080","opera","60.28","Windows 10","19","male","right","Wed Oct 23 2024 22:29:52 GMT+0200 (Mitteleuropäische Sommerzeit)","3","48","0","1729716476016"
"961","j","SpeechGestureMatch","../RequiredFiles/videos/NeinKopfNein_f.mp4","Ist der Ball in der grünen Box?","Green","Blue","J","negation","match","gesture","no","HeadShake","female","speech-gesture","1920","1080","opera","60.28","Windows 10","19","male","right","Wed Oct 23 2024 22:29:58 GMT+0200 (Mitteleuropäische Sommerzeit)","3","49","0","1729716476016"
"725","f","SpeechGestureMatch","../RequiredFiles/videos/JaKopfJa_f.mp4","Ist der Ball in der blauen Box?","Blue","Green","F","affirmation","match","gesture","yes","HeadNod","female","speech-gesture","1920","1080","opera","60.28","Windows 10","19","male","right","Wed Oct 23 2024 22:30:04 GMT+0200 (Mitteleuropäische Sommerzeit)","3","50","0","1729716476016"
"1105","f","SpeechGestureMatch","../RequiredFiles/videos/JaKopfNein_m.mp4","Ist der Ball in der grünen Box?","Blue","Green","F","negation","mismatch","gesture","yes","HeadShake","male","speech-gesture","1920","1080","opera","60.28","Windows 10","19","male","right","Wed Oct 23 2024 22:30:11 GMT+0200 (Mitteleuropäische Sommerzeit)","3","51","0","1729716476016"
"2777","f","SpeechGestureMatch","../RequiredFiles/videos/NeinKopfJa_m.mp4","Ist der Ball in der blauen Box?","Blue","Green","F","affirmation","mismatch","gesture","no","HeadNod","male","speech-gesture","1920","1080","opera","60.28","Windows 10","19","male","right","Wed Oct 23 2024 22:30:19 GMT+0200 (Mitteleuropäische Sommerzeit)","3","52","0","1729716476016"
"1058","j","SpeechGestureMatch","../RequiredFiles/videos/NeinKopfNein_m.mp4","Ist der Ball in der blauen Box?","Blue","Green","J","negation","match","gesture","no","HeadShake","male","speech-gesture","1920","1080","opera","60.28","Windows 10","19","male","right","Wed Oct 23 2024 22:30:26 GMT+0200 (Mitteleuropäische Sommerzeit)","3","53","0","1729716476016"
"737","j","SpeechGestureMatch","../RequiredFiles/videos/JaKopfJa_f.mp4","Ist der Ball in der blauen Box?","Green","Blue","J","affirmation","match","gesture","yes","HeadNod","female","speech-gesture","1920","1080","opera","60.28","Windows 10","19","male","right","Wed Oct 23 2024 22:30:32 GMT+0200 (Mitteleuropäische Sommerzeit)","3","54","0","1729716476016"
"811","j","SpeechGestureMatch","../RequiredFiles/videos/JaKopfJa_m_no_sound.mp4","Ist der Ball in der grünen Box?","Blue","Green","J","affirmation","na","gesture","na","HeadNod","male","speech-gesture","1920","1080","opera","60.28","Windows 10","19","male","right","Wed Oct 23 2024 22:30:38 GMT+0200 (Mitteleuropäische Sommerzeit)","3","55","0","1729716476016"
"691","j","SpeechGestureMatch","../RequiredFiles/videos/NeinKopfJa_m.mp4","Ist der Ball in der blauen Box?","Green","Blue","J","affirmation","mismatch","gesture","no","HeadNod","male","speech-gesture","1920","1080","opera","60.28","Windows 10","19","male","right","Wed Oct 23 2024 22:30:45 GMT+0200 (Mitteleuropäische Sommerzeit)","3","56","0","1729716476016"
"1551","f","SpeechGestureMatch","../RequiredFiles/videos/NeinKopfNein_f_no_sound.mp4","Ist der Ball in der blauen Box?","Green","Blue","F","negation","na","gesture","na","HeadShake","female","speech-gesture","1920","1080","opera","60.28","Windows 10","19","male","right","Wed Oct 23 2024 22:30:52 GMT+0200 (Mitteleuropäische Sommerzeit)","3","57","0","1729716476016"
"684","j","SpeechGestureMatch","../RequiredFiles/videos/JaKopfJa_f.mp4","Ist der Ball in der grünen Box?","Blue","Green","J","affirmation","match","gesture","yes","HeadNod","female","speech-gesture","1920","1080","opera","60.28","Windows 10","19","male","right","Wed Oct 23 2024 22:30:58 GMT+0200 (Mitteleuropäische Sommerzeit)","3","58","0","1729716476016"
"599","f","SpeechGestureMatch","../RequiredFiles/videos/JaKopfJa_f.mp4","Ist der Ball in der grünen Box?","Green","Blue","F","affirmation","match","gesture","yes","HeadNod","female","speech-gesture","1920","1080","opera","60.28","Windows 10","19","male","right","Wed Oct 23 2024 22:31:04 GMT+0200 (Mitteleuropäische Sommerzeit)","3","59","0","1729716476016"
"669","j","SpeechGestureMatch","../RequiredFiles/videos/JaKopfJa_m.mp4","Ist der Ball in der blauen Box?","Green","Blue","J","affirmation","match","gesture","yes","HeadNod","male","speech-gesture","1920","1080","opera","60.28","Windows 10","19","male","right","Wed Oct 23 2024 22:31:10 GMT+0200 (Mitteleuropäische Sommerzeit)","3","60","0","1729716476016"
"652","f","SpeechGestureMatch","../RequiredFiles/videos/JaKopfJa_f.mp4","Ist der Ball in der blauen Box?","Blue","Green","F","affirmation","match","gesture","yes","HeadNod","female","speech-gesture","1920","1080","opera","60.28","Windows 10","19","male","right","Wed Oct 23 2024 22:31:17 GMT+0200 (Mitteleuropäische Sommerzeit)","3","61","0","1729716476016"
"624","j","SpeechGestureMatch","../RequiredFiles/videos/JaKopfJa_m.mp4","Ist der Ball in der grünen Box?","Blue","Green","J","affirmation","match","gesture","yes","HeadNod","male","speech-gesture","1920","1080","opera","60.28","Windows 10","19","male","right","Wed Oct 23 2024 22:31:23 GMT+0200 (Mitteleuropäische Sommerzeit)","3","62","0","1729716476016"
"698","j","SpeechGestureMatch","../RequiredFiles/videos/NeinKopfJa_f_no_sound.mp4","Ist der Ball in der grünen Box?","Blue","Green","J","affirmation","na","gesture","na","HeadNod","female","speech-gesture","1920","1080","opera","60.28","Windows 10","19","male","right","Wed Oct 23 2024 22:31:29 GMT+0200 (Mitteleuropäische Sommerzeit)","3","63","0","1729716476016"
"986","j","SpeechGestureMatch","../RequiredFiles/videos/NeinKopfNein_f.mp4","Ist der Ball in der blauen Box?","Blue","Green","J","negation","match","gesture","no","HeadShake","female","speech-gesture","1920","1080","opera","60.28","Windows 10","19","male","right","Wed Oct 23 2024 22:31:35 GMT+0200 (Mitteleuropäische Sommerzeit)","3","64","0","1729716476016"
"730","f","SpeechGestureMatch","../RequiredFiles/videos/JaKopfJa_m.mp4","Ist der Ball in der blauen Box?","Blue","Green","F","affirmation","match","gesture","yes","HeadNod","male","speech-gesture","1920","1080","opera","60.28","Windows 10","19","male","right","Wed Oct 23 2024 22:31:42 GMT+0200 (Mitteleuropäische Sommerzeit)","3","65","0","1729716476016"
"1347","j","SpeechGestureMatch","../RequiredFiles/videos/JaKopfNein_f.mp4","Ist der Ball in der grünen Box?","Green","Blue","J","negation","mismatch","gesture","yes","HeadShake","female","speech-gesture","1920","1080","opera","60.28","Windows 10","19","male","right","Wed Oct 23 2024 22:31:49 GMT+0200 (Mitteleuropäische Sommerzeit)","3","66","0","1729716476016"
"1268","j","SpeechGestureMatch","../RequiredFiles/videos/JaKopfNein_m.mp4","Ist der Ball in der grünen Box?","Green","Blue","J","negation","mismatch","gesture","yes","HeadShake","male","speech-gesture","1920","1080","opera","60.28","Windows 10","19","male","right","Wed Oct 23 2024 22:31:55 GMT+0200 (Mitteleuropäische Sommerzeit)","3","67","0","1729716476016"
"1184","f","SpeechGestureMatch","../RequiredFiles/videos/JaKopfNein_f.mp4","Ist der Ball in der blauen Box?","Green","Blue","F","negation","mismatch","gesture","yes","HeadShake","female","speech-gesture","1920","1080","opera","60.28","Windows 10","19","male","right","Wed Oct 23 2024 22:32:02 GMT+0200 (Mitteleuropäische Sommerzeit)","3","68","0","1729716476016"
"774","f","SpeechGestureMatch","../RequiredFiles/videos/NeinKopfNein_m.mp4","Ist der Ball in der blauen Box?","Green","Blue","F","negation","match","gesture","no","HeadShake","male","speech-gesture","1920","1080","opera","60.28","Windows 10","19","male","right","Wed Oct 23 2024 22:32:08 GMT+0200 (Mitteleuropäische Sommerzeit)","3","69","0","1729716476016"
"819","j","SpeechGestureMatch","../RequiredFiles/videos/JaKopfJa_m.mp4","Ist der Ball in der blauen Box?","Green","Blue","J","affirmation","match","gesture","yes","HeadNod","male","speech-gesture","1920","1080","opera","60.28","Windows 10","19","male","right","Wed Oct 23 2024 22:32:15 GMT+0200 (Mitteleuropäische Sommerzeit)","3","70","0","1729716476016"
"1380","j","SpeechGestureMatch","../RequiredFiles/videos/NeinKopfNein_f.mp4","Ist der Ball in der blauen Box?","Blue","Green","J","negation","match","gesture","no","HeadShake","female","speech-gesture","1920","1080","opera","60.28","Windows 10","19","male","right","Wed Oct 23 2024 22:32:22 GMT+0200 (Mitteleuropäische Sommerzeit)","3","71","0","1729716476016"
"1161","f","SpeechGestureMatch","../RequiredFiles/videos/NeinKopfJa_f_no_sound.mp4","Ist der Ball in der blauen Box?","Blue","Green","F","affirmation","na","gesture","na","HeadNod","female","speech-gesture","1920","1080","opera","60.28","Windows 10","19","male","right","Wed Oct 23 2024 22:32:28 GMT+0200 (Mitteleuropäische Sommerzeit)","3","72","0","1729716476016"
"932","j","SpeechGestureMatch","../RequiredFiles/videos/NeinKopfJa_f.mp4","Ist der Ball in der grünen Box?","Blue","Green","J","affirmation","mismatch","gesture","no","HeadNod","female","speech-gesture","1920","1080","opera","60.28","Windows 10","19","male","right","Wed Oct 23 2024 22:32:35 GMT+0200 (Mitteleuropäische Sommerzeit)","3","73","0","1729716476016"
"1151","f","SpeechGestureMatch","../RequiredFiles/videos/JaKopfNein_m.mp4","Ist der Ball in der grünen Box?","Green","Blue","J","negation","mismatch","gesture","yes","HeadShake","male","speech-gesture","1920","1080","opera","60.28","Windows 10","19","male","right","Wed Oct 23 2024 22:32:42 GMT+0200 (Mitteleuropäische Sommerzeit)","3","74","1","1729716476016"
"759","f","SpeechGestureMatch","../RequiredFiles/videos/JaKopfNein_m_no_sound.mp4","Ist der Ball in der blauen Box?","Green","Blue","F","negation","na","gesture","na","HeadShake","male","speech-gesture","1920","1080","opera","60.28","Windows 10","19","male","right","Wed Oct 23 2024 22:32:48 GMT+0200 (Mitteleuropäische Sommerzeit)","3","75","0","1729716476016"
"841","j","SpeechGestureMatch","../RequiredFiles/videos/JaKopfNein_m.mp4","Ist der Ball in der blauen Box?","Blue","Green","J","negation","mismatch","gesture","yes","HeadShake","male","speech-gesture","1920","1080","opera","60.28","Windows 10","19","male","right","Wed Oct 23 2024 22:32:54 GMT+0200 (Mitteleuropäische Sommerzeit)","3","76","0","1729716476016"
"773","j","SpeechGestureMatch","../RequiredFiles/videos/JaKopfNein_m.mp4","Ist der Ball in der blauen Box?","Blue","Green","J","negation","mismatch","gesture","yes","HeadShake","male","speech-gesture","1920","1080","opera","60.28","Windows 10","19","male","right","Wed Oct 23 2024 22:33:01 GMT+0200 (Mitteleuropäische Sommerzeit)","3","77","0","1729716476016"
"724","f","SpeechGestureMatch","../RequiredFiles/videos/JaKopfJa_m.mp4","Ist der Ball in der grünen Box?","Green","Blue","F","affirmation","match","gesture","yes","HeadNod","male","speech-gesture","1920","1080","opera","60.28","Windows 10","19","male","right","Wed Oct 23 2024 22:33:07 GMT+0200 (Mitteleuropäische Sommerzeit)","3","78","0","1729716476016"
"779","f","SpeechGestureMatch","../RequiredFiles/videos/NeinKopfJa_m.mp4","Ist der Ball in der grünen Box?","Green","Blue","F","affirmation","mismatch","gesture","no","HeadNod","male","speech-gesture","1920","1080","opera","60.28","Windows 10","19","male","right","Wed Oct 23 2024 22:33:13 GMT+0200 (Mitteleuropäische Sommerzeit)","3","79","0","1729716476016"
"753","j","SpeechGestureMatch","../RequiredFiles/videos/NeinKopfJa_f.mp4","Ist der Ball in der grünen Box?","Blue","Green","J","affirmation","mismatch","gesture","no","HeadNod","female","speech-gesture","1920","1080","opera","60.28","Windows 10","19","male","right","Wed Oct 23 2024 22:33:19 GMT+0200 (Mitteleuropäische Sommerzeit)","3","80","0","1729716476016"
"647","j","SpeechGestureMatch","../RequiredFiles/videos/JaKopfJa_f.mp4","Ist der Ball in der grünen Box?","Blue","Green","J","affirmation","match","gesture","yes","HeadNod","female","speech-gesture","1920","1080","opera","60.28","Windows 10","19","male","right","Wed Oct 23 2024 22:33:26 GMT+0200 (Mitteleuropäische Sommerzeit)","3","81","0","1729716476016"
"908","f","SpeechGestureMatch","../RequiredFiles/videos/NeinKopfNein_f.mp4","Ist der Ball in der grünen Box?","Blue","Green","F","negation","match","gesture","no","HeadShake","female","speech-gesture","1920","1080","opera","60.28","Windows 10","19","male","right","Wed Oct 23 2024 22:33:32 GMT+0200 (Mitteleuropäische Sommerzeit)","3","82","0","1729716476016"
"752","f","SpeechGestureMatch","../RequiredFiles/videos/JaKopfNein_f.mp4","Ist der Ball in der blauen Box?","Blue","Green","J","negation","mismatch","gesture","yes","HeadShake","female","speech-gesture","1920","1080","opera","60.28","Windows 10","19","male","right","Wed Oct 23 2024 22:33:38 GMT+0200 (Mitteleuropäische Sommerzeit)","3","83","1","1729716476016"
"775","f","SpeechGestureMatch","../RequiredFiles/videos/NeinKopfJa_m.mp4","Ist der Ball in der grünen Box?","Green","Blue","F","affirmation","mismatch","gesture","no","HeadNod","male","speech-gesture","1920","1080","opera","60.28","Windows 10","19","male","right","Wed Oct 23 2024 22:33:45 GMT+0200 (Mitteleuropäische Sommerzeit)","3","84","0","1729716476016"
