"rt","response","stim","video","question","box_colour_left","box_colour_right","correct_key","polarity","matching","modality","verbal","gesture","speaker","order","width","height","browser","vsync_rate","os","age","gender","handedness","date","blockNum","trialNum","error","vpNum"
"1772","f","SpeechGestureMatch","../RequiredFiles/videos/NeinDaumenrunter_f.mp4","Ist der Ball in der grünen Box?","Blue","Green","F","negation","match","speech","no","ThumbDown","female","speech-gesture","1707","960","chrome","61.26","Chrome OS","20","female","right","Fri Oct 11 2024 19:26:41 GMT+0200 (Mitteleuropäische Sommerzeit)","1","1","0","1728688123515"
"1357","f","SpeechGestureMatch","../RequiredFiles/videos/NeinDaumenhoch_m.mp4","Ist der Ball in der grünen Box?","Green","Blue","J","negation","mismatch","speech","no","ThumbUp","male","speech-gesture","1707","960","chrome","61.26","Chrome OS","20","female","right","Fri Oct 11 2024 19:26:48 GMT+0200 (Mitteleuropäische Sommerzeit)","1","2","1","1728688123515"
"1431","j","SpeechGestureMatch","../RequiredFiles/videos/JaDaumenrunter_f.mp4","Ist der Ball in der grünen Box?","Green","Blue","F","affirmation","mismatch","speech","yes","ThumbDown","female","speech-gesture","1707","960","chrome","61.26","Chrome OS","20","female","right","Fri Oct 11 2024 19:26:55 GMT+0200 (Mitteleuropäische Sommerzeit)","1","3","1","1728688123515"
"2316","j","SpeechGestureMatch","../RequiredFiles/videos/NeinDaumenrunter_m.mp4","Ist der Ball in der blauen Box?","Green","Blue","F","negation","match","speech","no","ThumbDown","male","speech-gesture","1707","960","chrome","61.26","Chrome OS","20","female","right","Fri Oct 11 2024 19:27:03 GMT+0200 (Mitteleuropäische Sommerzeit)","1","4","1","1728688123515"
"1837","j","SpeechGestureMatch","../RequiredFiles/videos/JaDaumenhoch_f.mp4","Ist der Ball in der blauen Box?","Blue","Green","F","affirmation","match","speech","yes","ThumbUp","female","speech-gesture","1707","960","chrome","61.26","Chrome OS","20","female","right","Fri Oct 11 2024 19:27:10 GMT+0200 (Mitteleuropäische Sommerzeit)","1","5","1","1728688123515"
"2078","f","SpeechGestureMatch","../RequiredFiles/videos/NeinDaumenhoch_m.mp4","Ist der Ball in der blauen Box?","Green","Blue","F","negation","mismatch","speech","no","ThumbUp","male","speech-gesture","1707","960","chrome","61.26","Chrome OS","20","female","right","Fri Oct 11 2024 19:27:18 GMT+0200 (Mitteleuropäische Sommerzeit)","1","6","0","1728688123515"
"1493","f","SpeechGestureMatch","../RequiredFiles/videos/NeinDaumenhoch_f.mp4","Ist der Ball in der blauen Box?","Green","Blue","F","negation","mismatch","speech","no","ThumbUp","female","speech-gesture","1707","960","chrome","61.26","Chrome OS","20","female","right","Fri Oct 11 2024 19:27:25 GMT+0200 (Mitteleuropäische Sommerzeit)","1","7","0","1728688123515"
"2885","j","SpeechGestureMatch","../RequiredFiles/videos/NeinDaumenhoch_f_no_gesture.mp4","Ist der Ball in der grünen Box?","Green","Blue","J","negation","na","speech","no","na","female","speech-gesture","1707","960","chrome","61.26","Chrome OS","20","female","right","Fri Oct 11 2024 19:27:33 GMT+0200 (Mitteleuropäische Sommerzeit)","1","8","0","1728688123515"
"1062","j","SpeechGestureMatch","../RequiredFiles/videos/JaDaumenhoch_f.mp4","Ist der Ball in der blauen Box?","Green","Blue","J","affirmation","match","speech","yes","ThumbUp","female","speech-gesture","1707","960","chrome","61.26","Chrome OS","20","female","right","Fri Oct 11 2024 19:27:40 GMT+0200 (Mitteleuropäische Sommerzeit)","1","9","0","1728688123515"
"993","j","SpeechGestureMatch","../RequiredFiles/videos/JaDaumenhoch_m_no_gesture.mp4","Ist der Ball in der blauen Box?","Green","Blue","J","affirmation","na","speech","yes","na","male","speech-gesture","1707","960","chrome","61.26","Chrome OS","20","female","right","Fri Oct 11 2024 19:27:47 GMT+0200 (Mitteleuropäische Sommerzeit)","1","10","0","1728688123515"
"2313","f","SpeechGestureMatch","../RequiredFiles/videos/NeinDaumenhoch_f_no_gesture.mp4","Ist der Ball in der blauen Box?","Blue","Green","J","negation","na","speech","no","na","female","speech-gesture","1707","960","chrome","61.26","Chrome OS","20","female","right","Fri Oct 11 2024 19:27:54 GMT+0200 (Mitteleuropäische Sommerzeit)","1","11","1","1728688123515"
"3594","j","SpeechGestureMatch","../RequiredFiles/videos/NeinDaumenrunter_m_no_gesture.mp4","Ist der Ball in der blauen Box?","Blue","Green","J","negation","na","speech","no","na","male","speech-gesture","1707","960","chrome","61.26","Chrome OS","20","female","right","Fri Oct 11 2024 19:28:04 GMT+0200 (Mitteleuropäische Sommerzeit)","1","12","0","1728688123515"
"2905","f","SpeechGestureMatch","../RequiredFiles/videos/JaDaumenrunter_m.mp4","Ist der Ball in der grünen Box?","Green","Blue","F","affirmation","mismatch","speech","yes","ThumbDown","male","speech-gesture","1707","960","chrome","61.26","Chrome OS","20","female","right","Fri Oct 11 2024 19:28:12 GMT+0200 (Mitteleuropäische Sommerzeit)","1","13","0","1728688123515"
"1160","f","SpeechGestureMatch","../RequiredFiles/videos/NeinDaumenhoch_f_no_gesture.mp4","Ist der Ball in der blauen Box?","Green","Blue","F","negation","na","speech","no","na","female","speech-gesture","1707","960","chrome","61.26","Chrome OS","20","female","right","Fri Oct 11 2024 19:28:19 GMT+0200 (Mitteleuropäische Sommerzeit)","1","14","0","1728688123515"
"1421","j","SpeechGestureMatch","../RequiredFiles/videos/JaDaumenhoch_m.mp4","Ist der Ball in der blauen Box?","Green","Blue","J","affirmation","match","speech","yes","ThumbUp","male","speech-gesture","1707","960","chrome","61.26","Chrome OS","20","female","right","Fri Oct 11 2024 19:28:26 GMT+0200 (Mitteleuropäische Sommerzeit)","1","15","0","1728688123515"
"998","j","SpeechGestureMatch","../RequiredFiles/videos/JaDaumenhoch_m.mp4","Ist der Ball in der grünen Box?","Blue","Green","J","affirmation","match","speech","yes","ThumbUp","male","speech-gesture","1707","960","chrome","61.26","Chrome OS","20","female","right","Fri Oct 11 2024 19:28:32 GMT+0200 (Mitteleuropäische Sommerzeit)","1","16","0","1728688123515"
"1260","f","SpeechGestureMatch","../RequiredFiles/videos/NeinDaumenhoch_m_no_gesture.mp4","Ist der Ball in der grünen Box?","Green","Blue","J","negation","na","speech","no","na","male","speech-gesture","1707","960","chrome","61.26","Chrome OS","20","female","right","Fri Oct 11 2024 19:28:39 GMT+0200 (Mitteleuropäische Sommerzeit)","1","17","1","1728688123515"
"1541","j","SpeechGestureMatch","../RequiredFiles/videos/JaDaumenhoch_m.mp4","Ist der Ball in der grünen Box?","Blue","Green","J","affirmation","match","speech","yes","ThumbUp","male","speech-gesture","1707","960","chrome","61.26","Chrome OS","20","female","right","Fri Oct 11 2024 19:28:46 GMT+0200 (Mitteleuropäische Sommerzeit)","1","18","0","1728688123515"
"2668","f","SpeechGestureMatch","../RequiredFiles/videos/NeinDaumenrunter_f_no_gesture.mp4","Ist der Ball in der blauen Box?","Green","Blue","F","negation","na","speech","no","na","female","speech-gesture","1707","960","chrome","61.26","Chrome OS","20","female","right","Fri Oct 11 2024 19:28:54 GMT+0200 (Mitteleuropäische Sommerzeit)","1","19","0","1728688123515"
"2545","f","SpeechGestureMatch","../RequiredFiles/videos/NeinDaumenrunter_m.mp4","Ist der Ball in der grünen Box?","Blue","Green","F","negation","match","speech","no","ThumbDown","male","speech-gesture","1707","960","chrome","61.26","Chrome OS","20","female","right","Fri Oct 11 2024 19:29:02 GMT+0200 (Mitteleuropäische Sommerzeit)","1","20","0","1728688123515"
"1431","f","SpeechGestureMatch","../RequiredFiles/videos/NeinDaumenhoch_m.mp4","Ist der Ball in der blauen Box?","Blue","Green","J","negation","mismatch","speech","no","ThumbUp","male","speech-gesture","1707","960","chrome","61.26","Chrome OS","20","female","right","Fri Oct 11 2024 19:29:09 GMT+0200 (Mitteleuropäische Sommerzeit)","1","21","1","1728688123515"
"1658","j","SpeechGestureMatch","../RequiredFiles/videos/NeinDaumenrunter_f.mp4","Ist der Ball in der blauen Box?","Blue","Green","J","negation","match","speech","no","ThumbDown","female","speech-gesture","1707","960","chrome","61.26","Chrome OS","20","female","right","Fri Oct 11 2024 19:29:16 GMT+0200 (Mitteleuropäische Sommerzeit)","1","22","0","1728688123515"
"1997","f","SpeechGestureMatch","../RequiredFiles/videos/JaDaumenhoch_m_no_gesture.mp4","Ist der Ball in der grünen Box?","Green","Blue","F","affirmation","na","speech","yes","na","male","speech-gesture","1707","960","chrome","61.26","Chrome OS","20","female","right","Fri Oct 11 2024 19:29:24 GMT+0200 (Mitteleuropäische Sommerzeit)","1","23","0","1728688123515"
"4278","f","SpeechGestureMatch","../RequiredFiles/videos/NeinDaumenrunter_f.mp4","Ist der Ball in der blauen Box?","Green","Blue","F","negation","match","speech","no","ThumbDown","female","speech-gesture","1707","960","chrome","61.26","Chrome OS","20","female","right","Fri Oct 11 2024 19:29:34 GMT+0200 (Mitteleuropäische Sommerzeit)","1","24","0","1728688123515"
"1415","f","SpeechGestureMatch","../RequiredFiles/videos/JaDaumenhoch_m.mp4","Ist der Ball in der blauen Box?","Blue","Green","F","affirmation","match","speech","yes","ThumbUp","male","speech-gesture","1707","960","chrome","61.26","Chrome OS","20","female","right","Fri Oct 11 2024 19:29:41 GMT+0200 (Mitteleuropäische Sommerzeit)","1","25","0","1728688123515"
"1304","j","SpeechGestureMatch","../RequiredFiles/videos/JaDaumenhoch_f.mp4","Ist der Ball in der grünen Box?","Blue","Green","J","affirmation","match","speech","yes","ThumbUp","female","speech-gesture","1707","960","chrome","61.26","Chrome OS","20","female","right","Fri Oct 11 2024 19:29:47 GMT+0200 (Mitteleuropäische Sommerzeit)","1","26","0","1728688123515"
"1449","f","SpeechGestureMatch","../RequiredFiles/videos/JaDaumenhoch_f_no_gesture.mp4","Ist der Ball in der grünen Box?","Green","Blue","F","affirmation","na","speech","yes","na","female","speech-gesture","1707","960","chrome","61.26","Chrome OS","20","female","right","Fri Oct 11 2024 19:29:54 GMT+0200 (Mitteleuropäische Sommerzeit)","1","27","0","1728688123515"
"984","j","SpeechGestureMatch","../RequiredFiles/videos/NeinDaumenrunter_m.mp4","Ist der Ball in der grünen Box?","Green","Blue","J","negation","match","speech","no","ThumbDown","male","speech-gesture","1707","960","chrome","61.26","Chrome OS","20","female","right","Fri Oct 11 2024 19:30:01 GMT+0200 (Mitteleuropäische Sommerzeit)","1","28","0","1728688123515"
"1438","f","SpeechGestureMatch","../RequiredFiles/videos/JaDaumenhoch_f_no_gesture.mp4","Ist der Ball in der blauen Box?","Blue","Green","F","affirmation","na","speech","yes","na","female","speech-gesture","1707","960","chrome","61.26","Chrome OS","20","female","right","Fri Oct 11 2024 19:30:08 GMT+0200 (Mitteleuropäische Sommerzeit)","1","29","0","1728688123515"
"1327","f","SpeechGestureMatch","../RequiredFiles/videos/JaDaumenrunter_f_no_gesture.mp4","Ist der Ball in der grünen Box?","Green","Blue","F","affirmation","na","speech","yes","na","female","speech-gesture","1707","960","chrome","61.26","Chrome OS","20","female","right","Fri Oct 11 2024 19:30:15 GMT+0200 (Mitteleuropäische Sommerzeit)","1","30","0","1728688123515"
"1273","f","SpeechGestureMatch","../RequiredFiles/videos/NeinDaumenrunter_f.mp4","Ist der Ball in der blauen Box?","Green","Blue","F","negation","match","speech","no","ThumbDown","female","speech-gesture","1707","960","chrome","61.26","Chrome OS","20","female","right","Fri Oct 11 2024 19:30:22 GMT+0200 (Mitteleuropäische Sommerzeit)","1","31","0","1728688123515"
"1638","j","SpeechGestureMatch","../RequiredFiles/videos/JaDaumenrunter_m.mp4","Ist der Ball in der grünen Box?","Blue","Green","J","affirmation","mismatch","speech","yes","ThumbDown","male","speech-gesture","1707","960","chrome","61.26","Chrome OS","20","female","right","Fri Oct 11 2024 19:30:29 GMT+0200 (Mitteleuropäische Sommerzeit)","1","32","0","1728688123515"
"968","j","SpeechGestureMatch","../RequiredFiles/videos/NeinDaumenhoch_f.mp4","Ist der Ball in der grünen Box?","Green","Blue","J","negation","mismatch","speech","no","ThumbUp","female","speech-gesture","1707","960","chrome","61.26","Chrome OS","20","female","right","Fri Oct 11 2024 19:30:35 GMT+0200 (Mitteleuropäische Sommerzeit)","1","33","0","1728688123515"
"1822","j","SpeechGestureMatch","../RequiredFiles/videos/NeinDaumenrunter_f.mp4","Ist der Ball in der grünen Box?","Green","Blue","J","negation","match","speech","no","ThumbDown","female","speech-gesture","1707","960","chrome","61.26","Chrome OS","20","female","right","Fri Oct 11 2024 19:30:43 GMT+0200 (Mitteleuropäische Sommerzeit)","1","34","0","1728688123515"
"2697","j","SpeechGestureMatch","../RequiredFiles/videos/NeinDaumenhoch_f.mp4","Ist der Ball in der blauen Box?","Blue","Green","J","negation","mismatch","speech","no","ThumbUp","female","speech-gesture","1707","960","chrome","61.26","Chrome OS","20","female","right","Fri Oct 11 2024 19:30:51 GMT+0200 (Mitteleuropäische Sommerzeit)","1","35","0","1728688123515"
"1924","f","SpeechGestureMatch","../RequiredFiles/videos/JaDaumenhoch_m_no_gesture.mp4","Ist der Ball in der blauen Box?","Blue","Green","F","affirmation","na","speech","yes","na","male","speech-gesture","1707","960","chrome","61.26","Chrome OS","20","female","right","Fri Oct 11 2024 19:30:58 GMT+0200 (Mitteleuropäische Sommerzeit)","1","36","0","1728688123515"
"1782","j","SpeechGestureMatch","../RequiredFiles/videos/JaDaumenhoch_f_no_gesture.mp4","Ist der Ball in der blauen Box?","Green","Blue","J","affirmation","na","speech","yes","na","female","speech-gesture","1707","960","chrome","61.26","Chrome OS","20","female","right","Fri Oct 11 2024 19:31:05 GMT+0200 (Mitteleuropäische Sommerzeit)","1","37","0","1728688123515"
"2252","f","SpeechGestureMatch","../RequiredFiles/videos/JaDaumenhoch_m.mp4","Ist der Ball in der blauen Box?","Blue","Green","F","affirmation","match","speech","yes","ThumbUp","male","speech-gesture","1707","960","chrome","61.26","Chrome OS","20","female","right","Fri Oct 11 2024 19:31:13 GMT+0200 (Mitteleuropäische Sommerzeit)","1","38","0","1728688123515"
"1570","j","SpeechGestureMatch","../RequiredFiles/videos/NeinDaumenrunter_m.mp4","Ist der Ball in der blauen Box?","Blue","Green","J","negation","match","speech","no","ThumbDown","male","speech-gesture","1707","960","chrome","61.26","Chrome OS","20","female","right","Fri Oct 11 2024 19:31:20 GMT+0200 (Mitteleuropäische Sommerzeit)","1","39","0","1728688123515"
"1767","f","SpeechGestureMatch","../RequiredFiles/videos/NeinDaumenrunter_m.mp4","Ist der Ball in der blauen Box?","Green","Blue","F","negation","match","speech","no","ThumbDown","male","speech-gesture","1707","960","chrome","61.26","Chrome OS","20","female","right","Fri Oct 11 2024 19:31:28 GMT+0200 (Mitteleuropäische Sommerzeit)","1","40","0","1728688123515"
"1902","j","SpeechGestureMatch","../RequiredFiles/videos/JaDaumenrunter_m_no_gesture.mp4","Ist der Ball in der grünen Box?","Green","Blue","F","affirmation","na","speech","yes","na","male","speech-gesture","1707","960","chrome","61.26","Chrome OS","20","female","right","Fri Oct 11 2024 19:31:35 GMT+0200 (Mitteleuropäische Sommerzeit)","1","41","1","1728688123515"
"2433","j","SpeechGestureMatch","../RequiredFiles/videos/JaDaumenrunter_f.mp4","Ist der Ball in der grünen Box?","Blue","Green","J","affirmation","mismatch","speech","yes","ThumbDown","female","speech-gesture","1707","960","chrome","61.26","Chrome OS","20","female","right","Fri Oct 11 2024 19:31:43 GMT+0200 (Mitteleuropäische Sommerzeit)","1","42","0","1728688123515"
"1717","f","SpeechGestureMatch","../RequiredFiles/videos/NeinDaumenhoch_m.mp4","Ist der Ball in der grünen Box?","Blue","Green","F","negation","mismatch","speech","no","ThumbUp","male","speech-gesture","1707","960","chrome","61.26","Chrome OS","20","female","right","Fri Oct 11 2024 19:31:50 GMT+0200 (Mitteleuropäische Sommerzeit)","1","43","0","1728688123515"
"3004","f","SpeechGestureMatch","../RequiredFiles/videos/NeinDaumenhoch_m_no_gesture.mp4","Ist der Ball in der blauen Box?","Green","Blue","F","negation","na","speech","no","na","male","speech-gesture","1707","960","chrome","61.26","Chrome OS","20","female","right","Fri Oct 11 2024 19:31:59 GMT+0200 (Mitteleuropäische Sommerzeit)","1","44","0","1728688123515"
"1248","j","SpeechGestureMatch","../RequiredFiles/videos/JaDaumenhoch_m_no_gesture.mp4","Ist der Ball in der grünen Box?","Blue","Green","J","affirmation","na","speech","yes","na","male","speech-gesture","1707","960","chrome","61.26","Chrome OS","20","female","right","Fri Oct 11 2024 19:32:05 GMT+0200 (Mitteleuropäische Sommerzeit)","1","45","0","1728688123515"
"1963","j","SpeechGestureMatch","../RequiredFiles/videos/JaDaumenrunter_m.mp4","Ist der Ball in der blauen Box?","Green","Blue","J","affirmation","mismatch","speech","yes","ThumbDown","male","speech-gesture","1707","960","chrome","61.26","Chrome OS","20","female","right","Fri Oct 11 2024 19:32:13 GMT+0200 (Mitteleuropäische Sommerzeit)","1","46","0","1728688123515"
"901","f","SpeechGestureMatch","../RequiredFiles/videos/NeinDaumenrunter_m_no_gesture.mp4","Ist der Ball in der blauen Box?","Green","Blue","F","negation","na","speech","no","na","male","speech-gesture","1707","960","chrome","61.26","Chrome OS","20","female","right","Fri Oct 11 2024 19:32:19 GMT+0200 (Mitteleuropäische Sommerzeit)","1","47","0","1728688123515"
"1611","j","SpeechGestureMatch","../RequiredFiles/videos/JaDaumenrunter_m.mp4","Ist der Ball in der blauen Box?","Blue","Green","F","affirmation","mismatch","speech","yes","ThumbDown","male","speech-gesture","1707","960","chrome","61.26","Chrome OS","20","female","right","Fri Oct 11 2024 19:32:27 GMT+0200 (Mitteleuropäische Sommerzeit)","1","48","1","1728688123515"
"2623","j","SpeechGestureMatch","../RequiredFiles/videos/NeinDaumenhoch_f.mp4","Ist der Ball in der grünen Box?","Blue","Green","F","negation","mismatch","speech","no","ThumbUp","female","speech-gesture","1707","960","chrome","61.26","Chrome OS","20","female","right","Fri Oct 11 2024 19:32:35 GMT+0200 (Mitteleuropäische Sommerzeit)","1","49","1","1728688123515"
"1742","f","SpeechGestureMatch","../RequiredFiles/videos/NeinDaumenhoch_f.mp4","Ist der Ball in der blauen Box?","Green","Blue","F","negation","mismatch","speech","no","ThumbUp","female","speech-gesture","1707","960","chrome","61.26","Chrome OS","20","female","right","Fri Oct 11 2024 19:32:42 GMT+0200 (Mitteleuropäische Sommerzeit)","1","50","0","1728688123515"
"1368","f","SpeechGestureMatch","../RequiredFiles/videos/NeinDaumenrunter_m.mp4","Ist der Ball in der grünen Box?","Blue","Green","F","negation","match","speech","no","ThumbDown","male","speech-gesture","1707","960","chrome","61.26","Chrome OS","20","female","right","Fri Oct 11 2024 19:32:49 GMT+0200 (Mitteleuropäische Sommerzeit)","1","51","0","1728688123515"
"1785","f","SpeechGestureMatch","../RequiredFiles/videos/JaDaumenhoch_m.mp4","Ist der Ball in der grünen Box?","Green","Blue","F","affirmation","match","speech","yes","ThumbUp","male","speech-gesture","1707","960","chrome","61.26","Chrome OS","20","female","right","Fri Oct 11 2024 19:32:56 GMT+0200 (Mitteleuropäische Sommerzeit)","1","52","0","1728688123515"
"1952","f","SpeechGestureMatch","../RequiredFiles/videos/JaDaumenrunter_m.mp4","Ist der Ball in der grünen Box?","Green","Blue","F","affirmation","mismatch","speech","yes","ThumbDown","male","speech-gesture","1707","960","chrome","61.26","Chrome OS","20","female","right","Fri Oct 11 2024 19:33:04 GMT+0200 (Mitteleuropäische Sommerzeit)","1","53","0","1728688123515"
"2124","j","SpeechGestureMatch","../RequiredFiles/videos/NeinDaumenhoch_f.mp4","Ist der Ball in der blauen Box?","Blue","Green","J","negation","mismatch","speech","no","ThumbUp","female","speech-gesture","1707","960","chrome","61.26","Chrome OS","20","female","right","Fri Oct 11 2024 19:33:11 GMT+0200 (Mitteleuropäische Sommerzeit)","1","54","0","1728688123515"
"1129","f","SpeechGestureMatch","../RequiredFiles/videos/JaDaumenhoch_f.mp4","Ist der Ball in der blauen Box?","Blue","Green","F","affirmation","match","speech","yes","ThumbUp","female","speech-gesture","1707","960","chrome","61.26","Chrome OS","20","female","right","Fri Oct 11 2024 19:33:18 GMT+0200 (Mitteleuropäische Sommerzeit)","1","55","0","1728688123515"
"1363","j","SpeechGestureMatch","../RequiredFiles/videos/JaDaumenrunter_f.mp4","Ist der Ball in der blauen Box?","Green","Blue","J","affirmation","mismatch","speech","yes","ThumbDown","female","speech-gesture","1707","960","chrome","61.26","Chrome OS","20","female","right","Fri Oct 11 2024 19:33:25 GMT+0200 (Mitteleuropäische Sommerzeit)","1","56","0","1728688123515"
"1189","j","SpeechGestureMatch","../RequiredFiles/videos/JaDaumenrunter_m.mp4","Ist der Ball in der grünen Box?","Blue","Green","J","affirmation","mismatch","speech","yes","ThumbDown","male","speech-gesture","1707","960","chrome","61.26","Chrome OS","20","female","right","Fri Oct 11 2024 19:33:32 GMT+0200 (Mitteleuropäische Sommerzeit)","1","57","0","1728688123515"
"2028","f","SpeechGestureMatch","../RequiredFiles/videos/JaDaumenrunter_f_no_gesture.mp4","Ist der Ball in der blauen Box?","Blue","Green","F","affirmation","na","speech","yes","na","female","speech-gesture","1707","960","chrome","61.26","Chrome OS","20","female","right","Fri Oct 11 2024 19:33:39 GMT+0200 (Mitteleuropäische Sommerzeit)","1","58","0","1728688123515"
"1186","j","SpeechGestureMatch","../RequiredFiles/videos/NeinDaumenhoch_m.mp4","Ist der Ball in der grünen Box?","Green","Blue","J","negation","mismatch","speech","no","ThumbUp","male","speech-gesture","1707","960","chrome","61.26","Chrome OS","20","female","right","Fri Oct 11 2024 19:33:46 GMT+0200 (Mitteleuropäische Sommerzeit)","1","59","0","1728688123515"
"1188","f","SpeechGestureMatch","../RequiredFiles/videos/NeinDaumenhoch_m.mp4","Ist der Ball in der blauen Box?","Green","Blue","F","negation","mismatch","speech","no","ThumbUp","male","speech-gesture","1707","960","chrome","61.26","Chrome OS","20","female","right","Fri Oct 11 2024 19:33:52 GMT+0200 (Mitteleuropäische Sommerzeit)","1","60","0","1728688123515"
"1466","f","SpeechGestureMatch","../RequiredFiles/videos/JaDaumenrunter_f.mp4","Ist der Ball in der grünen Box?","Green","Blue","F","affirmation","mismatch","speech","yes","ThumbDown","female","speech-gesture","1707","960","chrome","61.26","Chrome OS","20","female","right","Fri Oct 11 2024 19:33:59 GMT+0200 (Mitteleuropäische Sommerzeit)","1","61","0","1728688123515"
"1226","f","SpeechGestureMatch","../RequiredFiles/videos/JaDaumenhoch_f.mp4","Ist der Ball in der grünen Box?","Green","Blue","F","affirmation","match","speech","yes","ThumbUp","female","speech-gesture","1707","960","chrome","61.26","Chrome OS","20","female","right","Fri Oct 11 2024 19:34:06 GMT+0200 (Mitteleuropäische Sommerzeit)","1","62","0","1728688123515"
"1159","f","SpeechGestureMatch","../RequiredFiles/videos/JaDaumenrunter_f.mp4","Ist der Ball in der blauen Box?","Blue","Green","F","affirmation","mismatch","speech","yes","ThumbDown","female","speech-gesture","1707","960","chrome","61.26","Chrome OS","20","female","right","Fri Oct 11 2024 19:34:13 GMT+0200 (Mitteleuropäische Sommerzeit)","1","63","0","1728688123515"
"2552","f","SpeechGestureMatch","../RequiredFiles/videos/JaDaumenrunter_f_no_gesture.mp4","Ist der Ball in der grünen Box?","Blue","Green","J","affirmation","na","speech","yes","na","female","speech-gesture","1707","960","chrome","61.26","Chrome OS","20","female","right","Fri Oct 11 2024 19:34:21 GMT+0200 (Mitteleuropäische Sommerzeit)","1","64","1","1728688123515"
"1521","j","SpeechGestureMatch","../RequiredFiles/videos/JaDaumenrunter_m.mp4","Ist der Ball in der blauen Box?","Green","Blue","J","affirmation","mismatch","speech","yes","ThumbDown","male","speech-gesture","1707","960","chrome","61.26","Chrome OS","20","female","right","Fri Oct 11 2024 19:34:28 GMT+0200 (Mitteleuropäische Sommerzeit)","1","65","0","1728688123515"
"1211","j","SpeechGestureMatch","../RequiredFiles/videos/JaDaumenrunter_m_no_gesture.mp4","Ist der Ball in der grünen Box?","Blue","Green","J","affirmation","na","speech","yes","na","male","speech-gesture","1707","960","chrome","61.26","Chrome OS","20","female","right","Fri Oct 11 2024 19:34:35 GMT+0200 (Mitteleuropäische Sommerzeit)","1","66","0","1728688123515"
"1202","j","SpeechGestureMatch","../RequiredFiles/videos/NeinDaumenrunter_m.mp4","Ist der Ball in der blauen Box?","Blue","Green","J","negation","match","speech","no","ThumbDown","male","speech-gesture","1707","960","chrome","61.26","Chrome OS","20","female","right","Fri Oct 11 2024 19:34:42 GMT+0200 (Mitteleuropäische Sommerzeit)","1","67","0","1728688123515"
"2057","j","SpeechGestureMatch","../RequiredFiles/videos/JaDaumenrunter_f_no_gesture.mp4","Ist der Ball in der blauen Box?","Green","Blue","J","affirmation","na","speech","yes","na","female","speech-gesture","1707","960","chrome","61.26","Chrome OS","20","female","right","Fri Oct 11 2024 19:34:49 GMT+0200 (Mitteleuropäische Sommerzeit)","1","68","0","1728688123515"
"1076","f","SpeechGestureMatch","../RequiredFiles/videos/JaDaumenhoch_f.mp4","Ist der Ball in der grünen Box?","Green","Blue","F","affirmation","match","speech","yes","ThumbUp","female","speech-gesture","1707","960","chrome","61.26","Chrome OS","20","female","right","Fri Oct 11 2024 19:34:56 GMT+0200 (Mitteleuropäische Sommerzeit)","1","69","0","1728688123515"
"1885","j","SpeechGestureMatch","../RequiredFiles/videos/NeinDaumenrunter_m_no_gesture.mp4","Ist der Ball in der grünen Box?","Blue","Green","F","negation","na","speech","no","na","male","speech-gesture","1707","960","chrome","61.26","Chrome OS","20","female","right","Fri Oct 11 2024 19:35:03 GMT+0200 (Mitteleuropäische Sommerzeit)","1","70","1","1728688123515"
"922","f","SpeechGestureMatch","../RequiredFiles/videos/JaDaumenhoch_m.mp4","Ist der Ball in der grünen Box?","Green","Blue","F","affirmation","match","speech","yes","ThumbUp","male","speech-gesture","1707","960","chrome","61.26","Chrome OS","20","female","right","Fri Oct 11 2024 19:35:10 GMT+0200 (Mitteleuropäische Sommerzeit)","1","71","0","1728688123515"
"2296","j","SpeechGestureMatch","../RequiredFiles/videos/NeinDaumenhoch_m.mp4","Ist der Ball in der blauen Box?","Blue","Green","J","negation","mismatch","speech","no","ThumbUp","male","speech-gesture","1707","960","chrome","61.26","Chrome OS","20","female","right","Fri Oct 11 2024 19:35:17 GMT+0200 (Mitteleuropäische Sommerzeit)","1","72","0","1728688123515"
"1329","j","SpeechGestureMatch","../RequiredFiles/videos/NeinDaumenrunter_f.mp4","Ist der Ball in der blauen Box?","Blue","Green","J","negation","match","speech","no","ThumbDown","female","speech-gesture","1707","960","chrome","61.26","Chrome OS","20","female","right","Fri Oct 11 2024 19:35:24 GMT+0200 (Mitteleuropäische Sommerzeit)","1","73","0","1728688123515"
"1415","f","SpeechGestureMatch","../RequiredFiles/videos/JaDaumenrunter_m_no_gesture.mp4","Ist der Ball in der blauen Box?","Blue","Green","F","affirmation","na","speech","yes","na","male","speech-gesture","1707","960","chrome","61.26","Chrome OS","20","female","right","Fri Oct 11 2024 19:35:31 GMT+0200 (Mitteleuropäische Sommerzeit)","1","74","0","1728688123515"
"1826","j","SpeechGestureMatch","../RequiredFiles/videos/NeinDaumenhoch_m_no_gesture.mp4","Ist der Ball in der blauen Box?","Blue","Green","J","negation","na","speech","no","na","male","speech-gesture","1707","960","chrome","61.26","Chrome OS","20","female","right","Fri Oct 11 2024 19:35:39 GMT+0200 (Mitteleuropäische Sommerzeit)","1","75","0","1728688123515"
"1768","f","SpeechGestureMatch","../RequiredFiles/videos/NeinDaumenrunter_f_no_gesture.mp4","Ist der Ball in der grünen Box?","Blue","Green","F","negation","na","speech","no","na","female","speech-gesture","1707","960","chrome","61.26","Chrome OS","20","female","right","Fri Oct 11 2024 19:35:46 GMT+0200 (Mitteleuropäische Sommerzeit)","1","76","0","1728688123515"
"1037","f","SpeechGestureMatch","../RequiredFiles/videos/NeinDaumenhoch_f_no_gesture.mp4","Ist der Ball in der grünen Box?","Blue","Green","F","negation","na","speech","no","na","female","speech-gesture","1707","960","chrome","61.26","Chrome OS","20","female","right","Fri Oct 11 2024 19:35:52 GMT+0200 (Mitteleuropäische Sommerzeit)","1","77","0","1728688123515"
"1276","j","SpeechGestureMatch","../RequiredFiles/videos/JaDaumenhoch_f.mp4","Ist der Ball in der grünen Box?","Blue","Green","J","affirmation","match","speech","yes","ThumbUp","female","speech-gesture","1707","960","chrome","61.26","Chrome OS","20","female","right","Fri Oct 11 2024 19:35:59 GMT+0200 (Mitteleuropäische Sommerzeit)","1","78","0","1728688123515"
"1379","j","SpeechGestureMatch","../RequiredFiles/videos/JaDaumenrunter_f.mp4","Ist der Ball in der grünen Box?","Blue","Green","J","affirmation","mismatch","speech","yes","ThumbDown","female","speech-gesture","1707","960","chrome","61.26","Chrome OS","20","female","right","Fri Oct 11 2024 19:36:06 GMT+0200 (Mitteleuropäische Sommerzeit)","1","79","0","1728688123515"
"993","f","SpeechGestureMatch","../RequiredFiles/videos/NeinDaumenhoch_m.mp4","Ist der Ball in der grünen Box?","Blue","Green","F","negation","mismatch","speech","no","ThumbUp","male","speech-gesture","1707","960","chrome","61.26","Chrome OS","20","female","right","Fri Oct 11 2024 19:36:13 GMT+0200 (Mitteleuropäische Sommerzeit)","1","80","0","1728688123515"
"1050","j","SpeechGestureMatch","../RequiredFiles/videos/JaDaumenhoch_f.mp4","Ist der Ball in der blauen Box?","Green","Blue","J","affirmation","match","speech","yes","ThumbUp","female","speech-gesture","1707","960","chrome","61.26","Chrome OS","20","female","right","Fri Oct 11 2024 19:36:19 GMT+0200 (Mitteleuropäische Sommerzeit)","1","81","0","1728688123515"
"1129","j","SpeechGestureMatch","../RequiredFiles/videos/JaDaumenhoch_m.mp4","Ist der Ball in der blauen Box?","Green","Blue","J","affirmation","match","speech","yes","ThumbUp","male","speech-gesture","1707","960","chrome","61.26","Chrome OS","20","female","right","Fri Oct 11 2024 19:36:26 GMT+0200 (Mitteleuropäische Sommerzeit)","1","82","0","1728688123515"
"1065","f","SpeechGestureMatch","../RequiredFiles/videos/JaDaumenrunter_m.mp4","Ist der Ball in der blauen Box?","Blue","Green","F","affirmation","mismatch","speech","yes","ThumbDown","male","speech-gesture","1707","960","chrome","61.26","Chrome OS","20","female","right","Fri Oct 11 2024 19:36:32 GMT+0200 (Mitteleuropäische Sommerzeit)","1","83","0","1728688123515"
"1198","j","SpeechGestureMatch","../RequiredFiles/videos/NeinDaumenrunter_m.mp4","Ist der Ball in der grünen Box?","Green","Blue","J","negation","match","speech","no","ThumbDown","male","speech-gesture","1707","960","chrome","61.26","Chrome OS","20","female","right","Fri Oct 11 2024 19:36:39 GMT+0200 (Mitteleuropäische Sommerzeit)","1","84","0","1728688123515"
"1351","j","SpeechGestureMatch","../RequiredFiles/videos/NeinDaumenhoch_f.mp4","Ist der Ball in der grünen Box?","Green","Blue","J","negation","mismatch","speech","no","ThumbUp","female","speech-gesture","1707","960","chrome","61.26","Chrome OS","20","female","right","Fri Oct 11 2024 19:36:46 GMT+0200 (Mitteleuropäische Sommerzeit)","1","85","0","1728688123515"
"1745","f","SpeechGestureMatch","../RequiredFiles/videos/NeinDaumenhoch_f.mp4","Ist der Ball in der grünen Box?","Blue","Green","F","negation","mismatch","speech","no","ThumbUp","female","speech-gesture","1707","960","chrome","61.26","Chrome OS","20","female","right","Fri Oct 11 2024 19:36:53 GMT+0200 (Mitteleuropäische Sommerzeit)","1","86","0","1728688123515"
"1640","j","SpeechGestureMatch","../RequiredFiles/videos/JaDaumenrunter_f.mp4","Ist der Ball in der blauen Box?","Green","Blue","J","affirmation","mismatch","speech","yes","ThumbDown","female","speech-gesture","1707","960","chrome","61.26","Chrome OS","20","female","right","Fri Oct 11 2024 19:37:00 GMT+0200 (Mitteleuropäische Sommerzeit)","1","87","0","1728688123515"
"922","j","SpeechGestureMatch","../RequiredFiles/videos/JaDaumenrunter_m_no_gesture.mp4","Ist der Ball in der blauen Box?","Green","Blue","J","affirmation","na","speech","yes","na","male","speech-gesture","1707","960","chrome","61.26","Chrome OS","20","female","right","Fri Oct 11 2024 19:37:07 GMT+0200 (Mitteleuropäische Sommerzeit)","1","88","0","1728688123515"
"1168","j","SpeechGestureMatch","../RequiredFiles/videos/NeinDaumenrunter_f_no_gesture.mp4","Ist der Ball in der grünen Box?","Green","Blue","J","negation","na","speech","no","na","female","speech-gesture","1707","960","chrome","61.26","Chrome OS","20","female","right","Fri Oct 11 2024 19:37:14 GMT+0200 (Mitteleuropäische Sommerzeit)","1","89","0","1728688123515"
"2021","f","SpeechGestureMatch","../RequiredFiles/videos/NeinDaumenrunter_f.mp4","Ist der Ball in der grünen Box?","Blue","Green","F","negation","match","speech","no","ThumbDown","female","speech-gesture","1707","960","chrome","61.26","Chrome OS","20","female","right","Fri Oct 11 2024 19:37:21 GMT+0200 (Mitteleuropäische Sommerzeit)","1","90","0","1728688123515"
"1480","f","SpeechGestureMatch","../RequiredFiles/videos/JaDaumenrunter_f.mp4","Ist der Ball in der blauen Box?","Blue","Green","F","affirmation","mismatch","speech","yes","ThumbDown","female","speech-gesture","1707","960","chrome","61.26","Chrome OS","20","female","right","Fri Oct 11 2024 19:37:28 GMT+0200 (Mitteleuropäische Sommerzeit)","1","91","0","1728688123515"
"2181","j","SpeechGestureMatch","../RequiredFiles/videos/NeinDaumenrunter_m_no_gesture.mp4","Ist der Ball in der grünen Box?","Green","Blue","J","negation","na","speech","no","na","male","speech-gesture","1707","960","chrome","61.26","Chrome OS","20","female","right","Fri Oct 11 2024 19:37:36 GMT+0200 (Mitteleuropäische Sommerzeit)","1","92","0","1728688123515"
"1392","j","SpeechGestureMatch","../RequiredFiles/videos/JaDaumenhoch_f_no_gesture.mp4","Ist der Ball in der grünen Box?","Blue","Green","J","affirmation","na","speech","yes","na","female","speech-gesture","1707","960","chrome","61.26","Chrome OS","20","female","right","Fri Oct 11 2024 19:37:43 GMT+0200 (Mitteleuropäische Sommerzeit)","1","93","0","1728688123515"
"1067","j","SpeechGestureMatch","../RequiredFiles/videos/NeinDaumenrunter_f.mp4","Ist der Ball in der grünen Box?","Green","Blue","J","negation","match","speech","no","ThumbDown","female","speech-gesture","1707","960","chrome","61.26","Chrome OS","20","female","right","Fri Oct 11 2024 19:37:49 GMT+0200 (Mitteleuropäische Sommerzeit)","1","94","0","1728688123515"
"1632","f","SpeechGestureMatch","../RequiredFiles/videos/NeinDaumenhoch_m_no_gesture.mp4","Ist der Ball in der grünen Box?","Blue","Green","F","negation","na","speech","no","na","male","speech-gesture","1707","960","chrome","61.26","Chrome OS","20","female","right","Fri Oct 11 2024 19:37:56 GMT+0200 (Mitteleuropäische Sommerzeit)","1","95","0","1728688123515"
"1728","j","SpeechGestureMatch","../RequiredFiles/videos/NeinDaumenrunter_f_no_gesture.mp4","Ist der Ball in der blauen Box?","Blue","Green","J","negation","na","speech","no","na","female","speech-gesture","1707","960","chrome","61.26","Chrome OS","20","female","right","Fri Oct 11 2024 19:38:04 GMT+0200 (Mitteleuropäische Sommerzeit)","1","96","0","1728688123515"
"1329","j","SpeechGestureMatch","../RequiredFiles/videos/JaDaumenhoch_f.mp4","Ist der Ball in der grünen Box?","Blue","Green","J","affirmation","match","speech","yes","ThumbUp","female","speech-gesture","1707","960","chrome","61.26","Chrome OS","20","female","right","Fri Oct 11 2024 20:25:35 GMT+0200 (Mitteleuropäische Sommerzeit)","2","1","0","1728688123515"
"1083","f","SpeechGestureMatch","../RequiredFiles/videos/NeinDaumenhoch_f.mp4","Ist der Ball in der blauen Box?","Green","Blue","F","negation","mismatch","speech","no","ThumbUp","female","speech-gesture","1707","960","chrome","61.26","Chrome OS","20","female","right","Fri Oct 11 2024 20:25:41 GMT+0200 (Mitteleuropäische Sommerzeit)","2","2","0","1728688123515"
"1112","j","SpeechGestureMatch","../RequiredFiles/videos/JaDaumenrunter_m.mp4","Ist der Ball in der blauen Box?","Green","Blue","J","affirmation","mismatch","speech","yes","ThumbDown","male","speech-gesture","1707","960","chrome","61.26","Chrome OS","20","female","right","Fri Oct 11 2024 20:25:48 GMT+0200 (Mitteleuropäische Sommerzeit)","2","3","0","1728688123515"
"1611","j","SpeechGestureMatch","../RequiredFiles/videos/NeinDaumenrunter_m.mp4","Ist der Ball in der grünen Box?","Green","Blue","J","negation","match","speech","no","ThumbDown","male","speech-gesture","1707","960","chrome","61.26","Chrome OS","20","female","right","Fri Oct 11 2024 20:25:55 GMT+0200 (Mitteleuropäische Sommerzeit)","2","4","0","1728688123515"
"1634","j","SpeechGestureMatch","../RequiredFiles/videos/NeinDaumenrunter_f.mp4","Ist der Ball in der grünen Box?","Green","Blue","J","negation","match","speech","no","ThumbDown","female","speech-gesture","1707","960","chrome","61.26","Chrome OS","20","female","right","Fri Oct 11 2024 20:26:02 GMT+0200 (Mitteleuropäische Sommerzeit)","2","5","0","1728688123515"
"1476","f","SpeechGestureMatch","../RequiredFiles/videos/NeinDaumenhoch_m.mp4","Ist der Ball in der blauen Box?","Green","Blue","F","negation","mismatch","speech","no","ThumbUp","male","speech-gesture","1707","960","chrome","61.26","Chrome OS","20","female","right","Fri Oct 11 2024 20:26:09 GMT+0200 (Mitteleuropäische Sommerzeit)","2","6","0","1728688123515"
"1825","j","SpeechGestureMatch","../RequiredFiles/videos/JaDaumenhoch_m.mp4","Ist der Ball in der blauen Box?","Green","Blue","J","affirmation","match","speech","yes","ThumbUp","male","speech-gesture","1707","960","chrome","61.26","Chrome OS","20","female","right","Fri Oct 11 2024 20:26:17 GMT+0200 (Mitteleuropäische Sommerzeit)","2","7","0","1728688123515"
"1220","j","SpeechGestureMatch","../RequiredFiles/videos/JaDaumenrunter_m.mp4","Ist der Ball in der grünen Box?","Green","Blue","F","affirmation","mismatch","speech","yes","ThumbDown","male","speech-gesture","1707","960","chrome","61.26","Chrome OS","20","female","right","Fri Oct 11 2024 20:26:23 GMT+0200 (Mitteleuropäische Sommerzeit)","2","8","1","1728688123515"
"1216","f","SpeechGestureMatch","../RequiredFiles/videos/NeinDaumenhoch_m.mp4","Ist der Ball in der grünen Box?","Blue","Green","F","negation","mismatch","speech","no","ThumbUp","male","speech-gesture","1707","960","chrome","61.26","Chrome OS","20","female","right","Fri Oct 11 2024 20:26:30 GMT+0200 (Mitteleuropäische Sommerzeit)","2","9","0","1728688123515"
"1501","j","SpeechGestureMatch","../RequiredFiles/videos/NeinDaumenrunter_f.mp4","Ist der Ball in der blauen Box?","Green","Blue","F","negation","match","speech","no","ThumbDown","female","speech-gesture","1707","960","chrome","61.26","Chrome OS","20","female","right","Fri Oct 11 2024 20:26:37 GMT+0200 (Mitteleuropäische Sommerzeit)","2","10","1","1728688123515"
"2191","j","SpeechGestureMatch","../RequiredFiles/videos/NeinDaumenrunter_m_no_gesture.mp4","Ist der Ball in der blauen Box?","Green","Blue","F","negation","na","speech","no","na","male","speech-gesture","1707","960","chrome","61.26","Chrome OS","20","female","right","Fri Oct 11 2024 20:26:45 GMT+0200 (Mitteleuropäische Sommerzeit)","2","11","1","1728688123515"
"1861","j","SpeechGestureMatch","../RequiredFiles/videos/NeinDaumenhoch_m.mp4","Ist der Ball in der grünen Box?","Green","Blue","J","negation","mismatch","speech","no","ThumbUp","male","speech-gesture","1707","960","chrome","61.26","Chrome OS","20","female","right","Fri Oct 11 2024 20:26:52 GMT+0200 (Mitteleuropäische Sommerzeit)","2","12","0","1728688123515"
"1533","j","SpeechGestureMatch","../RequiredFiles/videos/JaDaumenhoch_f.mp4","Ist der Ball in der blauen Box?","Green","Blue","J","affirmation","match","speech","yes","ThumbUp","female","speech-gesture","1707","960","chrome","61.26","Chrome OS","20","female","right","Fri Oct 11 2024 20:26:59 GMT+0200 (Mitteleuropäische Sommerzeit)","2","13","0","1728688123515"
"1211","j","SpeechGestureMatch","../RequiredFiles/videos/NeinDaumenhoch_m.mp4","Ist der Ball in der blauen Box?","Blue","Green","J","negation","mismatch","speech","no","ThumbUp","male","speech-gesture","1707","960","chrome","61.26","Chrome OS","20","female","right","Fri Oct 11 2024 20:27:06 GMT+0200 (Mitteleuropäische Sommerzeit)","2","14","0","1728688123515"
"1670","j","SpeechGestureMatch","../RequiredFiles/videos/JaDaumenrunter_f.mp4","Ist der Ball in der grünen Box?","Blue","Green","J","affirmation","mismatch","speech","yes","ThumbDown","female","speech-gesture","1707","960","chrome","61.26","Chrome OS","20","female","right","Fri Oct 11 2024 20:27:13 GMT+0200 (Mitteleuropäische Sommerzeit)","2","15","0","1728688123515"
"1334","j","SpeechGestureMatch","../RequiredFiles/videos/NeinDaumenhoch_f_no_gesture.mp4","Ist der Ball in der blauen Box?","Blue","Green","J","negation","na","speech","no","na","female","speech-gesture","1707","960","chrome","61.26","Chrome OS","20","female","right","Fri Oct 11 2024 20:27:20 GMT+0200 (Mitteleuropäische Sommerzeit)","2","16","0","1728688123515"
"2278","f","SpeechGestureMatch","../RequiredFiles/videos/JaDaumenrunter_m.mp4","Ist der Ball in der grünen Box?","Green","Blue","F","affirmation","mismatch","speech","yes","ThumbDown","male","speech-gesture","1707","960","chrome","61.26","Chrome OS","20","female","right","Fri Oct 11 2024 20:27:28 GMT+0200 (Mitteleuropäische Sommerzeit)","2","17","0","1728688123515"
"2456","j","SpeechGestureMatch","../RequiredFiles/videos/NeinDaumenrunter_f_no_gesture.mp4","Ist der Ball in der blauen Box?","Blue","Green","J","negation","na","speech","no","na","female","speech-gesture","1707","960","chrome","61.26","Chrome OS","20","female","right","Fri Oct 11 2024 20:27:36 GMT+0200 (Mitteleuropäische Sommerzeit)","2","18","0","1728688123515"
"1841","j","SpeechGestureMatch","../RequiredFiles/videos/NeinDaumenhoch_f.mp4","Ist der Ball in der grünen Box?","Green","Blue","J","negation","mismatch","speech","no","ThumbUp","female","speech-gesture","1707","960","chrome","61.26","Chrome OS","20","female","right","Fri Oct 11 2024 20:27:43 GMT+0200 (Mitteleuropäische Sommerzeit)","2","19","0","1728688123515"
"1121","f","SpeechGestureMatch","../RequiredFiles/videos/NeinDaumenrunter_m.mp4","Ist der Ball in der grünen Box?","Blue","Green","F","negation","match","speech","no","ThumbDown","male","speech-gesture","1707","960","chrome","61.26","Chrome OS","20","female","right","Fri Oct 11 2024 20:27:50 GMT+0200 (Mitteleuropäische Sommerzeit)","2","20","0","1728688123515"
"1448","f","SpeechGestureMatch","../RequiredFiles/videos/JaDaumenhoch_f.mp4","Ist der Ball in der grünen Box?","Green","Blue","F","affirmation","match","speech","yes","ThumbUp","female","speech-gesture","1707","960","chrome","61.26","Chrome OS","20","female","right","Fri Oct 11 2024 20:27:57 GMT+0200 (Mitteleuropäische Sommerzeit)","2","21","0","1728688123515"
"2997","f","SpeechGestureMatch","../RequiredFiles/videos/JaDaumenrunter_f.mp4","Ist der Ball in der blauen Box?","Blue","Green","F","affirmation","mismatch","speech","yes","ThumbDown","female","speech-gesture","1707","960","chrome","61.26","Chrome OS","20","female","right","Fri Oct 11 2024 20:28:05 GMT+0200 (Mitteleuropäische Sommerzeit)","2","22","0","1728688123515"
"1227","j","SpeechGestureMatch","../RequiredFiles/videos/NeinDaumenhoch_f.mp4","Ist der Ball in der grünen Box?","Green","Blue","J","negation","mismatch","speech","no","ThumbUp","female","speech-gesture","1707","960","chrome","61.26","Chrome OS","20","female","right","Fri Oct 11 2024 20:28:12 GMT+0200 (Mitteleuropäische Sommerzeit)","2","23","0","1728688123515"
"3151","j","SpeechGestureMatch","../RequiredFiles/videos/JaDaumenhoch_m.mp4","Ist der Ball in der grünen Box?","Blue","Green","J","affirmation","match","speech","yes","ThumbUp","male","speech-gesture","1707","960","chrome","61.26","Chrome OS","20","female","right","Fri Oct 11 2024 20:28:21 GMT+0200 (Mitteleuropäische Sommerzeit)","2","24","0","1728688123515"
"1330","f","SpeechGestureMatch","../RequiredFiles/videos/NeinDaumenrunter_f.mp4","Ist der Ball in der grünen Box?","Blue","Green","F","negation","match","speech","no","ThumbDown","female","speech-gesture","1707","960","chrome","61.26","Chrome OS","20","female","right","Fri Oct 11 2024 20:28:27 GMT+0200 (Mitteleuropäische Sommerzeit)","2","25","0","1728688123515"
"1569","f","SpeechGestureMatch","../RequiredFiles/videos/NeinDaumenhoch_m_no_gesture.mp4","Ist der Ball in der blauen Box?","Green","Blue","F","negation","na","speech","no","na","male","speech-gesture","1707","960","chrome","61.26","Chrome OS","20","female","right","Fri Oct 11 2024 20:28:35 GMT+0200 (Mitteleuropäische Sommerzeit)","2","26","0","1728688123515"
"1227","j","SpeechGestureMatch","../RequiredFiles/videos/JaDaumenhoch_f_no_gesture.mp4","Ist der Ball in der grünen Box?","Blue","Green","J","affirmation","na","speech","yes","na","female","speech-gesture","1707","960","chrome","61.26","Chrome OS","20","female","right","Fri Oct 11 2024 20:28:41 GMT+0200 (Mitteleuropäische Sommerzeit)","2","27","0","1728688123515"
"2887","f","SpeechGestureMatch","../RequiredFiles/videos/NeinDaumenrunter_f_no_gesture.mp4","Ist der Ball in der grünen Box?","Blue","Green","F","negation","na","speech","no","na","female","speech-gesture","1707","960","chrome","61.26","Chrome OS","20","female","right","Fri Oct 11 2024 20:28:50 GMT+0200 (Mitteleuropäische Sommerzeit)","2","28","0","1728688123515"
"2883","j","SpeechGestureMatch","../RequiredFiles/videos/JaDaumenhoch_m.mp4","Ist der Ball in der blauen Box?","Blue","Green","F","affirmation","match","speech","yes","ThumbUp","male","speech-gesture","1707","960","chrome","61.26","Chrome OS","20","female","right","Fri Oct 11 2024 20:28:58 GMT+0200 (Mitteleuropäische Sommerzeit)","2","29","1","1728688123515"
"1374","f","SpeechGestureMatch","../RequiredFiles/videos/JaDaumenhoch_m.mp4","Ist der Ball in der blauen Box?","Blue","Green","F","affirmation","match","speech","yes","ThumbUp","male","speech-gesture","1707","960","chrome","61.26","Chrome OS","20","female","right","Fri Oct 11 2024 20:29:05 GMT+0200 (Mitteleuropäische Sommerzeit)","2","30","0","1728688123515"
"1960","f","SpeechGestureMatch","../RequiredFiles/videos/JaDaumenrunter_f_no_gesture.mp4","Ist der Ball in der blauen Box?","Green","Blue","J","affirmation","na","speech","yes","na","female","speech-gesture","1707","960","chrome","61.26","Chrome OS","20","female","right","Fri Oct 11 2024 20:29:13 GMT+0200 (Mitteleuropäische Sommerzeit)","2","31","1","1728688123515"
"5687","j","SpeechGestureMatch","../RequiredFiles/videos/NeinDaumenrunter_m.mp4","Ist der Ball in der blauen Box?","Green","Blue","F","negation","match","speech","no","ThumbDown","male","speech-gesture","1707","960","chrome","61.26","Chrome OS","20","female","right","Fri Oct 11 2024 20:29:24 GMT+0200 (Mitteleuropäische Sommerzeit)","2","32","1","1728688123515"
"1474","j","SpeechGestureMatch","../RequiredFiles/videos/JaDaumenhoch_m.mp4","Ist der Ball in der grünen Box?","Blue","Green","J","affirmation","match","speech","yes","ThumbUp","male","speech-gesture","1707","960","chrome","61.26","Chrome OS","20","female","right","Fri Oct 11 2024 20:29:31 GMT+0200 (Mitteleuropäische Sommerzeit)","2","33","0","1728688123515"
"2497","j","SpeechGestureMatch","../RequiredFiles/videos/JaDaumenrunter_f_no_gesture.mp4","Ist der Ball in der grünen Box?","Blue","Green","J","affirmation","na","speech","yes","na","female","speech-gesture","1707","960","chrome","61.26","Chrome OS","20","female","right","Fri Oct 11 2024 20:29:39 GMT+0200 (Mitteleuropäische Sommerzeit)","2","34","0","1728688123515"
"970","f","SpeechGestureMatch","../RequiredFiles/videos/NeinDaumenrunter_m.mp4","Ist der Ball in der grünen Box?","Blue","Green","F","negation","match","speech","no","ThumbDown","male","speech-gesture","1707","960","chrome","61.26","Chrome OS","20","female","right","Fri Oct 11 2024 20:29:45 GMT+0200 (Mitteleuropäische Sommerzeit)","2","35","0","1728688123515"
"1835","f","SpeechGestureMatch","../RequiredFiles/videos/JaDaumenrunter_f.mp4","Ist der Ball in der blauen Box?","Blue","Green","F","affirmation","mismatch","speech","yes","ThumbDown","female","speech-gesture","1707","960","chrome","61.26","Chrome OS","20","female","right","Fri Oct 11 2024 20:29:53 GMT+0200 (Mitteleuropäische Sommerzeit)","2","36","0","1728688123515"
"1165","f","SpeechGestureMatch","../RequiredFiles/videos/JaDaumenhoch_m_no_gesture.mp4","Ist der Ball in der blauen Box?","Blue","Green","F","affirmation","na","speech","yes","na","male","speech-gesture","1707","960","chrome","61.26","Chrome OS","20","female","right","Fri Oct 11 2024 20:29:59 GMT+0200 (Mitteleuropäische Sommerzeit)","2","37","0","1728688123515"
"1140","f","SpeechGestureMatch","../RequiredFiles/videos/JaDaumenrunter_m.mp4","Ist der Ball in der blauen Box?","Blue","Green","F","affirmation","mismatch","speech","yes","ThumbDown","male","speech-gesture","1707","960","chrome","61.26","Chrome OS","20","female","right","Fri Oct 11 2024 20:30:06 GMT+0200 (Mitteleuropäische Sommerzeit)","2","38","0","1728688123515"
"1240","j","SpeechGestureMatch","../RequiredFiles/videos/NeinDaumenhoch_m_no_gesture.mp4","Ist der Ball in der blauen Box?","Blue","Green","J","negation","na","speech","no","na","male","speech-gesture","1707","960","chrome","61.26","Chrome OS","20","female","right","Fri Oct 11 2024 20:30:13 GMT+0200 (Mitteleuropäische Sommerzeit)","2","39","0","1728688123515"
"1887","f","SpeechGestureMatch","../RequiredFiles/videos/JaDaumenhoch_f.mp4","Ist der Ball in der blauen Box?","Blue","Green","F","affirmation","match","speech","yes","ThumbUp","female","speech-gesture","1707","960","chrome","61.26","Chrome OS","20","female","right","Fri Oct 11 2024 20:30:20 GMT+0200 (Mitteleuropäische Sommerzeit)","2","40","0","1728688123515"
"2295","j","SpeechGestureMatch","../RequiredFiles/videos/JaDaumenhoch_m_no_gesture.mp4","Ist der Ball in der blauen Box?","Green","Blue","J","affirmation","na","speech","yes","na","male","speech-gesture","1707","960","chrome","61.26","Chrome OS","20","female","right","Fri Oct 11 2024 20:30:28 GMT+0200 (Mitteleuropäische Sommerzeit)","2","41","0","1728688123515"
"2986","j","SpeechGestureMatch","../RequiredFiles/videos/JaDaumenrunter_m_no_gesture.mp4","Ist der Ball in der grünen Box?","Blue","Green","J","affirmation","na","speech","yes","na","male","speech-gesture","1707","960","chrome","61.26","Chrome OS","20","female","right","Fri Oct 11 2024 20:30:36 GMT+0200 (Mitteleuropäische Sommerzeit)","2","42","0","1728688123515"
"1279","f","SpeechGestureMatch","../RequiredFiles/videos/JaDaumenrunter_m_no_gesture.mp4","Ist der Ball in der grünen Box?","Green","Blue","F","affirmation","na","speech","yes","na","male","speech-gesture","1707","960","chrome","61.26","Chrome OS","20","female","right","Fri Oct 11 2024 20:30:43 GMT+0200 (Mitteleuropäische Sommerzeit)","2","43","0","1728688123515"
"1164","j","SpeechGestureMatch","../RequiredFiles/videos/NeinDaumenrunter_m_no_gesture.mp4","Ist der Ball in der grünen Box?","Green","Blue","J","negation","na","speech","no","na","male","speech-gesture","1707","960","chrome","61.26","Chrome OS","20","female","right","Fri Oct 11 2024 20:30:50 GMT+0200 (Mitteleuropäische Sommerzeit)","2","44","0","1728688123515"
"4812","j","SpeechGestureMatch","../RequiredFiles/videos/NeinDaumenrunter_m.mp4","Ist der Ball in der blauen Box?","Green","Blue","F","negation","match","speech","no","ThumbDown","male","speech-gesture","1707","960","chrome","61.26","Chrome OS","20","female","right","Fri Oct 11 2024 20:31:00 GMT+0200 (Mitteleuropäische Sommerzeit)","2","45","1","1728688123515"
"1736","f","SpeechGestureMatch","../RequiredFiles/videos/NeinDaumenhoch_f.mp4","Ist der Ball in der grünen Box?","Blue","Green","F","negation","mismatch","speech","no","ThumbUp","female","speech-gesture","1707","960","chrome","61.26","Chrome OS","20","female","right","Fri Oct 11 2024 20:31:08 GMT+0200 (Mitteleuropäische Sommerzeit)","2","46","0","1728688123515"
"2072","j","SpeechGestureMatch","../RequiredFiles/videos/NeinDaumenrunter_m.mp4","Ist der Ball in der blauen Box?","Blue","Green","J","negation","match","speech","no","ThumbDown","male","speech-gesture","1707","960","chrome","61.26","Chrome OS","20","female","right","Fri Oct 11 2024 20:31:15 GMT+0200 (Mitteleuropäische Sommerzeit)","2","47","0","1728688123515"
"2724","f","SpeechGestureMatch","../RequiredFiles/videos/NeinDaumenhoch_f_no_gesture.mp4","Ist der Ball in der grünen Box?","Green","Blue","J","negation","na","speech","no","na","female","speech-gesture","1707","960","chrome","61.26","Chrome OS","20","female","right","Fri Oct 11 2024 20:31:23 GMT+0200 (Mitteleuropäische Sommerzeit)","2","48","1","1728688123515"
"819","f","SpeechGestureMatch","../RequiredFiles/videos/JaDaumenrunter_f.mp4","Ist der Ball in der blauen Box?","Green","Blue","J","affirmation","mismatch","speech","yes","ThumbDown","female","speech-gesture","1707","960","chrome","61.26","Chrome OS","20","female","right","Fri Oct 11 2024 20:31:30 GMT+0200 (Mitteleuropäische Sommerzeit)","2","49","1","1728688123515"
"3040","f","SpeechGestureMatch","../RequiredFiles/videos/NeinDaumenhoch_f.mp4","Ist der Ball in der blauen Box?","Green","Blue","F","negation","mismatch","speech","no","ThumbUp","female","speech-gesture","1707","960","chrome","61.26","Chrome OS","20","female","right","Fri Oct 11 2024 20:31:38 GMT+0200 (Mitteleuropäische Sommerzeit)","2","50","0","1728688123515"
"5947","j","SpeechGestureMatch","../RequiredFiles/videos/NeinDaumenhoch_m.mp4","Ist der Ball in der blauen Box?","Blue","Green","J","negation","mismatch","speech","no","ThumbUp","male","speech-gesture","1707","960","chrome","61.26","Chrome OS","20","female","right","Fri Oct 11 2024 20:31:50 GMT+0200 (Mitteleuropäische Sommerzeit)","2","51","0","1728688123515"
"1657","f","SpeechGestureMatch","../RequiredFiles/videos/NeinDaumenhoch_m_no_gesture.mp4","Ist der Ball in der grünen Box?","Blue","Green","F","negation","na","speech","no","na","male","speech-gesture","1707","960","chrome","61.26","Chrome OS","20","female","right","Fri Oct 11 2024 20:31:57 GMT+0200 (Mitteleuropäische Sommerzeit)","2","52","0","1728688123515"
"1716","j","SpeechGestureMatch","../RequiredFiles/videos/NeinDaumenhoch_m.mp4","Ist der Ball in der grünen Box?","Green","Blue","J","negation","mismatch","speech","no","ThumbUp","male","speech-gesture","1707","960","chrome","61.26","Chrome OS","20","female","right","Fri Oct 11 2024 20:32:04 GMT+0200 (Mitteleuropäische Sommerzeit)","2","53","0","1728688123515"
"1563","j","SpeechGestureMatch","../RequiredFiles/videos/JaDaumenhoch_f_no_gesture.mp4","Ist der Ball in der blauen Box?","Green","Blue","J","affirmation","na","speech","yes","na","female","speech-gesture","1707","960","chrome","61.26","Chrome OS","20","female","right","Fri Oct 11 2024 20:32:11 GMT+0200 (Mitteleuropäische Sommerzeit)","2","54","0","1728688123515"
"2626","j","SpeechGestureMatch","../RequiredFiles/videos/NeinDaumenrunter_f.mp4","Ist der Ball in der grünen Box?","Blue","Green","F","negation","match","speech","no","ThumbDown","female","speech-gesture","1707","960","chrome","61.26","Chrome OS","20","female","right","Fri Oct 11 2024 20:32:19 GMT+0200 (Mitteleuropäische Sommerzeit)","2","55","1","1728688123515"
"677","f","SpeechGestureMatch","../RequiredFiles/videos/JaDaumenrunter_m.mp4","Ist der Ball in der blauen Box?","Green","Blue","J","affirmation","mismatch","speech","yes","ThumbDown","male","speech-gesture","1707","960","chrome","61.26","Chrome OS","20","female","right","Fri Oct 11 2024 20:32:26 GMT+0200 (Mitteleuropäische Sommerzeit)","2","56","1","1728688123515"
"3339","j","SpeechGestureMatch","../RequiredFiles/videos/JaDaumenrunter_m.mp4","Ist der Ball in der grünen Box?","Blue","Green","J","affirmation","mismatch","speech","yes","ThumbDown","male","speech-gesture","1707","960","chrome","61.26","Chrome OS","20","female","right","Fri Oct 11 2024 20:32:34 GMT+0200 (Mitteleuropäische Sommerzeit)","2","57","0","1728688123515"
"1244","j","SpeechGestureMatch","../RequiredFiles/videos/JaDaumenrunter_m.mp4","Ist der Ball in der grünen Box?","Blue","Green","J","affirmation","mismatch","speech","yes","ThumbDown","male","speech-gesture","1707","960","chrome","61.26","Chrome OS","20","female","right","Fri Oct 11 2024 20:32:41 GMT+0200 (Mitteleuropäische Sommerzeit)","2","58","0","1728688123515"
"1173","f","SpeechGestureMatch","../RequiredFiles/videos/NeinDaumenhoch_f.mp4","Ist der Ball in der grünen Box?","Blue","Green","F","negation","mismatch","speech","no","ThumbUp","female","speech-gesture","1707","960","chrome","61.26","Chrome OS","20","female","right","Fri Oct 11 2024 20:32:48 GMT+0200 (Mitteleuropäische Sommerzeit)","2","59","0","1728688123515"
"1627","j","SpeechGestureMatch","../RequiredFiles/videos/NeinDaumenrunter_f.mp4","Ist der Ball in der blauen Box?","Blue","Green","J","negation","match","speech","no","ThumbDown","female","speech-gesture","1707","960","chrome","61.26","Chrome OS","20","female","right","Fri Oct 11 2024 20:32:55 GMT+0200 (Mitteleuropäische Sommerzeit)","2","60","0","1728688123515"
"1207","f","SpeechGestureMatch","../RequiredFiles/videos/NeinDaumenhoch_f_no_gesture.mp4","Ist der Ball in der grünen Box?","Blue","Green","F","negation","na","speech","no","na","female","speech-gesture","1707","960","chrome","61.26","Chrome OS","20","female","right","Fri Oct 11 2024 20:33:02 GMT+0200 (Mitteleuropäische Sommerzeit)","2","61","0","1728688123515"
"1701","j","SpeechGestureMatch","../RequiredFiles/videos/JaDaumenrunter_f.mp4","Ist der Ball in der grünen Box?","Green","Blue","F","affirmation","mismatch","speech","yes","ThumbDown","female","speech-gesture","1707","960","chrome","61.26","Chrome OS","20","female","right","Fri Oct 11 2024 20:33:09 GMT+0200 (Mitteleuropäische Sommerzeit)","2","62","1","1728688123515"
"4866","j","SpeechGestureMatch","../RequiredFiles/videos/JaDaumenhoch_f.mp4","Ist der Ball in der grünen Box?","Blue","Green","J","affirmation","match","speech","yes","ThumbUp","female","speech-gesture","1707","960","chrome","61.26","Chrome OS","20","female","right","Fri Oct 11 2024 20:33:19 GMT+0200 (Mitteleuropäische Sommerzeit)","2","63","0","1728688123515"
"5438","j","SpeechGestureMatch","../RequiredFiles/videos/JaDaumenrunter_f.mp4","Ist der Ball in der grünen Box?","Green","Blue","F","affirmation","mismatch","speech","yes","ThumbDown","female","speech-gesture","1707","960","chrome","61.26","Chrome OS","20","female","right","Fri Oct 11 2024 20:33:30 GMT+0200 (Mitteleuropäische Sommerzeit)","2","64","1","1728688123515"
"1414","j","SpeechGestureMatch","../RequiredFiles/videos/JaDaumenhoch_f.mp4","Ist der Ball in der blauen Box?","Green","Blue","J","affirmation","match","speech","yes","ThumbUp","female","speech-gesture","1707","960","chrome","61.26","Chrome OS","20","female","right","Fri Oct 11 2024 20:33:37 GMT+0200 (Mitteleuropäische Sommerzeit)","2","65","0","1728688123515"
"1453","f","SpeechGestureMatch","../RequiredFiles/videos/NeinDaumenhoch_m.mp4","Ist der Ball in der grünen Box?","Blue","Green","F","negation","mismatch","speech","no","ThumbUp","male","speech-gesture","1707","960","chrome","61.26","Chrome OS","20","female","right","Fri Oct 11 2024 20:33:44 GMT+0200 (Mitteleuropäische Sommerzeit)","2","66","0","1728688123515"
"2238","j","SpeechGestureMatch","../RequiredFiles/videos/JaDaumenrunter_f.mp4","Ist der Ball in der grünen Box?","Blue","Green","J","affirmation","mismatch","speech","yes","ThumbDown","female","speech-gesture","1707","960","chrome","61.26","Chrome OS","20","female","right","Fri Oct 11 2024 20:33:52 GMT+0200 (Mitteleuropäische Sommerzeit)","2","67","0","1728688123515"
"3926","j","SpeechGestureMatch","../RequiredFiles/videos/NeinDaumenrunter_m.mp4","Ist der Ball in der grünen Box?","Green","Blue","J","negation","match","speech","no","ThumbDown","male","speech-gesture","1707","960","chrome","61.26","Chrome OS","20","female","right","Fri Oct 11 2024 20:34:01 GMT+0200 (Mitteleuropäische Sommerzeit)","2","68","0","1728688123515"
"2807","j","SpeechGestureMatch","../RequiredFiles/videos/NeinDaumenrunter_f.mp4","Ist der Ball in der blauen Box?","Green","Blue","F","negation","match","speech","no","ThumbDown","female","speech-gesture","1707","960","chrome","61.26","Chrome OS","20","female","right","Fri Oct 11 2024 20:34:10 GMT+0200 (Mitteleuropäische Sommerzeit)","2","69","1","1728688123515"
"1610","f","SpeechGestureMatch","../RequiredFiles/videos/JaDaumenhoch_f.mp4","Ist der Ball in der grünen Box?","Green","Blue","F","affirmation","match","speech","yes","ThumbUp","female","speech-gesture","1707","960","chrome","61.26","Chrome OS","20","female","right","Fri Oct 11 2024 20:34:17 GMT+0200 (Mitteleuropäische Sommerzeit)","2","70","0","1728688123515"
"2225","j","SpeechGestureMatch","../RequiredFiles/videos/JaDaumenhoch_f_no_gesture.mp4","Ist der Ball in der grünen Box?","Green","Blue","F","affirmation","na","speech","yes","na","female","speech-gesture","1707","960","chrome","61.26","Chrome OS","20","female","right","Fri Oct 11 2024 20:34:25 GMT+0200 (Mitteleuropäische Sommerzeit)","2","71","1","1728688123515"
"6821","f","SpeechGestureMatch","../RequiredFiles/videos/JaDaumenrunter_m_no_gesture.mp4","Ist der Ball in der blauen Box?","Blue","Green","F","affirmation","na","speech","yes","na","male","speech-gesture","1707","960","chrome","61.26","Chrome OS","20","female","right","Fri Oct 11 2024 20:34:37 GMT+0200 (Mitteleuropäische Sommerzeit)","2","72","0","1728688123515"
"1199","j","SpeechGestureMatch","../RequiredFiles/videos/NeinDaumenrunter_m_no_gesture.mp4","Ist der Ball in der blauen Box?","Blue","Green","J","negation","na","speech","no","na","male","speech-gesture","1707","960","chrome","61.26","Chrome OS","20","female","right","Fri Oct 11 2024 20:34:44 GMT+0200 (Mitteleuropäische Sommerzeit)","2","73","0","1728688123515"
"1410","j","SpeechGestureMatch","../RequiredFiles/videos/NeinDaumenhoch_m_no_gesture.mp4","Ist der Ball in der grünen Box?","Green","Blue","J","negation","na","speech","no","na","male","speech-gesture","1707","960","chrome","61.26","Chrome OS","20","female","right","Fri Oct 11 2024 20:34:51 GMT+0200 (Mitteleuropäische Sommerzeit)","2","74","0","1728688123515"
"2505","j","SpeechGestureMatch","../RequiredFiles/videos/NeinDaumenhoch_f_no_gesture.mp4","Ist der Ball in der blauen Box?","Green","Blue","F","negation","na","speech","no","na","female","speech-gesture","1707","960","chrome","61.26","Chrome OS","20","female","right","Fri Oct 11 2024 20:34:59 GMT+0200 (Mitteleuropäische Sommerzeit)","2","75","1","1728688123515"
"25","f","SpeechGestureMatch","../RequiredFiles/videos/JaDaumenrunter_f_no_gesture.mp4","Ist der Ball in der grünen Box?","Green","Blue","F","affirmation","na","speech","yes","na","female","speech-gesture","1707","960","chrome","61.26","Chrome OS","20","female","right","Fri Oct 11 2024 20:35:04 GMT+0200 (Mitteleuropäische Sommerzeit)","2","76","0","1728688123515"
"6837","f","SpeechGestureMatch","../RequiredFiles/videos/JaDaumenrunter_m_no_gesture.mp4","Ist der Ball in der blauen Box?","Green","Blue","J","affirmation","na","speech","yes","na","male","speech-gesture","1707","960","chrome","61.26","Chrome OS","20","female","right","Fri Oct 11 2024 20:35:17 GMT+0200 (Mitteleuropäische Sommerzeit)","2","77","1","1728688123515"
"1046","j","SpeechGestureMatch","../RequiredFiles/videos/NeinDaumenrunter_f.mp4","Ist der Ball in der blauen Box?","Blue","Green","J","negation","match","speech","no","ThumbDown","female","speech-gesture","1707","960","chrome","61.26","Chrome OS","20","female","right","Fri Oct 11 2024 20:35:23 GMT+0200 (Mitteleuropäische Sommerzeit)","2","78","0","1728688123515"
"1639","f","SpeechGestureMatch","../RequiredFiles/videos/NeinDaumenrunter_m_no_gesture.mp4","Ist der Ball in der grünen Box?","Blue","Green","F","negation","na","speech","no","na","male","speech-gesture","1707","960","chrome","61.26","Chrome OS","20","female","right","Fri Oct 11 2024 20:35:30 GMT+0200 (Mitteleuropäische Sommerzeit)","2","79","0","1728688123515"
"1357","f","SpeechGestureMatch","../RequiredFiles/videos/JaDaumenhoch_m.mp4","Ist der Ball in der grünen Box?","Green","Blue","F","affirmation","match","speech","yes","ThumbUp","male","speech-gesture","1707","960","chrome","61.26","Chrome OS","20","female","right","Fri Oct 11 2024 20:35:37 GMT+0200 (Mitteleuropäische Sommerzeit)","2","80","0","1728688123515"
"1463","j","SpeechGestureMatch","../RequiredFiles/videos/NeinDaumenrunter_f_no_gesture.mp4","Ist der Ball in der grünen Box?","Green","Blue","J","negation","na","speech","no","na","female","speech-gesture","1707","960","chrome","61.26","Chrome OS","20","female","right","Fri Oct 11 2024 20:35:44 GMT+0200 (Mitteleuropäische Sommerzeit)","2","81","0","1728688123515"
"2306","f","SpeechGestureMatch","../RequiredFiles/videos/JaDaumenrunter_m.mp4","Ist der Ball in der blauen Box?","Blue","Green","F","affirmation","mismatch","speech","yes","ThumbDown","male","speech-gesture","1707","960","chrome","61.26","Chrome OS","20","female","right","Fri Oct 11 2024 20:35:52 GMT+0200 (Mitteleuropäische Sommerzeit)","2","82","0","1728688123515"
"2026","j","SpeechGestureMatch","../RequiredFiles/videos/NeinDaumenhoch_m.mp4","Ist der Ball in der blauen Box?","Green","Blue","F","negation","mismatch","speech","no","ThumbUp","male","speech-gesture","1707","960","chrome","61.26","Chrome OS","20","female","right","Fri Oct 11 2024 20:36:00 GMT+0200 (Mitteleuropäische Sommerzeit)","2","83","1","1728688123515"
"1585","j","SpeechGestureMatch","../RequiredFiles/videos/NeinDaumenhoch_f.mp4","Ist der Ball in der blauen Box?","Blue","Green","J","negation","mismatch","speech","no","ThumbUp","female","speech-gesture","1707","960","chrome","61.26","Chrome OS","20","female","right","Fri Oct 11 2024 20:36:07 GMT+0200 (Mitteleuropäische Sommerzeit)","2","84","0","1728688123515"
"2715","j","SpeechGestureMatch","../RequiredFiles/videos/JaDaumenhoch_m_no_gesture.mp4","Ist der Ball in der grünen Box?","Blue","Green","J","affirmation","na","speech","yes","na","male","speech-gesture","1707","960","chrome","61.26","Chrome OS","20","female","right","Fri Oct 11 2024 20:36:15 GMT+0200 (Mitteleuropäische Sommerzeit)","2","85","0","1728688123515"
"1008","j","SpeechGestureMatch","../RequiredFiles/videos/JaDaumenhoch_f.mp4","Ist der Ball in der blauen Box?","Blue","Green","F","affirmation","match","speech","yes","ThumbUp","female","speech-gesture","1707","960","chrome","61.26","Chrome OS","20","female","right","Fri Oct 11 2024 20:36:21 GMT+0200 (Mitteleuropäische Sommerzeit)","2","86","1","1728688123515"
"1410","j","SpeechGestureMatch","../RequiredFiles/videos/JaDaumenhoch_m.mp4","Ist der Ball in der grünen Box?","Green","Blue","F","affirmation","match","speech","yes","ThumbUp","male","speech-gesture","1707","960","chrome","61.26","Chrome OS","20","female","right","Fri Oct 11 2024 20:36:28 GMT+0200 (Mitteleuropäische Sommerzeit)","2","87","1","1728688123515"
"1552","f","SpeechGestureMatch","../RequiredFiles/videos/NeinDaumenrunter_m.mp4","Ist der Ball in der blauen Box?","Blue","Green","J","negation","match","speech","no","ThumbDown","male","speech-gesture","1707","960","chrome","61.26","Chrome OS","20","female","right","Fri Oct 11 2024 20:36:35 GMT+0200 (Mitteleuropäische Sommerzeit)","2","88","1","1728688123515"
"1625","f","SpeechGestureMatch","../RequiredFiles/videos/JaDaumenhoch_f_no_gesture.mp4","Ist der Ball in der blauen Box?","Blue","Green","F","affirmation","na","speech","yes","na","female","speech-gesture","1707","960","chrome","61.26","Chrome OS","20","female","right","Fri Oct 11 2024 20:36:43 GMT+0200 (Mitteleuropäische Sommerzeit)","2","89","0","1728688123515"
"1155","f","SpeechGestureMatch","../RequiredFiles/videos/JaDaumenrunter_f_no_gesture.mp4","Ist der Ball in der blauen Box?","Blue","Green","F","affirmation","na","speech","yes","na","female","speech-gesture","1707","960","chrome","61.26","Chrome OS","20","female","right","Fri Oct 11 2024 20:36:49 GMT+0200 (Mitteleuropäische Sommerzeit)","2","90","0","1728688123515"
"2916","f","SpeechGestureMatch","../RequiredFiles/videos/NeinDaumenrunter_f_no_gesture.mp4","Ist der Ball in der blauen Box?","Green","Blue","F","negation","na","speech","no","na","female","speech-gesture","1707","960","chrome","61.26","Chrome OS","20","female","right","Fri Oct 11 2024 20:36:58 GMT+0200 (Mitteleuropäische Sommerzeit)","2","91","0","1728688123515"
"3088","j","SpeechGestureMatch","../RequiredFiles/videos/NeinDaumenhoch_f.mp4","Ist der Ball in der blauen Box?","Blue","Green","J","negation","mismatch","speech","no","ThumbUp","female","speech-gesture","1707","960","chrome","61.26","Chrome OS","20","female","right","Fri Oct 11 2024 20:37:06 GMT+0200 (Mitteleuropäische Sommerzeit)","2","92","0","1728688123515"
"2797","f","SpeechGestureMatch","../RequiredFiles/videos/JaDaumenrunter_f.mp4","Ist der Ball in der blauen Box?","Green","Blue","J","affirmation","mismatch","speech","yes","ThumbDown","female","speech-gesture","1707","960","chrome","61.26","Chrome OS","20","female","right","Fri Oct 11 2024 20:37:15 GMT+0200 (Mitteleuropäische Sommerzeit)","2","93","1","1728688123515"
"1996","f","SpeechGestureMatch","../RequiredFiles/videos/JaDaumenhoch_m_no_gesture.mp4","Ist der Ball in der grünen Box?","Green","Blue","F","affirmation","na","speech","yes","na","male","speech-gesture","1707","960","chrome","61.26","Chrome OS","20","female","right","Fri Oct 11 2024 20:37:22 GMT+0200 (Mitteleuropäische Sommerzeit)","2","94","0","1728688123515"
"1003","j","SpeechGestureMatch","../RequiredFiles/videos/NeinDaumenrunter_f.mp4","Ist der Ball in der grünen Box?","Green","Blue","J","negation","match","speech","no","ThumbDown","female","speech-gesture","1707","960","chrome","61.26","Chrome OS","20","female","right","Fri Oct 11 2024 20:37:29 GMT+0200 (Mitteleuropäische Sommerzeit)","2","95","0","1728688123515"
"1032","j","SpeechGestureMatch","../RequiredFiles/videos/JaDaumenhoch_m.mp4","Ist der Ball in der blauen Box?","Green","Blue","J","affirmation","match","speech","yes","ThumbUp","male","speech-gesture","1707","960","chrome","61.26","Chrome OS","20","female","right","Fri Oct 11 2024 20:37:35 GMT+0200 (Mitteleuropäische Sommerzeit)","2","96","0","1728688123515"
"1605","j","SpeechGestureMatch","../RequiredFiles/videos/NeinDaumenrunter_m.mp4","Ist der Ball in der grünen Box?","Green","Blue","J","negation","match","gesture","no","ThumbDown","male","speech-gesture","1707","960","chrome","61.26","Chrome OS","20","female","right","Sat Oct 12 2024 00:44:13 GMT+0200 (Mitteleuropäische Sommerzeit)","3","1","0","1728688123515"
"2775","f","SpeechGestureMatch","../RequiredFiles/videos/NeinDaumenhoch_f.mp4","Ist der Ball in der grünen Box?","Green","Blue","F","affirmation","mismatch","gesture","no","ThumbUp","female","speech-gesture","1707","960","chrome","61.26","Chrome OS","20","female","right","Sat Oct 12 2024 00:44:21 GMT+0200 (Mitteleuropäische Sommerzeit)","3","2","0","1728688123515"
"2450","j","SpeechGestureMatch","../RequiredFiles/videos/NeinDaumenrunter_f.mp4","Ist der Ball in der blauen Box?","Blue","Green","J","negation","match","gesture","no","ThumbDown","female","speech-gesture","1707","960","chrome","61.26","Chrome OS","20","female","right","Sat Oct 12 2024 00:44:29 GMT+0200 (Mitteleuropäische Sommerzeit)","3","3","0","1728688123515"
"1800","f","SpeechGestureMatch","../RequiredFiles/videos/JaDaumenhoch_m_no_sound.mp4","Ist der Ball in der grünen Box?","Green","Blue","F","affirmation","na","gesture","na","ThumbUp","male","speech-gesture","1707","960","chrome","61.26","Chrome OS","20","female","right","Sat Oct 12 2024 00:44:36 GMT+0200 (Mitteleuropäische Sommerzeit)","3","4","0","1728688123515"
"1906","j","SpeechGestureMatch","../RequiredFiles/videos/JaDaumenrunter_f_no_sound.mp4","Ist der Ball in der blauen Box?","Blue","Green","J","negation","na","gesture","na","ThumbDown","female","speech-gesture","1707","960","chrome","61.26","Chrome OS","20","female","right","Sat Oct 12 2024 00:44:44 GMT+0200 (Mitteleuropäische Sommerzeit)","3","5","0","1728688123515"
"1734","j","SpeechGestureMatch","../RequiredFiles/videos/JaDaumenhoch_f_no_sound.mp4","Ist der Ball in der blauen Box?","Green","Blue","J","affirmation","na","gesture","na","ThumbUp","female","speech-gesture","1707","960","chrome","61.26","Chrome OS","20","female","right","Sat Oct 12 2024 00:44:51 GMT+0200 (Mitteleuropäische Sommerzeit)","3","6","0","1728688123515"
"1513","j","SpeechGestureMatch","../RequiredFiles/videos/JaDaumenhoch_m.mp4","Ist der Ball in der blauen Box?","Green","Blue","J","affirmation","match","gesture","yes","ThumbUp","male","speech-gesture","1707","960","chrome","61.26","Chrome OS","20","female","right","Sat Oct 12 2024 00:44:58 GMT+0200 (Mitteleuropäische Sommerzeit)","3","7","0","1728688123515"
"2885","j","SpeechGestureMatch","../RequiredFiles/videos/JaDaumenrunter_m.mp4","Ist der Ball in der grünen Box?","Green","Blue","J","negation","mismatch","gesture","yes","ThumbDown","male","speech-gesture","1707","960","chrome","61.26","Chrome OS","20","female","right","Sat Oct 12 2024 00:45:06 GMT+0200 (Mitteleuropäische Sommerzeit)","3","8","0","1728688123515"
"2296","f","SpeechGestureMatch","../RequiredFiles/videos/JaDaumenrunter_m.mp4","Ist der Ball in der grünen Box?","Blue","Green","F","negation","mismatch","gesture","yes","ThumbDown","male","speech-gesture","1707","960","chrome","61.26","Chrome OS","20","female","right","Sat Oct 12 2024 00:45:14 GMT+0200 (Mitteleuropäische Sommerzeit)","3","9","0","1728688123515"
"2114","f","SpeechGestureMatch","../RequiredFiles/videos/NeinDaumenhoch_m.mp4","Ist der Ball in der blauen Box?","Blue","Green","F","affirmation","mismatch","gesture","no","ThumbUp","male","speech-gesture","1707","960","chrome","61.26","Chrome OS","20","female","right","Sat Oct 12 2024 00:45:22 GMT+0200 (Mitteleuropäische Sommerzeit)","3","10","0","1728688123515"
"4637","f","SpeechGestureMatch","../RequiredFiles/videos/NeinDaumenhoch_f.mp4","Ist der Ball in der blauen Box?","Green","Blue","J","affirmation","mismatch","gesture","no","ThumbUp","female","speech-gesture","1707","960","chrome","61.26","Chrome OS","20","female","right","Sat Oct 12 2024 00:45:32 GMT+0200 (Mitteleuropäische Sommerzeit)","3","11","1","1728688123515"
"2347","f","SpeechGestureMatch","../RequiredFiles/videos/JaDaumenrunter_f_no_sound.mp4","Ist der Ball in der grünen Box?","Blue","Green","F","negation","na","gesture","na","ThumbDown","female","speech-gesture","1707","960","chrome","61.26","Chrome OS","20","female","right","Sat Oct 12 2024 00:45:40 GMT+0200 (Mitteleuropäische Sommerzeit)","3","12","0","1728688123515"
"2620","j","SpeechGestureMatch","../RequiredFiles/videos/JaDaumenrunter_m_no_sound.mp4","Ist der Ball in der grünen Box?","Blue","Green","F","negation","na","gesture","na","ThumbDown","male","speech-gesture","1707","960","chrome","61.26","Chrome OS","20","female","right","Sat Oct 12 2024 00:45:48 GMT+0200 (Mitteleuropäische Sommerzeit)","3","13","1","1728688123515"
"451","j","SpeechGestureMatch","../RequiredFiles/videos/JaDaumenhoch_m.mp4","Ist der Ball in der grünen Box?","Blue","Green","J","affirmation","match","gesture","yes","ThumbUp","male","speech-gesture","1707","960","chrome","61.26","Chrome OS","20","female","right","Sat Oct 12 2024 00:45:54 GMT+0200 (Mitteleuropäische Sommerzeit)","3","14","0","1728688123515"
"2776","f","SpeechGestureMatch","../RequiredFiles/videos/NeinDaumenrunter_f_no_sound.mp4","Ist der Ball in der blauen Box?","Green","Blue","F","negation","na","gesture","na","ThumbDown","female","speech-gesture","1707","960","chrome","61.26","Chrome OS","20","female","right","Sat Oct 12 2024 00:46:02 GMT+0200 (Mitteleuropäische Sommerzeit)","3","15","0","1728688123515"
"2099","f","SpeechGestureMatch","../RequiredFiles/videos/NeinDaumenhoch_m.mp4","Ist der Ball in der grünen Box?","Green","Blue","F","affirmation","mismatch","gesture","no","ThumbUp","male","speech-gesture","1707","960","chrome","61.26","Chrome OS","20","female","right","Sat Oct 12 2024 00:46:10 GMT+0200 (Mitteleuropäische Sommerzeit)","3","16","0","1728688123515"
"2773","f","SpeechGestureMatch","../RequiredFiles/videos/NeinDaumenrunter_f_no_sound.mp4","Ist der Ball in der grünen Box?","Green","Blue","J","negation","na","gesture","na","ThumbDown","female","speech-gesture","1707","960","chrome","61.26","Chrome OS","20","female","right","Sat Oct 12 2024 00:46:18 GMT+0200 (Mitteleuropäische Sommerzeit)","3","17","1","1728688123515"
"1484","f","SpeechGestureMatch","../RequiredFiles/videos/NeinDaumenhoch_f_no_sound.mp4","Ist der Ball in der blauen Box?","Blue","Green","F","affirmation","na","gesture","na","ThumbUp","female","speech-gesture","1707","960","chrome","61.26","Chrome OS","20","female","right","Sat Oct 12 2024 00:46:25 GMT+0200 (Mitteleuropäische Sommerzeit)","3","18","0","1728688123515"
"1584","f","SpeechGestureMatch","../RequiredFiles/videos/JaDaumenhoch_f_no_sound.mp4","Ist der Ball in der grünen Box?","Green","Blue","F","affirmation","na","gesture","na","ThumbUp","female","speech-gesture","1707","960","chrome","61.26","Chrome OS","20","female","right","Sat Oct 12 2024 00:46:32 GMT+0200 (Mitteleuropäische Sommerzeit)","3","19","0","1728688123515"
"2478","f","SpeechGestureMatch","../RequiredFiles/videos/NeinDaumenrunter_f_no_sound.mp4","Ist der Ball in der grünen Box?","Blue","Green","F","negation","na","gesture","na","ThumbDown","female","speech-gesture","1707","960","chrome","61.26","Chrome OS","20","female","right","Sat Oct 12 2024 00:46:40 GMT+0200 (Mitteleuropäische Sommerzeit)","3","20","0","1728688123515"
"2560","j","SpeechGestureMatch","../RequiredFiles/videos/JaDaumenhoch_m.mp4","Ist der Ball in der grünen Box?","Blue","Green","J","affirmation","match","gesture","yes","ThumbUp","male","speech-gesture","1707","960","chrome","61.26","Chrome OS","20","female","right","Sat Oct 12 2024 00:46:48 GMT+0200 (Mitteleuropäische Sommerzeit)","3","21","0","1728688123515"
"1550","j","SpeechGestureMatch","../RequiredFiles/videos/NeinDaumenhoch_f.mp4","Ist der Ball in der grünen Box?","Blue","Green","J","affirmation","mismatch","gesture","no","ThumbUp","female","speech-gesture","1707","960","chrome","61.26","Chrome OS","20","female","right","Sat Oct 12 2024 00:46:56 GMT+0200 (Mitteleuropäische Sommerzeit)","3","22","0","1728688123515"
"1871","f","SpeechGestureMatch","../RequiredFiles/videos/NeinDaumenrunter_f.mp4","Ist der Ball in der blauen Box?","Green","Blue","F","negation","match","gesture","no","ThumbDown","female","speech-gesture","1707","960","chrome","61.26","Chrome OS","20","female","right","Sat Oct 12 2024 00:47:03 GMT+0200 (Mitteleuropäische Sommerzeit)","3","23","0","1728688123515"
"2818","j","SpeechGestureMatch","../RequiredFiles/videos/JaDaumenrunter_m.mp4","Ist der Ball in der grünen Box?","Green","Blue","J","negation","mismatch","gesture","yes","ThumbDown","male","speech-gesture","1707","960","chrome","61.26","Chrome OS","20","female","right","Sat Oct 12 2024 00:47:11 GMT+0200 (Mitteleuropäische Sommerzeit)","3","24","0","1728688123515"
"1831","j","SpeechGestureMatch","../RequiredFiles/videos/JaDaumenhoch_m_no_sound.mp4","Ist der Ball in der grünen Box?","Blue","Green","J","affirmation","na","gesture","na","ThumbUp","male","speech-gesture","1707","960","chrome","61.26","Chrome OS","20","female","right","Sat Oct 12 2024 00:47:19 GMT+0200 (Mitteleuropäische Sommerzeit)","3","25","0","1728688123515"
"2532","j","SpeechGestureMatch","../RequiredFiles/videos/JaDaumenrunter_m.mp4","Ist der Ball in der blauen Box?","Blue","Green","J","negation","mismatch","gesture","yes","ThumbDown","male","speech-gesture","1707","960","chrome","61.26","Chrome OS","20","female","right","Sat Oct 12 2024 00:47:27 GMT+0200 (Mitteleuropäische Sommerzeit)","3","26","0","1728688123515"
"1552","f","SpeechGestureMatch","../RequiredFiles/videos/NeinDaumenhoch_m_no_sound.mp4","Ist der Ball in der grünen Box?","Green","Blue","F","affirmation","na","gesture","na","ThumbUp","male","speech-gesture","1707","960","chrome","61.26","Chrome OS","20","female","right","Sat Oct 12 2024 00:47:34 GMT+0200 (Mitteleuropäische Sommerzeit)","3","27","0","1728688123515"
"2274","f","SpeechGestureMatch","../RequiredFiles/videos/NeinDaumenrunter_m_no_sound.mp4","Ist der Ball in der blauen Box?","Green","Blue","F","negation","na","gesture","na","ThumbDown","male","speech-gesture","1707","960","chrome","61.26","Chrome OS","20","female","right","Sat Oct 12 2024 00:47:41 GMT+0200 (Mitteleuropäische Sommerzeit)","3","28","0","1728688123515"
"1347","j","SpeechGestureMatch","../RequiredFiles/videos/NeinDaumenhoch_f_no_sound.mp4","Ist der Ball in der blauen Box?","Green","Blue","J","affirmation","na","gesture","na","ThumbUp","female","speech-gesture","1707","960","chrome","61.26","Chrome OS","20","female","right","Sat Oct 12 2024 00:47:48 GMT+0200 (Mitteleuropäische Sommerzeit)","3","29","0","1728688123515"
"1810","j","SpeechGestureMatch","../RequiredFiles/videos/NeinDaumenrunter_m.mp4","Ist der Ball in der blauen Box?","Blue","Green","J","negation","match","gesture","no","ThumbDown","male","speech-gesture","1707","960","chrome","61.26","Chrome OS","20","female","right","Sat Oct 12 2024 00:47:56 GMT+0200 (Mitteleuropäische Sommerzeit)","3","30","0","1728688123515"
"1318","f","SpeechGestureMatch","../RequiredFiles/videos/JaDaumenrunter_f_no_sound.mp4","Ist der Ball in der blauen Box?","Green","Blue","F","negation","na","gesture","na","ThumbDown","female","speech-gesture","1707","960","chrome","61.26","Chrome OS","20","female","right","Sat Oct 12 2024 00:48:02 GMT+0200 (Mitteleuropäische Sommerzeit)","3","31","0","1728688123515"
"1149","j","SpeechGestureMatch","../RequiredFiles/videos/NeinDaumenrunter_m_no_sound.mp4","Ist der Ball in der grünen Box?","Green","Blue","J","negation","na","gesture","na","ThumbDown","male","speech-gesture","1707","960","chrome","61.26","Chrome OS","20","female","right","Sat Oct 12 2024 00:48:09 GMT+0200 (Mitteleuropäische Sommerzeit)","3","32","0","1728688123515"
"2364","f","SpeechGestureMatch","../RequiredFiles/videos/JaDaumenhoch_f.mp4","Ist der Ball in der grünen Box?","Blue","Green","J","affirmation","match","gesture","yes","ThumbUp","female","speech-gesture","1707","960","chrome","61.26","Chrome OS","20","female","right","Sat Oct 12 2024 00:48:17 GMT+0200 (Mitteleuropäische Sommerzeit)","3","33","1","1728688123515"
"1794","f","SpeechGestureMatch","../RequiredFiles/videos/NeinDaumenrunter_f.mp4","Ist der Ball in der blauen Box?","Green","Blue","F","negation","match","gesture","no","ThumbDown","female","speech-gesture","1707","960","chrome","61.26","Chrome OS","20","female","right","Sat Oct 12 2024 00:48:24 GMT+0200 (Mitteleuropäische Sommerzeit)","3","34","0","1728688123515"
"2217","j","SpeechGestureMatch","../RequiredFiles/videos/NeinDaumenhoch_f.mp4","Ist der Ball in der blauen Box?","Blue","Green","F","affirmation","mismatch","gesture","no","ThumbUp","female","speech-gesture","1707","960","chrome","61.26","Chrome OS","20","female","right","Sat Oct 12 2024 00:48:32 GMT+0200 (Mitteleuropäische Sommerzeit)","3","35","1","1728688123515"
"1976","j","SpeechGestureMatch","../RequiredFiles/videos/NeinDaumenhoch_m_no_sound.mp4","Ist der Ball in der grünen Box?","Blue","Green","J","affirmation","na","gesture","na","ThumbUp","male","speech-gesture","1707","960","chrome","61.26","Chrome OS","20","female","right","Sat Oct 12 2024 00:48:40 GMT+0200 (Mitteleuropäische Sommerzeit)","3","36","0","1728688123515"
"2324","f","SpeechGestureMatch","../RequiredFiles/videos/JaDaumenrunter_f.mp4","Ist der Ball in der grünen Box?","Blue","Green","F","negation","mismatch","gesture","yes","ThumbDown","female","speech-gesture","1707","960","chrome","61.26","Chrome OS","20","female","right","Sat Oct 12 2024 00:48:47 GMT+0200 (Mitteleuropäische Sommerzeit)","3","37","0","1728688123515"
"2762","f","SpeechGestureMatch","../RequiredFiles/videos/NeinDaumenrunter_f.mp4","Ist der Ball in der grünen Box?","Blue","Green","F","negation","match","gesture","no","ThumbDown","female","speech-gesture","1707","960","chrome","61.26","Chrome OS","20","female","right","Sat Oct 12 2024 00:48:56 GMT+0200 (Mitteleuropäische Sommerzeit)","3","38","0","1728688123515"
"1129","f","SpeechGestureMatch","../RequiredFiles/videos/JaDaumenhoch_m_no_sound.mp4","Ist der Ball in der blauen Box?","Blue","Green","F","affirmation","na","gesture","na","ThumbUp","male","speech-gesture","1707","960","chrome","61.26","Chrome OS","20","female","right","Sat Oct 12 2024 00:49:02 GMT+0200 (Mitteleuropäische Sommerzeit)","3","39","0","1728688123515"
"1757","f","SpeechGestureMatch","../RequiredFiles/videos/JaDaumenhoch_f.mp4","Ist der Ball in der blauen Box?","Blue","Green","F","affirmation","match","gesture","yes","ThumbUp","female","speech-gesture","1707","960","chrome","61.26","Chrome OS","20","female","right","Sat Oct 12 2024 00:49:10 GMT+0200 (Mitteleuropäische Sommerzeit)","3","40","0","1728688123515"
"1409","f","SpeechGestureMatch","../RequiredFiles/videos/JaDaumenrunter_m.mp4","Ist der Ball in der blauen Box?","Green","Blue","F","negation","mismatch","gesture","yes","ThumbDown","male","speech-gesture","1707","960","chrome","61.26","Chrome OS","20","female","right","Sat Oct 12 2024 00:49:17 GMT+0200 (Mitteleuropäische Sommerzeit)","3","41","0","1728688123515"
"1964","j","SpeechGestureMatch","../RequiredFiles/videos/NeinDaumenhoch_f_no_sound.mp4","Ist der Ball in der grünen Box?","Blue","Green","J","affirmation","na","gesture","na","ThumbUp","female","speech-gesture","1707","960","chrome","61.26","Chrome OS","20","female","right","Sat Oct 12 2024 00:49:24 GMT+0200 (Mitteleuropäische Sommerzeit)","3","42","0","1728688123515"
"1315","j","SpeechGestureMatch","../RequiredFiles/videos/JaDaumenrunter_f.mp4","Ist der Ball in der blauen Box?","Blue","Green","J","negation","mismatch","gesture","yes","ThumbDown","female","speech-gesture","1707","960","chrome","61.26","Chrome OS","20","female","right","Sat Oct 12 2024 00:49:31 GMT+0200 (Mitteleuropäische Sommerzeit)","3","43","0","1728688123515"
"3259","f","SpeechGestureMatch","../RequiredFiles/videos/NeinDaumenhoch_f.mp4","Ist der Ball in der grünen Box?","Green","Blue","F","affirmation","mismatch","gesture","no","ThumbUp","female","speech-gesture","1707","960","chrome","61.26","Chrome OS","20","female","right","Sat Oct 12 2024 00:49:40 GMT+0200 (Mitteleuropäische Sommerzeit)","3","44","0","1728688123515"
"1378","f","SpeechGestureMatch","../RequiredFiles/videos/JaDaumenhoch_f.mp4","Ist der Ball in der grünen Box?","Green","Blue","F","affirmation","match","gesture","yes","ThumbUp","female","speech-gesture","1707","960","chrome","61.26","Chrome OS","20","female","right","Sat Oct 12 2024 00:49:47 GMT+0200 (Mitteleuropäische Sommerzeit)","3","45","0","1728688123515"
"2409","f","SpeechGestureMatch","../RequiredFiles/videos/JaDaumenrunter_m.mp4","Ist der Ball in der grünen Box?","Blue","Green","F","negation","mismatch","gesture","yes","ThumbDown","male","speech-gesture","1707","960","chrome","61.26","Chrome OS","20","female","right","Sat Oct 12 2024 00:49:55 GMT+0200 (Mitteleuropäische Sommerzeit)","3","46","0","1728688123515"
"1525","j","SpeechGestureMatch","../RequiredFiles/videos/NeinDaumenrunter_f.mp4","Ist der Ball in der blauen Box?","Blue","Green","J","negation","match","gesture","no","ThumbDown","female","speech-gesture","1707","960","chrome","61.26","Chrome OS","20","female","right","Sat Oct 12 2024 00:50:02 GMT+0200 (Mitteleuropäische Sommerzeit)","3","47","0","1728688123515"
"1389","j","SpeechGestureMatch","../RequiredFiles/videos/JaDaumenhoch_f.mp4","Ist der Ball in der blauen Box?","Green","Blue","J","affirmation","match","gesture","yes","ThumbUp","female","speech-gesture","1707","960","chrome","61.26","Chrome OS","20","female","right","Sat Oct 12 2024 00:50:08 GMT+0200 (Mitteleuropäische Sommerzeit)","3","48","0","1728688123515"
"1775","j","SpeechGestureMatch","../RequiredFiles/videos/NeinDaumenhoch_f.mp4","Ist der Ball in der blauen Box?","Green","Blue","J","affirmation","mismatch","gesture","no","ThumbUp","female","speech-gesture","1707","960","chrome","61.26","Chrome OS","20","female","right","Sat Oct 12 2024 00:50:16 GMT+0200 (Mitteleuropäische Sommerzeit)","3","49","0","1728688123515"
"2143","j","SpeechGestureMatch","../RequiredFiles/videos/NeinDaumenrunter_m.mp4","Ist der Ball in der grünen Box?","Blue","Green","F","negation","match","gesture","no","ThumbDown","male","speech-gesture","1707","960","chrome","61.26","Chrome OS","20","female","right","Sat Oct 12 2024 00:50:23 GMT+0200 (Mitteleuropäische Sommerzeit)","3","50","1","1728688123515"
"1714","f","SpeechGestureMatch","../RequiredFiles/videos/JaDaumenhoch_m.mp4","Ist der Ball in der grünen Box?","Green","Blue","F","affirmation","match","gesture","yes","ThumbUp","male","speech-gesture","1707","960","chrome","61.26","Chrome OS","20","female","right","Sat Oct 12 2024 00:50:31 GMT+0200 (Mitteleuropäische Sommerzeit)","3","51","0","1728688123515"
"2858","j","SpeechGestureMatch","../RequiredFiles/videos/JaDaumenrunter_f.mp4","Ist der Ball in der blauen Box?","Blue","Green","J","negation","mismatch","gesture","yes","ThumbDown","female","speech-gesture","1707","960","chrome","61.26","Chrome OS","20","female","right","Sat Oct 12 2024 00:50:39 GMT+0200 (Mitteleuropäische Sommerzeit)","3","52","0","1728688123515"
"2775","f","SpeechGestureMatch","../RequiredFiles/videos/JaDaumenhoch_m_no_sound.mp4","Ist der Ball in der blauen Box?","Green","Blue","J","affirmation","na","gesture","na","ThumbUp","male","speech-gesture","1707","960","chrome","61.26","Chrome OS","20","female","right","Sat Oct 12 2024 00:50:47 GMT+0200 (Mitteleuropäische Sommerzeit)","3","53","1","1728688123515"
"1819","f","SpeechGestureMatch","../RequiredFiles/videos/NeinDaumenrunter_m.mp4","Ist der Ball in der blauen Box?","Green","Blue","F","negation","match","gesture","no","ThumbDown","male","speech-gesture","1707","960","chrome","61.26","Chrome OS","20","female","right","Sat Oct 12 2024 00:50:55 GMT+0200 (Mitteleuropäische Sommerzeit)","3","54","0","1728688123515"
"1354","f","SpeechGestureMatch","../RequiredFiles/videos/NeinDaumenhoch_f.mp4","Ist der Ball in der blauen Box?","Blue","Green","F","affirmation","mismatch","gesture","no","ThumbUp","female","speech-gesture","1707","960","chrome","61.26","Chrome OS","20","female","right","Sat Oct 12 2024 00:51:02 GMT+0200 (Mitteleuropäische Sommerzeit)","3","55","0","1728688123515"
"1521","f","SpeechGestureMatch","../RequiredFiles/videos/JaDaumenrunter_f.mp4","Ist der Ball in der blauen Box?","Green","Blue","F","negation","mismatch","gesture","yes","ThumbDown","female","speech-gesture","1707","960","chrome","61.26","Chrome OS","20","female","right","Sat Oct 12 2024 00:51:09 GMT+0200 (Mitteleuropäische Sommerzeit)","3","56","0","1728688123515"
"1235","j","SpeechGestureMatch","../RequiredFiles/videos/NeinDaumenhoch_m_no_sound.mp4","Ist der Ball in der blauen Box?","Green","Blue","J","affirmation","na","gesture","na","ThumbUp","male","speech-gesture","1707","960","chrome","61.26","Chrome OS","20","female","right","Sat Oct 12 2024 00:51:15 GMT+0200 (Mitteleuropäische Sommerzeit)","3","57","0","1728688123515"
"1568","j","SpeechGestureMatch","../RequiredFiles/videos/NeinDaumenhoch_f.mp4","Ist der Ball in der grünen Box?","Blue","Green","J","affirmation","mismatch","gesture","no","ThumbUp","female","speech-gesture","1707","960","chrome","61.26","Chrome OS","20","female","right","Sat Oct 12 2024 00:51:22 GMT+0200 (Mitteleuropäische Sommerzeit)","3","58","0","1728688123515"
"1193","j","SpeechGestureMatch","../RequiredFiles/videos/JaDaumenhoch_m.mp4","Ist der Ball in der blauen Box?","Green","Blue","J","affirmation","match","gesture","yes","ThumbUp","male","speech-gesture","1707","960","chrome","61.26","Chrome OS","20","female","right","Sat Oct 12 2024 00:51:29 GMT+0200 (Mitteleuropäische Sommerzeit)","3","59","0","1728688123515"
"1150","f","SpeechGestureMatch","../RequiredFiles/videos/JaDaumenhoch_m.mp4","Ist der Ball in der blauen Box?","Blue","Green","F","affirmation","match","gesture","yes","ThumbUp","male","speech-gesture","1707","960","chrome","61.26","Chrome OS","20","female","right","Sat Oct 12 2024 00:51:36 GMT+0200 (Mitteleuropäische Sommerzeit)","3","60","0","1728688123515"
"2786","j","SpeechGestureMatch","../RequiredFiles/videos/NeinDaumenrunter_f.mp4","Ist der Ball in der grünen Box?","Green","Blue","J","negation","match","gesture","no","ThumbDown","female","speech-gesture","1707","960","chrome","61.26","Chrome OS","20","female","right","Sat Oct 12 2024 00:51:44 GMT+0200 (Mitteleuropäische Sommerzeit)","3","61","0","1728688123515"
"1540","j","SpeechGestureMatch","../RequiredFiles/videos/NeinDaumenrunter_m.mp4","Ist der Ball in der grünen Box?","Blue","Green","F","negation","match","gesture","no","ThumbDown","male","speech-gesture","1707","960","chrome","61.26","Chrome OS","20","female","right","Sat Oct 12 2024 00:51:51 GMT+0200 (Mitteleuropäische Sommerzeit)","3","62","1","1728688123515"
"1373","f","SpeechGestureMatch","../RequiredFiles/videos/JaDaumenhoch_m.mp4","Ist der Ball in der blauen Box?","Blue","Green","F","affirmation","match","gesture","yes","ThumbUp","male","speech-gesture","1707","960","chrome","61.26","Chrome OS","20","female","right","Sat Oct 12 2024 00:51:58 GMT+0200 (Mitteleuropäische Sommerzeit)","3","63","0","1728688123515"
"1352","j","SpeechGestureMatch","../RequiredFiles/videos/JaDaumenrunter_m_no_sound.mp4","Ist der Ball in der blauen Box?","Blue","Green","J","negation","na","gesture","na","ThumbDown","male","speech-gesture","1707","960","chrome","61.26","Chrome OS","20","female","right","Sat Oct 12 2024 00:52:05 GMT+0200 (Mitteleuropäische Sommerzeit)","3","64","0","1728688123515"
"1870","j","SpeechGestureMatch","../RequiredFiles/videos/JaDaumenrunter_f.mp4","Ist der Ball in der grünen Box?","Green","Blue","J","negation","mismatch","gesture","yes","ThumbDown","female","speech-gesture","1707","960","chrome","61.26","Chrome OS","20","female","right","Sat Oct 12 2024 00:52:12 GMT+0200 (Mitteleuropäische Sommerzeit)","3","65","0","1728688123515"
"1462","f","SpeechGestureMatch","../RequiredFiles/videos/JaDaumenhoch_f.mp4","Ist der Ball in der blauen Box?","Blue","Green","F","affirmation","match","gesture","yes","ThumbUp","female","speech-gesture","1707","960","chrome","61.26","Chrome OS","20","female","right","Sat Oct 12 2024 00:52:19 GMT+0200 (Mitteleuropäische Sommerzeit)","3","66","0","1728688123515"
"1357","j","SpeechGestureMatch","../RequiredFiles/videos/NeinDaumenrunter_m.mp4","Ist der Ball in der blauen Box?","Blue","Green","J","negation","match","gesture","no","ThumbDown","male","speech-gesture","1707","960","chrome","61.26","Chrome OS","20","female","right","Sat Oct 12 2024 00:52:26 GMT+0200 (Mitteleuropäische Sommerzeit)","3","67","0","1728688123515"
"2019","j","SpeechGestureMatch","../RequiredFiles/videos/JaDaumenrunter_f_no_sound.mp4","Ist der Ball in der grünen Box?","Green","Blue","J","negation","na","gesture","na","ThumbDown","female","speech-gesture","1707","960","chrome","61.26","Chrome OS","20","female","right","Sat Oct 12 2024 00:52:34 GMT+0200 (Mitteleuropäische Sommerzeit)","3","68","0","1728688123515"
"1606","f","SpeechGestureMatch","../RequiredFiles/videos/NeinDaumenrunter_f.mp4","Ist der Ball in der grünen Box?","Blue","Green","F","negation","match","gesture","no","ThumbDown","female","speech-gesture","1707","960","chrome","61.26","Chrome OS","20","female","right","Sat Oct 12 2024 00:52:41 GMT+0200 (Mitteleuropäische Sommerzeit)","3","69","0","1728688123515"
"1770","f","SpeechGestureMatch","../RequiredFiles/videos/JaDaumenrunter_f.mp4","Ist der Ball in der blauen Box?","Green","Blue","F","negation","mismatch","gesture","yes","ThumbDown","female","speech-gesture","1707","960","chrome","61.26","Chrome OS","20","female","right","Sat Oct 12 2024 00:52:48 GMT+0200 (Mitteleuropäische Sommerzeit)","3","70","0","1728688123515"
"1912","j","SpeechGestureMatch","../RequiredFiles/videos/NeinDaumenhoch_m.mp4","Ist der Ball in der blauen Box?","Green","Blue","J","affirmation","mismatch","gesture","no","ThumbUp","male","speech-gesture","1707","960","chrome","61.26","Chrome OS","20","female","right","Sat Oct 12 2024 00:52:56 GMT+0200 (Mitteleuropäische Sommerzeit)","3","71","0","1728688123515"
"2178","j","SpeechGestureMatch","../RequiredFiles/videos/JaDaumenhoch_f.mp4","Ist der Ball in der grünen Box?","Blue","Green","J","affirmation","match","gesture","yes","ThumbUp","female","speech-gesture","1707","960","chrome","61.26","Chrome OS","20","female","right","Sat Oct 12 2024 00:53:03 GMT+0200 (Mitteleuropäische Sommerzeit)","3","72","0","1728688123515"
"1086","j","SpeechGestureMatch","../RequiredFiles/videos/NeinDaumenrunter_f_no_sound.mp4","Ist der Ball in der blauen Box?","Blue","Green","J","negation","na","gesture","na","ThumbDown","female","speech-gesture","1707","960","chrome","61.26","Chrome OS","20","female","right","Sat Oct 12 2024 00:53:10 GMT+0200 (Mitteleuropäische Sommerzeit)","3","73","0","1728688123515"
"1080","j","SpeechGestureMatch","../RequiredFiles/videos/NeinDaumenrunter_m_no_sound.mp4","Ist der Ball in der blauen Box?","Blue","Green","J","negation","na","gesture","na","ThumbDown","male","speech-gesture","1707","960","chrome","61.26","Chrome OS","20","female","right","Sat Oct 12 2024 00:53:16 GMT+0200 (Mitteleuropäische Sommerzeit)","3","74","0","1728688123515"
"1549","f","SpeechGestureMatch","../RequiredFiles/videos/JaDaumenhoch_f_no_sound.mp4","Ist der Ball in der blauen Box?","Blue","Green","F","affirmation","na","gesture","na","ThumbUp","female","speech-gesture","1707","960","chrome","61.26","Chrome OS","20","female","right","Sat Oct 12 2024 00:53:23 GMT+0200 (Mitteleuropäische Sommerzeit)","3","75","0","1728688123515"
"1335","j","SpeechGestureMatch","../RequiredFiles/videos/JaDaumenhoch_f.mp4","Ist der Ball in der blauen Box?","Green","Blue","J","affirmation","match","gesture","yes","ThumbUp","female","speech-gesture","1707","960","chrome","61.26","Chrome OS","20","female","right","Sat Oct 12 2024 00:53:30 GMT+0200 (Mitteleuropäische Sommerzeit)","3","76","0","1728688123515"
"2959","j","SpeechGestureMatch","../RequiredFiles/videos/NeinDaumenhoch_m.mp4","Ist der Ball in der blauen Box?","Green","Blue","J","affirmation","mismatch","gesture","no","ThumbUp","male","speech-gesture","1707","960","chrome","61.26","Chrome OS","20","female","right","Sat Oct 12 2024 00:53:39 GMT+0200 (Mitteleuropäische Sommerzeit)","3","77","0","1728688123515"
"2896","f","SpeechGestureMatch","../RequiredFiles/videos/JaDaumenhoch_m.mp4","Ist der Ball in der grünen Box?","Green","Blue","F","affirmation","match","gesture","yes","ThumbUp","male","speech-gesture","1707","960","chrome","61.26","Chrome OS","20","female","right","Sat Oct 12 2024 00:53:47 GMT+0200 (Mitteleuropäische Sommerzeit)","3","78","0","1728688123515"
"1834","f","SpeechGestureMatch","../RequiredFiles/videos/NeinDaumenhoch_f_no_sound.mp4","Ist der Ball in der grünen Box?","Green","Blue","F","affirmation","na","gesture","na","ThumbUp","female","speech-gesture","1707","960","chrome","61.26","Chrome OS","20","female","right","Sat Oct 12 2024 00:53:55 GMT+0200 (Mitteleuropäische Sommerzeit)","3","79","0","1728688123515"
"1112","j","SpeechGestureMatch","../RequiredFiles/videos/JaDaumenhoch_f_no_sound.mp4","Ist der Ball in der grünen Box?","Blue","Green","J","affirmation","na","gesture","na","ThumbUp","female","speech-gesture","1707","960","chrome","61.26","Chrome OS","20","female","right","Sat Oct 12 2024 00:54:01 GMT+0200 (Mitteleuropäische Sommerzeit)","3","80","0","1728688123515"
