"rt","response","stim","video","question","box_colour_left","box_colour_right","correct_key","polarity","matching","modality","verbal","gesture","speaker","order","width","height","browser","vsync_rate","os","age","gender","handedness","date","blockNum","trialNum","error","vpNum"
"1481","f","SpeechGestureMatch","../RequiredFiles/videos/NeinDaumenhoch_m_no_gesture.mp4","Ist der Ball in der blauen Box?","Green","Blue","F","negation","na","speech","no","na","male","speech-gesture","1536","864","firefox","61.98","Windows 10","20","female","right","Fri Oct 11 2024 23:58:31 GMT+0200 (Mitteleuropäische Sommerzeit)","1","1","0","1728686612202"
"1534","j","SpeechGestureMatch","../RequiredFiles/videos/NeinDaumenrunter_m_no_gesture.mp4","Ist der Ball in der blauen Box?","Blue","Green","J","negation","na","speech","no","na","male","speech-gesture","1536","864","firefox","61.98","Windows 10","20","female","right","Fri Oct 11 2024 23:58:39 GMT+0200 (Mitteleuropäische Sommerzeit)","1","2","0","1728686612202"
"1239","f","SpeechGestureMatch","../RequiredFiles/videos/NeinDaumenrunter_f.mp4","Ist der Ball in der grünen Box?","Blue","Green","F","negation","match","speech","no","ThumbDown","female","speech-gesture","1536","864","firefox","61.98","Windows 10","20","female","right","Fri Oct 11 2024 23:58:45 GMT+0200 (Mitteleuropäische Sommerzeit)","1","3","0","1728686612202"
"1288","f","SpeechGestureMatch","../RequiredFiles/videos/NeinDaumenrunter_f.mp4","Ist der Ball in der grünen Box?","Green","Blue","J","negation","match","speech","no","ThumbDown","female","speech-gesture","1536","864","firefox","61.98","Windows 10","20","female","right","Fri Oct 11 2024 23:58:52 GMT+0200 (Mitteleuropäische Sommerzeit)","1","4","1","1728686612202"
"1174","j","SpeechGestureMatch","../RequiredFiles/videos/JaDaumenrunter_m.mp4","Ist der Ball in der grünen Box?","Blue","Green","J","affirmation","mismatch","speech","yes","ThumbDown","male","speech-gesture","1536","864","firefox","61.98","Windows 10","20","female","right","Fri Oct 11 2024 23:58:59 GMT+0200 (Mitteleuropäische Sommerzeit)","1","5","0","1728686612202"
"1194","f","SpeechGestureMatch","../RequiredFiles/videos/JaDaumenrunter_f.mp4","Ist der Ball in der blauen Box?","Blue","Green","F","affirmation","mismatch","speech","yes","ThumbDown","female","speech-gesture","1536","864","firefox","61.98","Windows 10","20","female","right","Fri Oct 11 2024 23:59:06 GMT+0200 (Mitteleuropäische Sommerzeit)","1","6","0","1728686612202"
"1149","j","SpeechGestureMatch","../RequiredFiles/videos/JaDaumenhoch_f.mp4","Ist der Ball in der grünen Box?","Blue","Green","J","affirmation","match","speech","yes","ThumbUp","female","speech-gesture","1536","864","firefox","61.98","Windows 10","20","female","right","Fri Oct 11 2024 23:59:12 GMT+0200 (Mitteleuropäische Sommerzeit)","1","7","0","1728686612202"
"1043","f","SpeechGestureMatch","../RequiredFiles/videos/NeinDaumenhoch_m.mp4","Ist der Ball in der blauen Box?","Green","Blue","F","negation","mismatch","speech","no","ThumbUp","male","speech-gesture","1536","864","firefox","61.98","Windows 10","20","female","right","Fri Oct 11 2024 23:59:19 GMT+0200 (Mitteleuropäische Sommerzeit)","1","8","0","1728686612202"
"1050","f","SpeechGestureMatch","../RequiredFiles/videos/NeinDaumenhoch_f.mp4","Ist der Ball in der grünen Box?","Blue","Green","F","negation","mismatch","speech","no","ThumbUp","female","speech-gesture","1536","864","firefox","61.98","Windows 10","20","female","right","Fri Oct 11 2024 23:59:26 GMT+0200 (Mitteleuropäische Sommerzeit)","1","9","0","1728686612202"
"1035","f","SpeechGestureMatch","../RequiredFiles/videos/JaDaumenhoch_f_no_gesture.mp4","Ist der Ball in der grünen Box?","Green","Blue","F","affirmation","na","speech","yes","na","female","speech-gesture","1536","864","firefox","61.98","Windows 10","20","female","right","Fri Oct 11 2024 23:59:32 GMT+0200 (Mitteleuropäische Sommerzeit)","1","10","0","1728686612202"
"1141","f","SpeechGestureMatch","../RequiredFiles/videos/JaDaumenhoch_f.mp4","Ist der Ball in der blauen Box?","Blue","Green","F","affirmation","match","speech","yes","ThumbUp","female","speech-gesture","1536","864","firefox","61.98","Windows 10","20","female","right","Fri Oct 11 2024 23:59:39 GMT+0200 (Mitteleuropäische Sommerzeit)","1","11","0","1728686612202"
"1122","j","SpeechGestureMatch","../RequiredFiles/videos/JaDaumenhoch_f.mp4","Ist der Ball in der blauen Box?","Green","Blue","J","affirmation","match","speech","yes","ThumbUp","female","speech-gesture","1536","864","firefox","61.98","Windows 10","20","female","right","Fri Oct 11 2024 23:59:45 GMT+0200 (Mitteleuropäische Sommerzeit)","1","12","0","1728686612202"
"1110","j","SpeechGestureMatch","../RequiredFiles/videos/JaDaumenrunter_f.mp4","Ist der Ball in der blauen Box?","Green","Blue","J","affirmation","mismatch","speech","yes","ThumbDown","female","speech-gesture","1536","864","firefox","61.98","Windows 10","20","female","right","Fri Oct 11 2024 23:59:52 GMT+0200 (Mitteleuropäische Sommerzeit)","1","13","0","1728686612202"
"1102","f","SpeechGestureMatch","../RequiredFiles/videos/JaDaumenhoch_f.mp4","Ist der Ball in der blauen Box?","Blue","Green","F","affirmation","match","speech","yes","ThumbUp","female","speech-gesture","1536","864","firefox","61.98","Windows 10","20","female","right","Fri Oct 11 2024 23:59:59 GMT+0200 (Mitteleuropäische Sommerzeit)","1","14","0","1728686612202"
"1043","j","SpeechGestureMatch","../RequiredFiles/videos/NeinDaumenhoch_m_no_gesture.mp4","Ist der Ball in der blauen Box?","Blue","Green","J","negation","na","speech","no","na","male","speech-gesture","1536","864","firefox","61.98","Windows 10","20","female","right","Sat Oct 12 2024 00:00:05 GMT+0200 (Mitteleuropäische Sommerzeit)","1","15","0","1728686612202"
"1113","f","SpeechGestureMatch","../RequiredFiles/videos/JaDaumenhoch_m.mp4","Ist der Ball in der blauen Box?","Green","Blue","J","affirmation","match","speech","yes","ThumbUp","male","speech-gesture","1536","864","firefox","61.98","Windows 10","20","female","right","Sat Oct 12 2024 00:00:12 GMT+0200 (Mitteleuropäische Sommerzeit)","1","16","1","1728686612202"
"1290","j","SpeechGestureMatch","../RequiredFiles/videos/JaDaumenrunter_m.mp4","Ist der Ball in der blauen Box?","Green","Blue","J","affirmation","mismatch","speech","yes","ThumbDown","male","speech-gesture","1536","864","firefox","61.98","Windows 10","20","female","right","Sat Oct 12 2024 00:00:19 GMT+0200 (Mitteleuropäische Sommerzeit)","1","17","0","1728686612202"
"1289","j","SpeechGestureMatch","../RequiredFiles/videos/JaDaumenrunter_f.mp4","Ist der Ball in der grünen Box?","Blue","Green","J","affirmation","mismatch","speech","yes","ThumbDown","female","speech-gesture","1536","864","firefox","61.98","Windows 10","20","female","right","Sat Oct 12 2024 00:00:26 GMT+0200 (Mitteleuropäische Sommerzeit)","1","18","0","1728686612202"
"1026","j","SpeechGestureMatch","../RequiredFiles/videos/NeinDaumenhoch_m_no_gesture.mp4","Ist der Ball in der grünen Box?","Green","Blue","J","negation","na","speech","no","na","male","speech-gesture","1536","864","firefox","61.98","Windows 10","20","female","right","Sat Oct 12 2024 00:00:32 GMT+0200 (Mitteleuropäische Sommerzeit)","1","19","0","1728686612202"
"1294","j","SpeechGestureMatch","../RequiredFiles/videos/JaDaumenhoch_m.mp4","Ist der Ball in der grünen Box?","Blue","Green","J","affirmation","match","speech","yes","ThumbUp","male","speech-gesture","1536","864","firefox","61.98","Windows 10","20","female","right","Sat Oct 12 2024 00:00:39 GMT+0200 (Mitteleuropäische Sommerzeit)","1","20","0","1728686612202"
"1398","f","SpeechGestureMatch","../RequiredFiles/videos/NeinDaumenhoch_f_no_gesture.mp4","Ist der Ball in der blauen Box?","Green","Blue","F","negation","na","speech","no","na","female","speech-gesture","1536","864","firefox","61.98","Windows 10","20","female","right","Sat Oct 12 2024 00:00:46 GMT+0200 (Mitteleuropäische Sommerzeit)","1","21","0","1728686612202"
"1084","j","SpeechGestureMatch","../RequiredFiles/videos/NeinDaumenhoch_f_no_gesture.mp4","Ist der Ball in der grünen Box?","Green","Blue","J","negation","na","speech","no","na","female","speech-gesture","1536","864","firefox","61.98","Windows 10","20","female","right","Sat Oct 12 2024 00:00:53 GMT+0200 (Mitteleuropäische Sommerzeit)","1","22","0","1728686612202"
"1354","j","SpeechGestureMatch","../RequiredFiles/videos/JaDaumenrunter_f.mp4","Ist der Ball in der grünen Box?","Blue","Green","J","affirmation","mismatch","speech","yes","ThumbDown","female","speech-gesture","1536","864","firefox","61.98","Windows 10","20","female","right","Sat Oct 12 2024 00:01:00 GMT+0200 (Mitteleuropäische Sommerzeit)","1","23","0","1728686612202"
"1190","f","SpeechGestureMatch","../RequiredFiles/videos/NeinDaumenhoch_f_no_gesture.mp4","Ist der Ball in der grünen Box?","Blue","Green","F","negation","na","speech","no","na","female","speech-gesture","1536","864","firefox","61.98","Windows 10","20","female","right","Sat Oct 12 2024 00:01:07 GMT+0200 (Mitteleuropäische Sommerzeit)","1","24","0","1728686612202"
"1521","f","SpeechGestureMatch","../RequiredFiles/videos/NeinDaumenhoch_m.mp4","Ist der Ball in der grünen Box?","Green","Blue","J","negation","mismatch","speech","no","ThumbUp","male","speech-gesture","1536","864","firefox","61.98","Windows 10","20","female","right","Sat Oct 12 2024 00:01:14 GMT+0200 (Mitteleuropäische Sommerzeit)","1","25","1","1728686612202"
"1268","f","SpeechGestureMatch","../RequiredFiles/videos/JaDaumenhoch_m.mp4","Ist der Ball in der grünen Box?","Green","Blue","F","affirmation","match","speech","yes","ThumbUp","male","speech-gesture","1536","864","firefox","61.98","Windows 10","20","female","right","Sat Oct 12 2024 00:01:21 GMT+0200 (Mitteleuropäische Sommerzeit)","1","26","0","1728686612202"
"1245","f","SpeechGestureMatch","../RequiredFiles/videos/JaDaumenrunter_f_no_gesture.mp4","Ist der Ball in der blauen Box?","Blue","Green","F","affirmation","na","speech","yes","na","female","speech-gesture","1536","864","firefox","61.98","Windows 10","20","female","right","Sat Oct 12 2024 00:01:27 GMT+0200 (Mitteleuropäische Sommerzeit)","1","27","0","1728686612202"
"1161","f","SpeechGestureMatch","../RequiredFiles/videos/NeinDaumenrunter_f.mp4","Ist der Ball in der grünen Box?","Blue","Green","F","negation","match","speech","no","ThumbDown","female","speech-gesture","1536","864","firefox","61.98","Windows 10","20","female","right","Sat Oct 12 2024 00:01:34 GMT+0200 (Mitteleuropäische Sommerzeit)","1","28","0","1728686612202"
"1025","f","SpeechGestureMatch","../RequiredFiles/videos/JaDaumenrunter_m.mp4","Ist der Ball in der blauen Box?","Blue","Green","F","affirmation","mismatch","speech","yes","ThumbDown","male","speech-gesture","1536","864","firefox","61.98","Windows 10","20","female","right","Sat Oct 12 2024 00:01:41 GMT+0200 (Mitteleuropäische Sommerzeit)","1","29","0","1728686612202"
"1212","f","SpeechGestureMatch","../RequiredFiles/videos/NeinDaumenrunter_f.mp4","Ist der Ball in der blauen Box?","Green","Blue","F","negation","match","speech","no","ThumbDown","female","speech-gesture","1536","864","firefox","61.98","Windows 10","20","female","right","Sat Oct 12 2024 00:01:48 GMT+0200 (Mitteleuropäische Sommerzeit)","1","30","0","1728686612202"
"1084","f","SpeechGestureMatch","../RequiredFiles/videos/NeinDaumenrunter_m_no_gesture.mp4","Ist der Ball in der blauen Box?","Green","Blue","F","negation","na","speech","no","na","male","speech-gesture","1536","864","firefox","61.98","Windows 10","20","female","right","Sat Oct 12 2024 00:01:54 GMT+0200 (Mitteleuropäische Sommerzeit)","1","31","0","1728686612202"
"1008","j","SpeechGestureMatch","../RequiredFiles/videos/JaDaumenhoch_m.mp4","Ist der Ball in der blauen Box?","Green","Blue","J","affirmation","match","speech","yes","ThumbUp","male","speech-gesture","1536","864","firefox","61.98","Windows 10","20","female","right","Sat Oct 12 2024 00:02:01 GMT+0200 (Mitteleuropäische Sommerzeit)","1","32","0","1728686612202"
"1075","f","SpeechGestureMatch","../RequiredFiles/videos/JaDaumenrunter_m_no_gesture.mp4","Ist der Ball in der blauen Box?","Blue","Green","F","affirmation","na","speech","yes","na","male","speech-gesture","1536","864","firefox","61.98","Windows 10","20","female","right","Sat Oct 12 2024 00:02:07 GMT+0200 (Mitteleuropäische Sommerzeit)","1","33","0","1728686612202"
"1145","f","SpeechGestureMatch","../RequiredFiles/videos/NeinDaumenrunter_m.mp4","Ist der Ball in der grünen Box?","Blue","Green","F","negation","match","speech","no","ThumbDown","male","speech-gesture","1536","864","firefox","61.98","Windows 10","20","female","right","Sat Oct 12 2024 00:02:14 GMT+0200 (Mitteleuropäische Sommerzeit)","1","34","0","1728686612202"
"1039","j","SpeechGestureMatch","../RequiredFiles/videos/NeinDaumenhoch_f.mp4","Ist der Ball in der grünen Box?","Green","Blue","J","negation","mismatch","speech","no","ThumbUp","female","speech-gesture","1536","864","firefox","61.98","Windows 10","20","female","right","Sat Oct 12 2024 00:02:21 GMT+0200 (Mitteleuropäische Sommerzeit)","1","35","0","1728686612202"
"1273","j","SpeechGestureMatch","../RequiredFiles/videos/NeinDaumenhoch_f.mp4","Ist der Ball in der blauen Box?","Blue","Green","J","negation","mismatch","speech","no","ThumbUp","female","speech-gesture","1536","864","firefox","61.98","Windows 10","20","female","right","Sat Oct 12 2024 00:02:27 GMT+0200 (Mitteleuropäische Sommerzeit)","1","36","0","1728686612202"
"1217","j","SpeechGestureMatch","../RequiredFiles/videos/NeinDaumenrunter_f_no_gesture.mp4","Ist der Ball in der blauen Box?","Blue","Green","J","negation","na","speech","no","na","female","speech-gesture","1536","864","firefox","61.98","Windows 10","20","female","right","Sat Oct 12 2024 00:02:34 GMT+0200 (Mitteleuropäische Sommerzeit)","1","37","0","1728686612202"
"1130","f","SpeechGestureMatch","../RequiredFiles/videos/JaDaumenhoch_f_no_gesture.mp4","Ist der Ball in der blauen Box?","Green","Blue","J","affirmation","na","speech","yes","na","female","speech-gesture","1536","864","firefox","61.98","Windows 10","20","female","right","Sat Oct 12 2024 00:02:41 GMT+0200 (Mitteleuropäische Sommerzeit)","1","38","1","1728686612202"
"1199","f","SpeechGestureMatch","../RequiredFiles/videos/JaDaumenrunter_f.mp4","Ist der Ball in der grünen Box?","Green","Blue","F","affirmation","mismatch","speech","yes","ThumbDown","female","speech-gesture","1536","864","firefox","61.98","Windows 10","20","female","right","Sat Oct 12 2024 00:02:48 GMT+0200 (Mitteleuropäische Sommerzeit)","1","39","0","1728686612202"
"1112","j","SpeechGestureMatch","../RequiredFiles/videos/JaDaumenhoch_m.mp4","Ist der Ball in der grünen Box?","Blue","Green","J","affirmation","match","speech","yes","ThumbUp","male","speech-gesture","1536","864","firefox","61.98","Windows 10","20","female","right","Sat Oct 12 2024 00:02:55 GMT+0200 (Mitteleuropäische Sommerzeit)","1","40","0","1728686612202"
"1161","j","SpeechGestureMatch","../RequiredFiles/videos/JaDaumenrunter_f.mp4","Ist der Ball in der blauen Box?","Green","Blue","J","affirmation","mismatch","speech","yes","ThumbDown","female","speech-gesture","1536","864","firefox","61.98","Windows 10","20","female","right","Sat Oct 12 2024 00:03:01 GMT+0200 (Mitteleuropäische Sommerzeit)","1","41","0","1728686612202"
"1170","j","SpeechGestureMatch","../RequiredFiles/videos/NeinDaumenrunter_f.mp4","Ist der Ball in der blauen Box?","Blue","Green","J","negation","match","speech","no","ThumbDown","female","speech-gesture","1536","864","firefox","61.98","Windows 10","20","female","right","Sat Oct 12 2024 00:03:08 GMT+0200 (Mitteleuropäische Sommerzeit)","1","42","0","1728686612202"
"1120","f","SpeechGestureMatch","../RequiredFiles/videos/JaDaumenrunter_m.mp4","Ist der Ball in der blauen Box?","Blue","Green","F","affirmation","mismatch","speech","yes","ThumbDown","male","speech-gesture","1536","864","firefox","61.98","Windows 10","20","female","right","Sat Oct 12 2024 00:03:15 GMT+0200 (Mitteleuropäische Sommerzeit)","1","43","0","1728686612202"
"1131","f","SpeechGestureMatch","../RequiredFiles/videos/JaDaumenhoch_f.mp4","Ist der Ball in der grünen Box?","Green","Blue","F","affirmation","match","speech","yes","ThumbUp","female","speech-gesture","1536","864","firefox","61.98","Windows 10","20","female","right","Sat Oct 12 2024 00:03:21 GMT+0200 (Mitteleuropäische Sommerzeit)","1","44","0","1728686612202"
"1191","f","SpeechGestureMatch","../RequiredFiles/videos/NeinDaumenrunter_f.mp4","Ist der Ball in der blauen Box?","Green","Blue","F","negation","match","speech","no","ThumbDown","female","speech-gesture","1536","864","firefox","61.98","Windows 10","20","female","right","Sat Oct 12 2024 00:03:28 GMT+0200 (Mitteleuropäische Sommerzeit)","1","45","0","1728686612202"
"990","j","SpeechGestureMatch","../RequiredFiles/videos/NeinDaumenrunter_m.mp4","Ist der Ball in der grünen Box?","Green","Blue","J","negation","match","speech","no","ThumbDown","male","speech-gesture","1536","864","firefox","61.98","Windows 10","20","female","right","Sat Oct 12 2024 00:03:35 GMT+0200 (Mitteleuropäische Sommerzeit)","1","46","0","1728686612202"
"1274","f","SpeechGestureMatch","../RequiredFiles/videos/NeinDaumenrunter_m.mp4","Ist der Ball in der grünen Box?","Green","Blue","J","negation","match","speech","no","ThumbDown","male","speech-gesture","1536","864","firefox","61.98","Windows 10","20","female","right","Sat Oct 12 2024 00:03:41 GMT+0200 (Mitteleuropäische Sommerzeit)","1","47","1","1728686612202"
"984","j","SpeechGestureMatch","../RequiredFiles/videos/JaDaumenhoch_f.mp4","Ist der Ball in der grünen Box?","Blue","Green","J","affirmation","match","speech","yes","ThumbUp","female","speech-gesture","1536","864","firefox","61.98","Windows 10","20","female","right","Sat Oct 12 2024 00:03:48 GMT+0200 (Mitteleuropäische Sommerzeit)","1","48","0","1728686612202"
"1033","j","SpeechGestureMatch","../RequiredFiles/videos/NeinDaumenhoch_f_no_gesture.mp4","Ist der Ball in der blauen Box?","Blue","Green","J","negation","na","speech","no","na","female","speech-gesture","1536","864","firefox","61.98","Windows 10","20","female","right","Sat Oct 12 2024 00:03:55 GMT+0200 (Mitteleuropäische Sommerzeit)","1","49","0","1728686612202"
"1554","f","SpeechGestureMatch","../RequiredFiles/videos/JaDaumenhoch_m_no_gesture.mp4","Ist der Ball in der blauen Box?","Blue","Green","F","affirmation","na","speech","yes","na","male","speech-gesture","1536","864","firefox","61.98","Windows 10","20","female","right","Sat Oct 12 2024 00:04:02 GMT+0200 (Mitteleuropäische Sommerzeit)","1","50","0","1728686612202"
"1065","j","SpeechGestureMatch","../RequiredFiles/videos/NeinDaumenhoch_f.mp4","Ist der Ball in der grünen Box?","Green","Blue","J","negation","mismatch","speech","no","ThumbUp","female","speech-gesture","1536","864","firefox","61.98","Windows 10","20","female","right","Sat Oct 12 2024 00:04:08 GMT+0200 (Mitteleuropäische Sommerzeit)","1","51","0","1728686612202"
"1141","f","SpeechGestureMatch","../RequiredFiles/videos/NeinDaumenrunter_m.mp4","Ist der Ball in der grünen Box?","Blue","Green","F","negation","match","speech","no","ThumbDown","male","speech-gesture","1536","864","firefox","61.98","Windows 10","20","female","right","Sat Oct 12 2024 00:04:15 GMT+0200 (Mitteleuropäische Sommerzeit)","1","52","0","1728686612202"
"1184","f","SpeechGestureMatch","../RequiredFiles/videos/JaDaumenrunter_f_no_gesture.mp4","Ist der Ball in der grünen Box?","Green","Blue","F","affirmation","na","speech","yes","na","female","speech-gesture","1536","864","firefox","61.98","Windows 10","20","female","right","Sat Oct 12 2024 00:04:22 GMT+0200 (Mitteleuropäische Sommerzeit)","1","53","0","1728686612202"
"1167","f","SpeechGestureMatch","../RequiredFiles/videos/NeinDaumenhoch_m_no_gesture.mp4","Ist der Ball in der grünen Box?","Blue","Green","F","negation","na","speech","no","na","male","speech-gesture","1536","864","firefox","61.98","Windows 10","20","female","right","Sat Oct 12 2024 00:04:28 GMT+0200 (Mitteleuropäische Sommerzeit)","1","54","0","1728686612202"
"1122","j","SpeechGestureMatch","../RequiredFiles/videos/NeinDaumenhoch_m.mp4","Ist der Ball in der grünen Box?","Green","Blue","J","negation","mismatch","speech","no","ThumbUp","male","speech-gesture","1536","864","firefox","61.98","Windows 10","20","female","right","Sat Oct 12 2024 00:04:35 GMT+0200 (Mitteleuropäische Sommerzeit)","1","55","0","1728686612202"
"1024","f","SpeechGestureMatch","../RequiredFiles/videos/JaDaumenrunter_m_no_gesture.mp4","Ist der Ball in der blauen Box?","Green","Blue","J","affirmation","na","speech","yes","na","male","speech-gesture","1536","864","firefox","61.98","Windows 10","20","female","right","Sat Oct 12 2024 00:04:42 GMT+0200 (Mitteleuropäische Sommerzeit)","1","56","1","1728686612202"
"1348","f","SpeechGestureMatch","../RequiredFiles/videos/JaDaumenrunter_m_no_gesture.mp4","Ist der Ball in der grünen Box?","Green","Blue","F","affirmation","na","speech","yes","na","male","speech-gesture","1536","864","firefox","61.98","Windows 10","20","female","right","Sat Oct 12 2024 00:04:49 GMT+0200 (Mitteleuropäische Sommerzeit)","1","57","0","1728686612202"
"1164","f","SpeechGestureMatch","../RequiredFiles/videos/NeinDaumenhoch_f.mp4","Ist der Ball in der blauen Box?","Green","Blue","F","negation","mismatch","speech","no","ThumbUp","female","speech-gesture","1536","864","firefox","61.98","Windows 10","20","female","right","Sat Oct 12 2024 00:04:56 GMT+0200 (Mitteleuropäische Sommerzeit)","1","58","0","1728686612202"
"1071","j","SpeechGestureMatch","../RequiredFiles/videos/NeinDaumenrunter_m_no_gesture.mp4","Ist der Ball in der grünen Box?","Green","Blue","J","negation","na","speech","no","na","male","speech-gesture","1536","864","firefox","61.98","Windows 10","20","female","right","Sat Oct 12 2024 00:05:02 GMT+0200 (Mitteleuropäische Sommerzeit)","1","59","0","1728686612202"
"1186","f","SpeechGestureMatch","../RequiredFiles/videos/NeinDaumenhoch_f.mp4","Ist der Ball in der grünen Box?","Blue","Green","F","negation","mismatch","speech","no","ThumbUp","female","speech-gesture","1536","864","firefox","61.98","Windows 10","20","female","right","Sat Oct 12 2024 00:05:09 GMT+0200 (Mitteleuropäische Sommerzeit)","1","60","0","1728686612202"
"1074","f","SpeechGestureMatch","../RequiredFiles/videos/NeinDaumenrunter_f_no_gesture.mp4","Ist der Ball in der grünen Box?","Blue","Green","F","negation","na","speech","no","na","female","speech-gesture","1536","864","firefox","61.98","Windows 10","20","female","right","Sat Oct 12 2024 00:05:15 GMT+0200 (Mitteleuropäische Sommerzeit)","1","61","0","1728686612202"
"1029","f","SpeechGestureMatch","../RequiredFiles/videos/NeinDaumenhoch_f.mp4","Ist der Ball in der blauen Box?","Green","Blue","F","negation","mismatch","speech","no","ThumbUp","female","speech-gesture","1536","864","firefox","61.98","Windows 10","20","female","right","Sat Oct 12 2024 00:05:22 GMT+0200 (Mitteleuropäische Sommerzeit)","1","62","0","1728686612202"
"1237","f","SpeechGestureMatch","../RequiredFiles/videos/NeinDaumenrunter_m.mp4","Ist der Ball in der blauen Box?","Green","Blue","F","negation","match","speech","no","ThumbDown","male","speech-gesture","1536","864","firefox","61.98","Windows 10","20","female","right","Sat Oct 12 2024 00:05:29 GMT+0200 (Mitteleuropäische Sommerzeit)","1","63","0","1728686612202"
"1088","j","SpeechGestureMatch","../RequiredFiles/videos/NeinDaumenrunter_m.mp4","Ist der Ball in der blauen Box?","Blue","Green","J","negation","match","speech","no","ThumbDown","male","speech-gesture","1536","864","firefox","61.98","Windows 10","20","female","right","Sat Oct 12 2024 00:05:35 GMT+0200 (Mitteleuropäische Sommerzeit)","1","64","0","1728686612202"
"1230","f","SpeechGestureMatch","../RequiredFiles/videos/NeinDaumenhoch_m.mp4","Ist der Ball in der blauen Box?","Green","Blue","F","negation","mismatch","speech","no","ThumbUp","male","speech-gesture","1536","864","firefox","61.98","Windows 10","20","female","right","Sat Oct 12 2024 00:05:42 GMT+0200 (Mitteleuropäische Sommerzeit)","1","65","0","1728686612202"
"1313","f","SpeechGestureMatch","../RequiredFiles/videos/JaDaumenrunter_f.mp4","Ist der Ball in der blauen Box?","Blue","Green","F","affirmation","mismatch","speech","yes","ThumbDown","female","speech-gesture","1536","864","firefox","61.98","Windows 10","20","female","right","Sat Oct 12 2024 00:05:49 GMT+0200 (Mitteleuropäische Sommerzeit)","1","66","0","1728686612202"
"1228","j","SpeechGestureMatch","../RequiredFiles/videos/JaDaumenhoch_f.mp4","Ist der Ball in der blauen Box?","Green","Blue","J","affirmation","match","speech","yes","ThumbUp","female","speech-gesture","1536","864","firefox","61.98","Windows 10","20","female","right","Sat Oct 12 2024 00:05:56 GMT+0200 (Mitteleuropäische Sommerzeit)","1","67","0","1728686612202"
"1147","j","SpeechGestureMatch","../RequiredFiles/videos/NeinDaumenrunter_f.mp4","Ist der Ball in der blauen Box?","Blue","Green","J","negation","match","speech","no","ThumbDown","female","speech-gesture","1536","864","firefox","61.98","Windows 10","20","female","right","Sat Oct 12 2024 00:06:03 GMT+0200 (Mitteleuropäische Sommerzeit)","1","68","0","1728686612202"
"1835","f","SpeechGestureMatch","../RequiredFiles/videos/NeinDaumenhoch_m.mp4","Ist der Ball in der grünen Box?","Blue","Green","F","negation","mismatch","speech","no","ThumbUp","male","speech-gesture","1536","864","firefox","61.98","Windows 10","20","female","right","Sat Oct 12 2024 00:06:10 GMT+0200 (Mitteleuropäische Sommerzeit)","1","69","0","1728686612202"
"1479","j","SpeechGestureMatch","../RequiredFiles/videos/NeinDaumenrunter_m.mp4","Ist der Ball in der blauen Box?","Blue","Green","J","negation","match","speech","no","ThumbDown","male","speech-gesture","1536","864","firefox","61.98","Windows 10","20","female","right","Sat Oct 12 2024 00:06:17 GMT+0200 (Mitteleuropäische Sommerzeit)","1","70","0","1728686612202"
"1141","j","SpeechGestureMatch","../RequiredFiles/videos/NeinDaumenrunter_f.mp4","Ist der Ball in der grünen Box?","Green","Blue","J","negation","match","speech","no","ThumbDown","female","speech-gesture","1536","864","firefox","61.98","Windows 10","20","female","right","Sat Oct 12 2024 00:06:24 GMT+0200 (Mitteleuropäische Sommerzeit)","1","71","0","1728686612202"
"1522","f","SpeechGestureMatch","../RequiredFiles/videos/NeinDaumenrunter_m.mp4","Ist der Ball in der blauen Box?","Green","Blue","F","negation","match","speech","no","ThumbDown","male","speech-gesture","1536","864","firefox","61.98","Windows 10","20","female","right","Sat Oct 12 2024 00:06:31 GMT+0200 (Mitteleuropäische Sommerzeit)","1","72","0","1728686612202"
"1363","j","SpeechGestureMatch","../RequiredFiles/videos/NeinDaumenrunter_f_no_gesture.mp4","Ist der Ball in der grünen Box?","Green","Blue","J","negation","na","speech","no","na","female","speech-gesture","1536","864","firefox","61.98","Windows 10","20","female","right","Sat Oct 12 2024 00:06:38 GMT+0200 (Mitteleuropäische Sommerzeit)","1","73","0","1728686612202"
"1132","j","SpeechGestureMatch","../RequiredFiles/videos/NeinDaumenhoch_f.mp4","Ist der Ball in der blauen Box?","Blue","Green","J","negation","mismatch","speech","no","ThumbUp","female","speech-gesture","1536","864","firefox","61.98","Windows 10","20","female","right","Sat Oct 12 2024 00:06:45 GMT+0200 (Mitteleuropäische Sommerzeit)","1","74","0","1728686612202"
"1605","f","SpeechGestureMatch","../RequiredFiles/videos/JaDaumenhoch_f.mp4","Ist der Ball in der grünen Box?","Green","Blue","F","affirmation","match","speech","yes","ThumbUp","female","speech-gesture","1536","864","firefox","61.98","Windows 10","20","female","right","Sat Oct 12 2024 00:06:52 GMT+0200 (Mitteleuropäische Sommerzeit)","1","75","0","1728686612202"
"1458","f","SpeechGestureMatch","../RequiredFiles/videos/JaDaumenrunter_m.mp4","Ist der Ball in der grünen Box?","Green","Blue","F","affirmation","mismatch","speech","yes","ThumbDown","male","speech-gesture","1536","864","firefox","61.98","Windows 10","20","female","right","Sat Oct 12 2024 00:06:59 GMT+0200 (Mitteleuropäische Sommerzeit)","1","76","0","1728686612202"
"1137","j","SpeechGestureMatch","../RequiredFiles/videos/JaDaumenrunter_m.mp4","Ist der Ball in der blauen Box?","Green","Blue","J","affirmation","mismatch","speech","yes","ThumbDown","male","speech-gesture","1536","864","firefox","61.98","Windows 10","20","female","right","Sat Oct 12 2024 00:07:05 GMT+0200 (Mitteleuropäische Sommerzeit)","1","77","0","1728686612202"
"1071","f","SpeechGestureMatch","../RequiredFiles/videos/JaDaumenhoch_m.mp4","Ist der Ball in der blauen Box?","Blue","Green","F","affirmation","match","speech","yes","ThumbUp","male","speech-gesture","1536","864","firefox","61.98","Windows 10","20","female","right","Sat Oct 12 2024 00:07:12 GMT+0200 (Mitteleuropäische Sommerzeit)","1","78","0","1728686612202"
"1305","f","SpeechGestureMatch","../RequiredFiles/videos/JaDaumenhoch_m_no_gesture.mp4","Ist der Ball in der grünen Box?","Green","Blue","F","affirmation","na","speech","yes","na","male","speech-gesture","1536","864","firefox","61.98","Windows 10","20","female","right","Sat Oct 12 2024 00:07:19 GMT+0200 (Mitteleuropäische Sommerzeit)","1","79","0","1728686612202"
"1157","j","SpeechGestureMatch","../RequiredFiles/videos/JaDaumenrunter_f_no_gesture.mp4","Ist der Ball in der blauen Box?","Green","Blue","J","affirmation","na","speech","yes","na","female","speech-gesture","1536","864","firefox","61.98","Windows 10","20","female","right","Sat Oct 12 2024 00:07:26 GMT+0200 (Mitteleuropäische Sommerzeit)","1","80","0","1728686612202"
"1013","f","SpeechGestureMatch","../RequiredFiles/videos/JaDaumenrunter_m.mp4","Ist der Ball in der grünen Box?","Green","Blue","F","affirmation","mismatch","speech","yes","ThumbDown","male","speech-gesture","1536","864","firefox","61.98","Windows 10","20","female","right","Sat Oct 12 2024 00:07:32 GMT+0200 (Mitteleuropäische Sommerzeit)","1","81","0","1728686612202"
"181","j","SpeechGestureMatch","../RequiredFiles/videos/NeinDaumenrunter_m_no_gesture.mp4","Ist der Ball in der grünen Box?","Blue","Green","F","negation","na","speech","no","na","male","speech-gesture","1536","864","firefox","61.98","Windows 10","20","female","right","Sat Oct 12 2024 00:07:38 GMT+0200 (Mitteleuropäische Sommerzeit)","1","82","1","1728686612202"
"1475","j","SpeechGestureMatch","../RequiredFiles/videos/JaDaumenrunter_m.mp4","Ist der Ball in der grünen Box?","Blue","Green","J","affirmation","mismatch","speech","yes","ThumbDown","male","speech-gesture","1536","864","firefox","61.98","Windows 10","20","female","right","Sat Oct 12 2024 00:07:45 GMT+0200 (Mitteleuropäische Sommerzeit)","1","83","0","1728686612202"
"1256","j","SpeechGestureMatch","../RequiredFiles/videos/JaDaumenhoch_f_no_gesture.mp4","Ist der Ball in der grünen Box?","Blue","Green","J","affirmation","na","speech","yes","na","female","speech-gesture","1536","864","firefox","61.98","Windows 10","20","female","right","Sat Oct 12 2024 00:07:52 GMT+0200 (Mitteleuropäische Sommerzeit)","1","84","0","1728686612202"
"1345","j","SpeechGestureMatch","../RequiredFiles/videos/NeinDaumenhoch_m.mp4","Ist der Ball in der blauen Box?","Blue","Green","J","negation","mismatch","speech","no","ThumbUp","male","speech-gesture","1536","864","firefox","61.98","Windows 10","20","female","right","Sat Oct 12 2024 00:07:59 GMT+0200 (Mitteleuropäische Sommerzeit)","1","85","0","1728686612202"
"1075","f","SpeechGestureMatch","../RequiredFiles/videos/NeinDaumenhoch_m.mp4","Ist der Ball in der grünen Box?","Blue","Green","F","negation","mismatch","speech","no","ThumbUp","male","speech-gesture","1536","864","firefox","61.98","Windows 10","20","female","right","Sat Oct 12 2024 00:08:05 GMT+0200 (Mitteleuropäische Sommerzeit)","1","86","0","1728686612202"
"1067","f","SpeechGestureMatch","../RequiredFiles/videos/JaDaumenhoch_f_no_gesture.mp4","Ist der Ball in der blauen Box?","Blue","Green","F","affirmation","na","speech","yes","na","female","speech-gesture","1536","864","firefox","61.98","Windows 10","20","female","right","Sat Oct 12 2024 00:08:12 GMT+0200 (Mitteleuropäische Sommerzeit)","1","87","0","1728686612202"
"1046","f","SpeechGestureMatch","../RequiredFiles/videos/JaDaumenhoch_m.mp4","Ist der Ball in der grünen Box?","Green","Blue","F","affirmation","match","speech","yes","ThumbUp","male","speech-gesture","1536","864","firefox","61.98","Windows 10","20","female","right","Sat Oct 12 2024 00:08:19 GMT+0200 (Mitteleuropäische Sommerzeit)","1","88","0","1728686612202"
"1693","j","SpeechGestureMatch","../RequiredFiles/videos/JaDaumenrunter_f_no_gesture.mp4","Ist der Ball in der grünen Box?","Blue","Green","J","affirmation","na","speech","yes","na","female","speech-gesture","1536","864","firefox","61.98","Windows 10","20","female","right","Sat Oct 12 2024 00:08:26 GMT+0200 (Mitteleuropäische Sommerzeit)","1","89","0","1728686612202"
"1078","j","SpeechGestureMatch","../RequiredFiles/videos/JaDaumenhoch_m_no_gesture.mp4","Ist der Ball in der grünen Box?","Blue","Green","J","affirmation","na","speech","yes","na","male","speech-gesture","1536","864","firefox","61.98","Windows 10","20","female","right","Sat Oct 12 2024 00:08:33 GMT+0200 (Mitteleuropäische Sommerzeit)","1","90","0","1728686612202"
"1327","j","SpeechGestureMatch","../RequiredFiles/videos/NeinDaumenhoch_m.mp4","Ist der Ball in der blauen Box?","Blue","Green","J","negation","mismatch","speech","no","ThumbUp","male","speech-gesture","1536","864","firefox","61.98","Windows 10","20","female","right","Sat Oct 12 2024 00:08:40 GMT+0200 (Mitteleuropäische Sommerzeit)","1","91","0","1728686612202"
"1064","f","SpeechGestureMatch","../RequiredFiles/videos/JaDaumenrunter_f.mp4","Ist der Ball in der grünen Box?","Green","Blue","F","affirmation","mismatch","speech","yes","ThumbDown","female","speech-gesture","1536","864","firefox","61.98","Windows 10","20","female","right","Sat Oct 12 2024 00:08:46 GMT+0200 (Mitteleuropäische Sommerzeit)","1","92","0","1728686612202"
"1215","j","SpeechGestureMatch","../RequiredFiles/videos/JaDaumenhoch_m_no_gesture.mp4","Ist der Ball in der blauen Box?","Green","Blue","J","affirmation","na","speech","yes","na","male","speech-gesture","1536","864","firefox","61.98","Windows 10","20","female","right","Sat Oct 12 2024 00:08:53 GMT+0200 (Mitteleuropäische Sommerzeit)","1","93","0","1728686612202"
"1054","f","SpeechGestureMatch","../RequiredFiles/videos/JaDaumenhoch_m.mp4","Ist der Ball in der blauen Box?","Blue","Green","F","affirmation","match","speech","yes","ThumbUp","male","speech-gesture","1536","864","firefox","61.98","Windows 10","20","female","right","Sat Oct 12 2024 00:09:00 GMT+0200 (Mitteleuropäische Sommerzeit)","1","94","0","1728686612202"
"1055","j","SpeechGestureMatch","../RequiredFiles/videos/JaDaumenrunter_m_no_gesture.mp4","Ist der Ball in der grünen Box?","Blue","Green","J","affirmation","na","speech","yes","na","male","speech-gesture","1536","864","firefox","61.98","Windows 10","20","female","right","Sat Oct 12 2024 00:09:06 GMT+0200 (Mitteleuropäische Sommerzeit)","1","95","0","1728686612202"
"1166","f","SpeechGestureMatch","../RequiredFiles/videos/NeinDaumenrunter_f_no_gesture.mp4","Ist der Ball in der blauen Box?","Green","Blue","F","negation","na","speech","no","na","female","speech-gesture","1536","864","firefox","61.98","Windows 10","20","female","right","Sat Oct 12 2024 00:09:13 GMT+0200 (Mitteleuropäische Sommerzeit)","1","96","0","1728686612202"
"1444","f","SpeechGestureMatch","../RequiredFiles/videos/JaDaumenhoch_f_no_gesture.mp4","Ist der Ball in der blauen Box?","Blue","Green","F","affirmation","na","speech","yes","na","female","speech-gesture","1536","864","firefox","61.98","Windows 10","20","female","right","Sat Oct 12 2024 00:09:35 GMT+0200 (Mitteleuropäische Sommerzeit)","2","1","0","1728686612202"
"1062","f","SpeechGestureMatch","../RequiredFiles/videos/JaDaumenrunter_m_no_gesture.mp4","Ist der Ball in der blauen Box?","Blue","Green","F","affirmation","na","speech","yes","na","male","speech-gesture","1536","864","firefox","61.98","Windows 10","20","female","right","Sat Oct 12 2024 00:09:42 GMT+0200 (Mitteleuropäische Sommerzeit)","2","2","0","1728686612202"
"1042","f","SpeechGestureMatch","../RequiredFiles/videos/NeinDaumenhoch_f_no_gesture.mp4","Ist der Ball in der blauen Box?","Green","Blue","F","negation","na","speech","no","na","female","speech-gesture","1536","864","firefox","61.98","Windows 10","20","female","right","Sat Oct 12 2024 00:09:49 GMT+0200 (Mitteleuropäische Sommerzeit)","2","3","0","1728686612202"
"1288","f","SpeechGestureMatch","../RequiredFiles/videos/JaDaumenrunter_f_no_gesture.mp4","Ist der Ball in der blauen Box?","Blue","Green","F","affirmation","na","speech","yes","na","female","speech-gesture","1536","864","firefox","61.98","Windows 10","20","female","right","Sat Oct 12 2024 00:09:55 GMT+0200 (Mitteleuropäische Sommerzeit)","2","4","0","1728686612202"
"1059","j","SpeechGestureMatch","../RequiredFiles/videos/JaDaumenhoch_f.mp4","Ist der Ball in der grünen Box?","Blue","Green","J","affirmation","match","speech","yes","ThumbUp","female","speech-gesture","1536","864","firefox","61.98","Windows 10","20","female","right","Sat Oct 12 2024 00:10:02 GMT+0200 (Mitteleuropäische Sommerzeit)","2","5","0","1728686612202"
"1084","j","SpeechGestureMatch","../RequiredFiles/videos/JaDaumenrunter_f.mp4","Ist der Ball in der blauen Box?","Green","Blue","J","affirmation","mismatch","speech","yes","ThumbDown","female","speech-gesture","1536","864","firefox","61.98","Windows 10","20","female","right","Sat Oct 12 2024 00:10:09 GMT+0200 (Mitteleuropäische Sommerzeit)","2","6","0","1728686612202"
"1183","j","SpeechGestureMatch","../RequiredFiles/videos/NeinDaumenrunter_f.mp4","Ist der Ball in der grünen Box?","Green","Blue","J","negation","match","speech","no","ThumbDown","female","speech-gesture","1536","864","firefox","61.98","Windows 10","20","female","right","Sat Oct 12 2024 00:10:15 GMT+0200 (Mitteleuropäische Sommerzeit)","2","7","0","1728686612202"
"1138","f","SpeechGestureMatch","../RequiredFiles/videos/NeinDaumenrunter_f.mp4","Ist der Ball in der grünen Box?","Blue","Green","F","negation","match","speech","no","ThumbDown","female","speech-gesture","1536","864","firefox","61.98","Windows 10","20","female","right","Sat Oct 12 2024 00:10:22 GMT+0200 (Mitteleuropäische Sommerzeit)","2","8","0","1728686612202"
"1096","f","SpeechGestureMatch","../RequiredFiles/videos/NeinDaumenrunter_f_no_gesture.mp4","Ist der Ball in der blauen Box?","Green","Blue","F","negation","na","speech","no","na","female","speech-gesture","1536","864","firefox","61.98","Windows 10","20","female","right","Sat Oct 12 2024 00:10:29 GMT+0200 (Mitteleuropäische Sommerzeit)","2","9","0","1728686612202"
"1149","f","SpeechGestureMatch","../RequiredFiles/videos/JaDaumenrunter_f.mp4","Ist der Ball in der blauen Box?","Blue","Green","F","affirmation","mismatch","speech","yes","ThumbDown","female","speech-gesture","1536","864","firefox","61.98","Windows 10","20","female","right","Sat Oct 12 2024 00:10:35 GMT+0200 (Mitteleuropäische Sommerzeit)","2","10","0","1728686612202"
"1386","f","SpeechGestureMatch","../RequiredFiles/videos/JaDaumenrunter_m.mp4","Ist der Ball in der blauen Box?","Blue","Green","F","affirmation","mismatch","speech","yes","ThumbDown","male","speech-gesture","1536","864","firefox","61.98","Windows 10","20","female","right","Sat Oct 12 2024 00:10:42 GMT+0200 (Mitteleuropäische Sommerzeit)","2","11","0","1728686612202"
"1329","j","SpeechGestureMatch","../RequiredFiles/videos/JaDaumenhoch_f.mp4","Ist der Ball in der blauen Box?","Green","Blue","J","affirmation","match","speech","yes","ThumbUp","female","speech-gesture","1536","864","firefox","61.98","Windows 10","20","female","right","Sat Oct 12 2024 00:10:49 GMT+0200 (Mitteleuropäische Sommerzeit)","2","12","0","1728686612202"
"934","j","SpeechGestureMatch","../RequiredFiles/videos/JaDaumenhoch_m.mp4","Ist der Ball in der blauen Box?","Green","Blue","J","affirmation","match","speech","yes","ThumbUp","male","speech-gesture","1536","864","firefox","61.98","Windows 10","20","female","right","Sat Oct 12 2024 00:10:56 GMT+0200 (Mitteleuropäische Sommerzeit)","2","13","0","1728686612202"
"1236","j","SpeechGestureMatch","../RequiredFiles/videos/NeinDaumenhoch_f_no_gesture.mp4","Ist der Ball in der grünen Box?","Green","Blue","J","negation","na","speech","no","na","female","speech-gesture","1536","864","firefox","61.98","Windows 10","20","female","right","Sat Oct 12 2024 00:11:03 GMT+0200 (Mitteleuropäische Sommerzeit)","2","14","0","1728686612202"
"1240","f","SpeechGestureMatch","../RequiredFiles/videos/NeinDaumenhoch_m_no_gesture.mp4","Ist der Ball in der blauen Box?","Green","Blue","F","negation","na","speech","no","na","male","speech-gesture","1536","864","firefox","61.98","Windows 10","20","female","right","Sat Oct 12 2024 00:11:09 GMT+0200 (Mitteleuropäische Sommerzeit)","2","15","0","1728686612202"
"1057","f","SpeechGestureMatch","../RequiredFiles/videos/JaDaumenhoch_m.mp4","Ist der Ball in der blauen Box?","Blue","Green","F","affirmation","match","speech","yes","ThumbUp","male","speech-gesture","1536","864","firefox","61.98","Windows 10","20","female","right","Sat Oct 12 2024 00:11:16 GMT+0200 (Mitteleuropäische Sommerzeit)","2","16","0","1728686612202"
"1075","f","SpeechGestureMatch","../RequiredFiles/videos/NeinDaumenhoch_m.mp4","Ist der Ball in der grünen Box?","Blue","Green","F","negation","mismatch","speech","no","ThumbUp","male","speech-gesture","1536","864","firefox","61.98","Windows 10","20","female","right","Sat Oct 12 2024 00:11:23 GMT+0200 (Mitteleuropäische Sommerzeit)","2","17","0","1728686612202"
"1304","j","SpeechGestureMatch","../RequiredFiles/videos/NeinDaumenhoch_m.mp4","Ist der Ball in der grünen Box?","Green","Blue","J","negation","mismatch","speech","no","ThumbUp","male","speech-gesture","1536","864","firefox","61.98","Windows 10","20","female","right","Sat Oct 12 2024 00:11:30 GMT+0200 (Mitteleuropäische Sommerzeit)","2","18","0","1728686612202"
"1074","j","SpeechGestureMatch","../RequiredFiles/videos/NeinDaumenhoch_m_no_gesture.mp4","Ist der Ball in der blauen Box?","Blue","Green","J","negation","na","speech","no","na","male","speech-gesture","1536","864","firefox","61.98","Windows 10","20","female","right","Sat Oct 12 2024 00:11:36 GMT+0200 (Mitteleuropäische Sommerzeit)","2","19","0","1728686612202"
"1133","f","SpeechGestureMatch","../RequiredFiles/videos/NeinDaumenrunter_m.mp4","Ist der Ball in der grünen Box?","Blue","Green","F","negation","match","speech","no","ThumbDown","male","speech-gesture","1536","864","firefox","61.98","Windows 10","20","female","right","Sat Oct 12 2024 00:11:43 GMT+0200 (Mitteleuropäische Sommerzeit)","2","20","0","1728686612202"
"1175","j","SpeechGestureMatch","../RequiredFiles/videos/JaDaumenrunter_m.mp4","Ist der Ball in der grünen Box?","Blue","Green","J","affirmation","mismatch","speech","yes","ThumbDown","male","speech-gesture","1536","864","firefox","61.98","Windows 10","20","female","right","Sat Oct 12 2024 00:11:50 GMT+0200 (Mitteleuropäische Sommerzeit)","2","21","0","1728686612202"
"1087","j","SpeechGestureMatch","../RequiredFiles/videos/NeinDaumenhoch_f_no_gesture.mp4","Ist der Ball in der blauen Box?","Blue","Green","J","negation","na","speech","no","na","female","speech-gesture","1536","864","firefox","61.98","Windows 10","20","female","right","Sat Oct 12 2024 00:11:56 GMT+0200 (Mitteleuropäische Sommerzeit)","2","22","0","1728686612202"
"1256","f","SpeechGestureMatch","../RequiredFiles/videos/JaDaumenhoch_f_no_gesture.mp4","Ist der Ball in der grünen Box?","Green","Blue","F","affirmation","na","speech","yes","na","female","speech-gesture","1536","864","firefox","61.98","Windows 10","20","female","right","Sat Oct 12 2024 00:12:03 GMT+0200 (Mitteleuropäische Sommerzeit)","2","23","0","1728686612202"
"1001","f","SpeechGestureMatch","../RequiredFiles/videos/NeinDaumenhoch_f.mp4","Ist der Ball in der blauen Box?","Green","Blue","F","negation","mismatch","speech","no","ThumbUp","female","speech-gesture","1536","864","firefox","61.98","Windows 10","20","female","right","Sat Oct 12 2024 00:12:10 GMT+0200 (Mitteleuropäische Sommerzeit)","2","24","0","1728686612202"
"1082","f","SpeechGestureMatch","../RequiredFiles/videos/NeinDaumenrunter_f.mp4","Ist der Ball in der blauen Box?","Green","Blue","F","negation","match","speech","no","ThumbDown","female","speech-gesture","1536","864","firefox","61.98","Windows 10","20","female","right","Sat Oct 12 2024 00:12:17 GMT+0200 (Mitteleuropäische Sommerzeit)","2","25","0","1728686612202"
"1090","j","SpeechGestureMatch","../RequiredFiles/videos/JaDaumenhoch_f.mp4","Ist der Ball in der blauen Box?","Blue","Green","F","affirmation","match","speech","yes","ThumbUp","female","speech-gesture","1536","864","firefox","61.98","Windows 10","20","female","right","Sat Oct 12 2024 00:12:23 GMT+0200 (Mitteleuropäische Sommerzeit)","2","26","1","1728686612202"
"1089","j","SpeechGestureMatch","../RequiredFiles/videos/NeinDaumenhoch_f.mp4","Ist der Ball in der grünen Box?","Green","Blue","J","negation","mismatch","speech","no","ThumbUp","female","speech-gesture","1536","864","firefox","61.98","Windows 10","20","female","right","Sat Oct 12 2024 00:12:30 GMT+0200 (Mitteleuropäische Sommerzeit)","2","27","0","1728686612202"
"1047","j","SpeechGestureMatch","../RequiredFiles/videos/JaDaumenrunter_f.mp4","Ist der Ball in der grünen Box?","Blue","Green","J","affirmation","mismatch","speech","yes","ThumbDown","female","speech-gesture","1536","864","firefox","61.98","Windows 10","20","female","right","Sat Oct 12 2024 00:12:36 GMT+0200 (Mitteleuropäische Sommerzeit)","2","28","0","1728686612202"
"1328","f","SpeechGestureMatch","../RequiredFiles/videos/JaDaumenhoch_m_no_gesture.mp4","Ist der Ball in der blauen Box?","Blue","Green","F","affirmation","na","speech","yes","na","male","speech-gesture","1536","864","firefox","61.98","Windows 10","20","female","right","Sat Oct 12 2024 00:12:43 GMT+0200 (Mitteleuropäische Sommerzeit)","2","29","0","1728686612202"
"1062","f","SpeechGestureMatch","../RequiredFiles/videos/JaDaumenhoch_m_no_gesture.mp4","Ist der Ball in der grünen Box?","Green","Blue","F","affirmation","na","speech","yes","na","male","speech-gesture","1536","864","firefox","61.98","Windows 10","20","female","right","Sat Oct 12 2024 00:12:50 GMT+0200 (Mitteleuropäische Sommerzeit)","2","30","0","1728686612202"
"1341","j","SpeechGestureMatch","../RequiredFiles/videos/JaDaumenrunter_m.mp4","Ist der Ball in der blauen Box?","Green","Blue","J","affirmation","mismatch","speech","yes","ThumbDown","male","speech-gesture","1536","864","firefox","61.98","Windows 10","20","female","right","Sat Oct 12 2024 00:12:57 GMT+0200 (Mitteleuropäische Sommerzeit)","2","31","0","1728686612202"
"1140","f","SpeechGestureMatch","../RequiredFiles/videos/NeinDaumenhoch_f.mp4","Ist der Ball in der grünen Box?","Blue","Green","F","negation","mismatch","speech","no","ThumbUp","female","speech-gesture","1536","864","firefox","61.98","Windows 10","20","female","right","Sat Oct 12 2024 00:13:04 GMT+0200 (Mitteleuropäische Sommerzeit)","2","32","0","1728686612202"
"1134","j","SpeechGestureMatch","../RequiredFiles/videos/NeinDaumenhoch_m_no_gesture.mp4","Ist der Ball in der grünen Box?","Green","Blue","J","negation","na","speech","no","na","male","speech-gesture","1536","864","firefox","61.98","Windows 10","20","female","right","Sat Oct 12 2024 00:13:10 GMT+0200 (Mitteleuropäische Sommerzeit)","2","33","0","1728686612202"
"949","j","SpeechGestureMatch","../RequiredFiles/videos/JaDaumenrunter_f.mp4","Ist der Ball in der grünen Box?","Blue","Green","J","affirmation","mismatch","speech","yes","ThumbDown","female","speech-gesture","1536","864","firefox","61.98","Windows 10","20","female","right","Sat Oct 12 2024 00:13:17 GMT+0200 (Mitteleuropäische Sommerzeit)","2","34","0","1728686612202"
"1059","f","SpeechGestureMatch","../RequiredFiles/videos/JaDaumenrunter_f.mp4","Ist der Ball in der grünen Box?","Green","Blue","F","affirmation","mismatch","speech","yes","ThumbDown","female","speech-gesture","1536","864","firefox","61.98","Windows 10","20","female","right","Sat Oct 12 2024 00:13:23 GMT+0200 (Mitteleuropäische Sommerzeit)","2","35","0","1728686612202"
"1329","j","SpeechGestureMatch","../RequiredFiles/videos/NeinDaumenhoch_m.mp4","Ist der Ball in der blauen Box?","Blue","Green","J","negation","mismatch","speech","no","ThumbUp","male","speech-gesture","1536","864","firefox","61.98","Windows 10","20","female","right","Sat Oct 12 2024 00:13:30 GMT+0200 (Mitteleuropäische Sommerzeit)","2","36","0","1728686612202"
"1180","f","SpeechGestureMatch","../RequiredFiles/videos/JaDaumenrunter_f.mp4","Ist der Ball in der blauen Box?","Blue","Green","F","affirmation","mismatch","speech","yes","ThumbDown","female","speech-gesture","1536","864","firefox","61.98","Windows 10","20","female","right","Sat Oct 12 2024 00:13:37 GMT+0200 (Mitteleuropäische Sommerzeit)","2","37","0","1728686612202"
"1063","f","SpeechGestureMatch","../RequiredFiles/videos/JaDaumenrunter_m.mp4","Ist der Ball in der grünen Box?","Green","Blue","F","affirmation","mismatch","speech","yes","ThumbDown","male","speech-gesture","1536","864","firefox","61.98","Windows 10","20","female","right","Sat Oct 12 2024 00:13:44 GMT+0200 (Mitteleuropäische Sommerzeit)","2","38","0","1728686612202"
"1189","j","SpeechGestureMatch","../RequiredFiles/videos/JaDaumenrunter_f_no_gesture.mp4","Ist der Ball in der blauen Box?","Green","Blue","J","affirmation","na","speech","yes","na","female","speech-gesture","1536","864","firefox","61.98","Windows 10","20","female","right","Sat Oct 12 2024 00:13:50 GMT+0200 (Mitteleuropäische Sommerzeit)","2","39","0","1728686612202"
"1122","j","SpeechGestureMatch","../RequiredFiles/videos/NeinDaumenrunter_m.mp4","Ist der Ball in der grünen Box?","Green","Blue","J","negation","match","speech","no","ThumbDown","male","speech-gesture","1536","864","firefox","61.98","Windows 10","20","female","right","Sat Oct 12 2024 00:13:57 GMT+0200 (Mitteleuropäische Sommerzeit)","2","40","0","1728686612202"
"1177","j","SpeechGestureMatch","../RequiredFiles/videos/NeinDaumenrunter_f.mp4","Ist der Ball in der blauen Box?","Blue","Green","J","negation","match","speech","no","ThumbDown","female","speech-gesture","1536","864","firefox","61.98","Windows 10","20","female","right","Sat Oct 12 2024 00:14:04 GMT+0200 (Mitteleuropäische Sommerzeit)","2","41","0","1728686612202"
"1276","j","SpeechGestureMatch","../RequiredFiles/videos/NeinDaumenrunter_m_no_gesture.mp4","Ist der Ball in der blauen Box?","Blue","Green","J","negation","na","speech","no","na","male","speech-gesture","1536","864","firefox","61.98","Windows 10","20","female","right","Sat Oct 12 2024 00:14:11 GMT+0200 (Mitteleuropäische Sommerzeit)","2","42","0","1728686612202"
"991","j","SpeechGestureMatch","../RequiredFiles/videos/NeinDaumenrunter_m.mp4","Ist der Ball in der blauen Box?","Blue","Green","J","negation","match","speech","no","ThumbDown","male","speech-gesture","1536","864","firefox","61.98","Windows 10","20","female","right","Sat Oct 12 2024 00:14:17 GMT+0200 (Mitteleuropäische Sommerzeit)","2","43","0","1728686612202"
"112","j","SpeechGestureMatch","../RequiredFiles/videos/JaDaumenhoch_f.mp4","Ist der Ball in der blauen Box?","Green","Blue","J","affirmation","match","speech","yes","ThumbUp","female","speech-gesture","1536","864","firefox","61.98","Windows 10","20","female","right","Sat Oct 12 2024 00:14:23 GMT+0200 (Mitteleuropäische Sommerzeit)","2","44","0","1728686612202"
"1343","j","SpeechGestureMatch","../RequiredFiles/videos/NeinDaumenhoch_f.mp4","Ist der Ball in der blauen Box?","Blue","Green","J","negation","mismatch","speech","no","ThumbUp","female","speech-gesture","1536","864","firefox","61.98","Windows 10","20","female","right","Sat Oct 12 2024 00:14:30 GMT+0200 (Mitteleuropäische Sommerzeit)","2","45","0","1728686612202"
"1054","j","SpeechGestureMatch","../RequiredFiles/videos/JaDaumenhoch_m_no_gesture.mp4","Ist der Ball in der grünen Box?","Blue","Green","J","affirmation","na","speech","yes","na","male","speech-gesture","1536","864","firefox","61.98","Windows 10","20","female","right","Sat Oct 12 2024 00:14:36 GMT+0200 (Mitteleuropäische Sommerzeit)","2","46","0","1728686612202"
"973","f","SpeechGestureMatch","../RequiredFiles/videos/JaDaumenhoch_m.mp4","Ist der Ball in der grünen Box?","Green","Blue","F","affirmation","match","speech","yes","ThumbUp","male","speech-gesture","1536","864","firefox","61.98","Windows 10","20","female","right","Sat Oct 12 2024 00:14:43 GMT+0200 (Mitteleuropäische Sommerzeit)","2","47","0","1728686612202"
"1135","j","SpeechGestureMatch","../RequiredFiles/videos/JaDaumenhoch_f_no_gesture.mp4","Ist der Ball in der grünen Box?","Blue","Green","J","affirmation","na","speech","yes","na","female","speech-gesture","1536","864","firefox","61.98","Windows 10","20","female","right","Sat Oct 12 2024 00:14:50 GMT+0200 (Mitteleuropäische Sommerzeit)","2","48","0","1728686612202"
"986","f","SpeechGestureMatch","../RequiredFiles/videos/NeinDaumenrunter_m_no_gesture.mp4","Ist der Ball in der blauen Box?","Green","Blue","F","negation","na","speech","no","na","male","speech-gesture","1536","864","firefox","61.98","Windows 10","20","female","right","Sat Oct 12 2024 00:14:56 GMT+0200 (Mitteleuropäische Sommerzeit)","2","49","0","1728686612202"
"1082","f","SpeechGestureMatch","../RequiredFiles/videos/JaDaumenhoch_f.mp4","Ist der Ball in der blauen Box?","Blue","Green","F","affirmation","match","speech","yes","ThumbUp","female","speech-gesture","1536","864","firefox","61.98","Windows 10","20","female","right","Sat Oct 12 2024 00:15:03 GMT+0200 (Mitteleuropäische Sommerzeit)","2","50","0","1728686612202"
"1049","j","SpeechGestureMatch","../RequiredFiles/videos/NeinDaumenhoch_f.mp4","Ist der Ball in der grünen Box?","Green","Blue","J","negation","mismatch","speech","no","ThumbUp","female","speech-gesture","1536","864","firefox","61.98","Windows 10","20","female","right","Sat Oct 12 2024 00:15:09 GMT+0200 (Mitteleuropäische Sommerzeit)","2","51","0","1728686612202"
"1162","f","SpeechGestureMatch","../RequiredFiles/videos/NeinDaumenhoch_m.mp4","Ist der Ball in der blauen Box?","Green","Blue","F","negation","mismatch","speech","no","ThumbUp","male","speech-gesture","1536","864","firefox","61.98","Windows 10","20","female","right","Sat Oct 12 2024 00:15:16 GMT+0200 (Mitteleuropäische Sommerzeit)","2","52","0","1728686612202"
"1073","f","SpeechGestureMatch","../RequiredFiles/videos/JaDaumenrunter_m.mp4","Ist der Ball in der grünen Box?","Green","Blue","F","affirmation","mismatch","speech","yes","ThumbDown","male","speech-gesture","1536","864","firefox","61.98","Windows 10","20","female","right","Sat Oct 12 2024 00:15:23 GMT+0200 (Mitteleuropäische Sommerzeit)","2","53","0","1728686612202"
"1101","f","SpeechGestureMatch","../RequiredFiles/videos/NeinDaumenrunter_m.mp4","Ist der Ball in der grünen Box?","Blue","Green","F","negation","match","speech","no","ThumbDown","male","speech-gesture","1536","864","firefox","61.98","Windows 10","20","female","right","Sat Oct 12 2024 00:15:29 GMT+0200 (Mitteleuropäische Sommerzeit)","2","54","0","1728686612202"
"1267","j","SpeechGestureMatch","../RequiredFiles/videos/JaDaumenhoch_f.mp4","Ist der Ball in der grünen Box?","Blue","Green","J","affirmation","match","speech","yes","ThumbUp","female","speech-gesture","1536","864","firefox","61.98","Windows 10","20","female","right","Sat Oct 12 2024 00:15:36 GMT+0200 (Mitteleuropäische Sommerzeit)","2","55","0","1728686612202"
"1221","j","SpeechGestureMatch","../RequiredFiles/videos/NeinDaumenhoch_m.mp4","Ist der Ball in der blauen Box?","Blue","Green","J","negation","mismatch","speech","no","ThumbUp","male","speech-gesture","1536","864","firefox","61.98","Windows 10","20","female","right","Sat Oct 12 2024 00:15:43 GMT+0200 (Mitteleuropäische Sommerzeit)","2","56","0","1728686612202"
"1318","f","SpeechGestureMatch","../RequiredFiles/videos/NeinDaumenhoch_f_no_gesture.mp4","Ist der Ball in der grünen Box?","Blue","Green","F","negation","na","speech","no","na","female","speech-gesture","1536","864","firefox","61.98","Windows 10","20","female","right","Sat Oct 12 2024 00:15:50 GMT+0200 (Mitteleuropäische Sommerzeit)","2","57","0","1728686612202"
"1023","f","SpeechGestureMatch","../RequiredFiles/videos/JaDaumenhoch_m.mp4","Ist der Ball in der grünen Box?","Green","Blue","F","affirmation","match","speech","yes","ThumbUp","male","speech-gesture","1536","864","firefox","61.98","Windows 10","20","female","right","Sat Oct 12 2024 00:15:57 GMT+0200 (Mitteleuropäische Sommerzeit)","2","58","0","1728686612202"
"1158","f","SpeechGestureMatch","../RequiredFiles/videos/NeinDaumenhoch_f.mp4","Ist der Ball in der blauen Box?","Green","Blue","F","negation","mismatch","speech","no","ThumbUp","female","speech-gesture","1536","864","firefox","61.98","Windows 10","20","female","right","Sat Oct 12 2024 00:16:03 GMT+0200 (Mitteleuropäische Sommerzeit)","2","59","0","1728686612202"
"1102","f","SpeechGestureMatch","../RequiredFiles/videos/JaDaumenhoch_f.mp4","Ist der Ball in der grünen Box?","Green","Blue","F","affirmation","match","speech","yes","ThumbUp","female","speech-gesture","1536","864","firefox","61.98","Windows 10","20","female","right","Sat Oct 12 2024 00:16:10 GMT+0200 (Mitteleuropäische Sommerzeit)","2","60","0","1728686612202"
"1043","f","SpeechGestureMatch","../RequiredFiles/videos/NeinDaumenhoch_m_no_gesture.mp4","Ist der Ball in der grünen Box?","Blue","Green","F","negation","na","speech","no","na","male","speech-gesture","1536","864","firefox","61.98","Windows 10","20","female","right","Sat Oct 12 2024 00:16:17 GMT+0200 (Mitteleuropäische Sommerzeit)","2","61","0","1728686612202"
"1123","j","SpeechGestureMatch","../RequiredFiles/videos/NeinDaumenrunter_f_no_gesture.mp4","Ist der Ball in der grünen Box?","Green","Blue","J","negation","na","speech","no","na","female","speech-gesture","1536","864","firefox","61.98","Windows 10","20","female","right","Sat Oct 12 2024 00:16:23 GMT+0200 (Mitteleuropäische Sommerzeit)","2","62","0","1728686612202"
"1172","f","SpeechGestureMatch","../RequiredFiles/videos/JaDaumenrunter_f_no_gesture.mp4","Ist der Ball in der grünen Box?","Green","Blue","F","affirmation","na","speech","yes","na","female","speech-gesture","1536","864","firefox","61.98","Windows 10","20","female","right","Sat Oct 12 2024 00:16:30 GMT+0200 (Mitteleuropäische Sommerzeit)","2","63","0","1728686612202"
"1293","f","SpeechGestureMatch","../RequiredFiles/videos/NeinDaumenrunter_m.mp4","Ist der Ball in der blauen Box?","Green","Blue","F","negation","match","speech","no","ThumbDown","male","speech-gesture","1536","864","firefox","61.98","Windows 10","20","female","right","Sat Oct 12 2024 00:16:37 GMT+0200 (Mitteleuropäische Sommerzeit)","2","64","0","1728686612202"
"1112","j","SpeechGestureMatch","../RequiredFiles/videos/NeinDaumenhoch_f.mp4","Ist der Ball in der blauen Box?","Blue","Green","J","negation","mismatch","speech","no","ThumbUp","female","speech-gesture","1536","864","firefox","61.98","Windows 10","20","female","right","Sat Oct 12 2024 00:16:44 GMT+0200 (Mitteleuropäische Sommerzeit)","2","65","0","1728686612202"
"1305","f","SpeechGestureMatch","../RequiredFiles/videos/JaDaumenhoch_f.mp4","Ist der Ball in der grünen Box?","Green","Blue","F","affirmation","match","speech","yes","ThumbUp","female","speech-gesture","1536","864","firefox","61.98","Windows 10","20","female","right","Sat Oct 12 2024 00:16:50 GMT+0200 (Mitteleuropäische Sommerzeit)","2","66","0","1728686612202"
"1084","j","SpeechGestureMatch","../RequiredFiles/videos/NeinDaumenrunter_m.mp4","Ist der Ball in der grünen Box?","Green","Blue","J","negation","match","speech","no","ThumbDown","male","speech-gesture","1536","864","firefox","61.98","Windows 10","20","female","right","Sat Oct 12 2024 00:16:57 GMT+0200 (Mitteleuropäische Sommerzeit)","2","67","0","1728686612202"
"1412","f","SpeechGestureMatch","../RequiredFiles/videos/JaDaumenrunter_m_no_gesture.mp4","Ist der Ball in der blauen Box?","Green","Blue","J","affirmation","na","speech","yes","na","male","speech-gesture","1536","864","firefox","61.98","Windows 10","20","female","right","Sat Oct 12 2024 00:17:04 GMT+0200 (Mitteleuropäische Sommerzeit)","2","68","1","1728686612202"
"1301","f","SpeechGestureMatch","../RequiredFiles/videos/NeinDaumenhoch_f.mp4","Ist der Ball in der grünen Box?","Blue","Green","F","negation","mismatch","speech","no","ThumbUp","female","speech-gesture","1536","864","firefox","61.98","Windows 10","20","female","right","Sat Oct 12 2024 00:17:11 GMT+0200 (Mitteleuropäische Sommerzeit)","2","69","0","1728686612202"
"1138","j","SpeechGestureMatch","../RequiredFiles/videos/JaDaumenhoch_f_no_gesture.mp4","Ist der Ball in der blauen Box?","Green","Blue","J","affirmation","na","speech","yes","na","female","speech-gesture","1536","864","firefox","61.98","Windows 10","20","female","right","Sat Oct 12 2024 00:17:18 GMT+0200 (Mitteleuropäische Sommerzeit)","2","70","0","1728686612202"
"1302","f","SpeechGestureMatch","../RequiredFiles/videos/NeinDaumenhoch_m.mp4","Ist der Ball in der blauen Box?","Green","Blue","F","negation","mismatch","speech","no","ThumbUp","male","speech-gesture","1536","864","firefox","61.98","Windows 10","20","female","right","Sat Oct 12 2024 00:17:24 GMT+0200 (Mitteleuropäische Sommerzeit)","2","71","0","1728686612202"
"1139","j","SpeechGestureMatch","../RequiredFiles/videos/NeinDaumenrunter_m_no_gesture.mp4","Ist der Ball in der grünen Box?","Green","Blue","J","negation","na","speech","no","na","male","speech-gesture","1536","864","firefox","61.98","Windows 10","20","female","right","Sat Oct 12 2024 00:17:31 GMT+0200 (Mitteleuropäische Sommerzeit)","2","72","0","1728686612202"
"1371","j","SpeechGestureMatch","../RequiredFiles/videos/JaDaumenrunter_f_no_gesture.mp4","Ist der Ball in der grünen Box?","Blue","Green","J","affirmation","na","speech","yes","na","female","speech-gesture","1536","864","firefox","61.98","Windows 10","20","female","right","Sat Oct 12 2024 00:17:38 GMT+0200 (Mitteleuropäische Sommerzeit)","2","73","0","1728686612202"
"1283","j","SpeechGestureMatch","../RequiredFiles/videos/NeinDaumenrunter_f.mp4","Ist der Ball in der blauen Box?","Blue","Green","J","negation","match","speech","no","ThumbDown","female","speech-gesture","1536","864","firefox","61.98","Windows 10","20","female","right","Sat Oct 12 2024 00:17:45 GMT+0200 (Mitteleuropäische Sommerzeit)","2","74","0","1728686612202"
"1220","j","SpeechGestureMatch","../RequiredFiles/videos/JaDaumenhoch_m_no_gesture.mp4","Ist der Ball in der blauen Box?","Green","Blue","J","affirmation","na","speech","yes","na","male","speech-gesture","1536","864","firefox","61.98","Windows 10","20","female","right","Sat Oct 12 2024 00:17:52 GMT+0200 (Mitteleuropäische Sommerzeit)","2","75","0","1728686612202"
"1175","f","SpeechGestureMatch","../RequiredFiles/videos/NeinDaumenrunter_m.mp4","Ist der Ball in der blauen Box?","Green","Blue","F","negation","match","speech","no","ThumbDown","male","speech-gesture","1536","864","firefox","61.98","Windows 10","20","female","right","Sat Oct 12 2024 00:17:58 GMT+0200 (Mitteleuropäische Sommerzeit)","2","76","0","1728686612202"
"1003","f","SpeechGestureMatch","../RequiredFiles/videos/NeinDaumenrunter_f.mp4","Ist der Ball in der grünen Box?","Blue","Green","F","negation","match","speech","no","ThumbDown","female","speech-gesture","1536","864","firefox","61.98","Windows 10","20","female","right","Sat Oct 12 2024 00:18:05 GMT+0200 (Mitteleuropäische Sommerzeit)","2","77","0","1728686612202"
"1302","j","SpeechGestureMatch","../RequiredFiles/videos/NeinDaumenrunter_f.mp4","Ist der Ball in der grünen Box?","Green","Blue","J","negation","match","speech","no","ThumbDown","female","speech-gesture","1536","864","firefox","61.98","Windows 10","20","female","right","Sat Oct 12 2024 00:18:12 GMT+0200 (Mitteleuropäische Sommerzeit)","2","78","0","1728686612202"
"1076","j","SpeechGestureMatch","../RequiredFiles/videos/JaDaumenrunter_m_no_gesture.mp4","Ist der Ball in der grünen Box?","Blue","Green","J","affirmation","na","speech","yes","na","male","speech-gesture","1536","864","firefox","61.98","Windows 10","20","female","right","Sat Oct 12 2024 00:18:19 GMT+0200 (Mitteleuropäische Sommerzeit)","2","79","0","1728686612202"
"1194","j","SpeechGestureMatch","../RequiredFiles/videos/JaDaumenrunter_m.mp4","Ist der Ball in der grünen Box?","Blue","Green","J","affirmation","mismatch","speech","yes","ThumbDown","male","speech-gesture","1536","864","firefox","61.98","Windows 10","20","female","right","Sat Oct 12 2024 00:18:26 GMT+0200 (Mitteleuropäische Sommerzeit)","2","80","0","1728686612202"
"1142","j","SpeechGestureMatch","../RequiredFiles/videos/JaDaumenhoch_m.mp4","Ist der Ball in der grünen Box?","Blue","Green","J","affirmation","match","speech","yes","ThumbUp","male","speech-gesture","1536","864","firefox","61.98","Windows 10","20","female","right","Sat Oct 12 2024 00:18:32 GMT+0200 (Mitteleuropäische Sommerzeit)","2","81","0","1728686612202"
"1173","j","SpeechGestureMatch","../RequiredFiles/videos/JaDaumenrunter_m.mp4","Ist der Ball in der blauen Box?","Green","Blue","J","affirmation","mismatch","speech","yes","ThumbDown","male","speech-gesture","1536","864","firefox","61.98","Windows 10","20","female","right","Sat Oct 12 2024 00:18:39 GMT+0200 (Mitteleuropäische Sommerzeit)","2","82","0","1728686612202"
"1255","j","SpeechGestureMatch","../RequiredFiles/videos/JaDaumenhoch_m.mp4","Ist der Ball in der blauen Box?","Green","Blue","J","affirmation","match","speech","yes","ThumbUp","male","speech-gesture","1536","864","firefox","61.98","Windows 10","20","female","right","Sat Oct 12 2024 00:18:46 GMT+0200 (Mitteleuropäische Sommerzeit)","2","83","0","1728686612202"
"1082","j","SpeechGestureMatch","../RequiredFiles/videos/JaDaumenrunter_f.mp4","Ist der Ball in der blauen Box?","Green","Blue","J","affirmation","mismatch","speech","yes","ThumbDown","female","speech-gesture","1536","864","firefox","61.98","Windows 10","20","female","right","Sat Oct 12 2024 00:18:53 GMT+0200 (Mitteleuropäische Sommerzeit)","2","84","0","1728686612202"
"1082","f","SpeechGestureMatch","../RequiredFiles/videos/NeinDaumenrunter_m_no_gesture.mp4","Ist der Ball in der grünen Box?","Blue","Green","F","negation","na","speech","no","na","male","speech-gesture","1536","864","firefox","61.98","Windows 10","20","female","right","Sat Oct 12 2024 00:18:59 GMT+0200 (Mitteleuropäische Sommerzeit)","2","85","0","1728686612202"
"1053","j","SpeechGestureMatch","../RequiredFiles/videos/NeinDaumenhoch_m.mp4","Ist der Ball in der grünen Box?","Green","Blue","J","negation","mismatch","speech","no","ThumbUp","male","speech-gesture","1536","864","firefox","61.98","Windows 10","20","female","right","Sat Oct 12 2024 00:19:06 GMT+0200 (Mitteleuropäische Sommerzeit)","2","86","0","1728686612202"
"1108","f","SpeechGestureMatch","../RequiredFiles/videos/NeinDaumenhoch_m.mp4","Ist der Ball in der grünen Box?","Blue","Green","F","negation","mismatch","speech","no","ThumbUp","male","speech-gesture","1536","864","firefox","61.98","Windows 10","20","female","right","Sat Oct 12 2024 00:19:13 GMT+0200 (Mitteleuropäische Sommerzeit)","2","87","0","1728686612202"
"1062","f","SpeechGestureMatch","../RequiredFiles/videos/JaDaumenrunter_m.mp4","Ist der Ball in der blauen Box?","Blue","Green","F","affirmation","mismatch","speech","yes","ThumbDown","male","speech-gesture","1536","864","firefox","61.98","Windows 10","20","female","right","Sat Oct 12 2024 00:19:19 GMT+0200 (Mitteleuropäische Sommerzeit)","2","88","0","1728686612202"
"1079","f","SpeechGestureMatch","../RequiredFiles/videos/JaDaumenhoch_m.mp4","Ist der Ball in der blauen Box?","Blue","Green","F","affirmation","match","speech","yes","ThumbUp","male","speech-gesture","1536","864","firefox","61.98","Windows 10","20","female","right","Sat Oct 12 2024 00:19:26 GMT+0200 (Mitteleuropäische Sommerzeit)","2","89","0","1728686612202"
"1086","f","SpeechGestureMatch","../RequiredFiles/videos/JaDaumenrunter_m_no_gesture.mp4","Ist der Ball in der grünen Box?","Green","Blue","F","affirmation","na","speech","yes","na","male","speech-gesture","1536","864","firefox","61.98","Windows 10","20","female","right","Sat Oct 12 2024 00:19:32 GMT+0200 (Mitteleuropäische Sommerzeit)","2","90","0","1728686612202"
"1167","f","SpeechGestureMatch","../RequiredFiles/videos/NeinDaumenrunter_f.mp4","Ist der Ball in der blauen Box?","Green","Blue","F","negation","match","speech","no","ThumbDown","female","speech-gesture","1536","864","firefox","61.98","Windows 10","20","female","right","Sat Oct 12 2024 00:19:39 GMT+0200 (Mitteleuropäische Sommerzeit)","2","91","0","1728686612202"
"1278","f","SpeechGestureMatch","../RequiredFiles/videos/NeinDaumenrunter_f_no_gesture.mp4","Ist der Ball in der grünen Box?","Blue","Green","F","negation","na","speech","no","na","female","speech-gesture","1536","864","firefox","61.98","Windows 10","20","female","right","Sat Oct 12 2024 00:19:46 GMT+0200 (Mitteleuropäische Sommerzeit)","2","92","0","1728686612202"
"1168","j","SpeechGestureMatch","../RequiredFiles/videos/JaDaumenhoch_m.mp4","Ist der Ball in der grünen Box?","Blue","Green","J","affirmation","match","speech","yes","ThumbUp","male","speech-gesture","1536","864","firefox","61.98","Windows 10","20","female","right","Sat Oct 12 2024 00:19:53 GMT+0200 (Mitteleuropäische Sommerzeit)","2","93","0","1728686612202"
"1129","f","SpeechGestureMatch","../RequiredFiles/videos/NeinDaumenrunter_f_no_gesture.mp4","Ist der Ball in der blauen Box?","Blue","Green","J","negation","na","speech","no","na","female","speech-gesture","1536","864","firefox","61.98","Windows 10","20","female","right","Sat Oct 12 2024 00:19:59 GMT+0200 (Mitteleuropäische Sommerzeit)","2","94","1","1728686612202"
"1385","j","SpeechGestureMatch","../RequiredFiles/videos/NeinDaumenrunter_m.mp4","Ist der Ball in der blauen Box?","Blue","Green","J","negation","match","speech","no","ThumbDown","male","speech-gesture","1536","864","firefox","61.98","Windows 10","20","female","right","Sat Oct 12 2024 00:20:06 GMT+0200 (Mitteleuropäische Sommerzeit)","2","95","0","1728686612202"
"1069","f","SpeechGestureMatch","../RequiredFiles/videos/JaDaumenrunter_f.mp4","Ist der Ball in der grünen Box?","Green","Blue","F","affirmation","mismatch","speech","yes","ThumbDown","female","speech-gesture","1536","864","firefox","61.98","Windows 10","20","female","right","Sat Oct 12 2024 00:20:13 GMT+0200 (Mitteleuropäische Sommerzeit)","2","96","0","1728686612202"
"1474","f","SpeechGestureMatch","../RequiredFiles/videos/JaDaumenrunter_f.mp4","Ist der Ball in der blauen Box?","Green","Blue","F","negation","mismatch","gesture","yes","ThumbDown","female","speech-gesture","1536","864","firefox","61.98","Windows 10","20","female","right","Sat Oct 12 2024 00:21:51 GMT+0200 (Mitteleuropäische Sommerzeit)","3","1","0","1728686612202"
"1252","f","SpeechGestureMatch","../RequiredFiles/videos/JaDaumenrunter_m.mp4","Ist der Ball in der grünen Box?","Blue","Green","F","negation","mismatch","gesture","yes","ThumbDown","male","speech-gesture","1536","864","firefox","61.98","Windows 10","20","female","right","Sat Oct 12 2024 00:21:58 GMT+0200 (Mitteleuropäische Sommerzeit)","3","2","0","1728686612202"
"1206","j","SpeechGestureMatch","../RequiredFiles/videos/NeinDaumenrunter_m.mp4","Ist der Ball in der blauen Box?","Blue","Green","J","negation","match","gesture","no","ThumbDown","male","speech-gesture","1536","864","firefox","61.98","Windows 10","20","female","right","Sat Oct 12 2024 00:22:05 GMT+0200 (Mitteleuropäische Sommerzeit)","3","3","0","1728686612202"
"894","j","SpeechGestureMatch","../RequiredFiles/videos/JaDaumenhoch_m_no_sound.mp4","Ist der Ball in der grünen Box?","Blue","Green","J","affirmation","na","gesture","na","ThumbUp","male","speech-gesture","1536","864","firefox","61.98","Windows 10","20","female","right","Sat Oct 12 2024 00:22:11 GMT+0200 (Mitteleuropäische Sommerzeit)","3","4","0","1728686612202"
"1656","f","SpeechGestureMatch","../RequiredFiles/videos/JaDaumenhoch_m.mp4","Ist der Ball in der blauen Box?","Blue","Green","F","affirmation","match","gesture","yes","ThumbUp","male","speech-gesture","1536","864","firefox","61.98","Windows 10","20","female","right","Sat Oct 12 2024 00:22:19 GMT+0200 (Mitteleuropäische Sommerzeit)","3","5","0","1728686612202"
"1166","j","SpeechGestureMatch","../RequiredFiles/videos/NeinDaumenrunter_f.mp4","Ist der Ball in der grünen Box?","Green","Blue","J","negation","match","gesture","no","ThumbDown","female","speech-gesture","1536","864","firefox","61.98","Windows 10","20","female","right","Sat Oct 12 2024 00:22:25 GMT+0200 (Mitteleuropäische Sommerzeit)","3","6","0","1728686612202"
"860","j","SpeechGestureMatch","../RequiredFiles/videos/JaDaumenhoch_f_no_sound.mp4","Ist der Ball in der grünen Box?","Blue","Green","J","affirmation","na","gesture","na","ThumbUp","female","speech-gesture","1536","864","firefox","61.98","Windows 10","20","female","right","Sat Oct 12 2024 00:22:32 GMT+0200 (Mitteleuropäische Sommerzeit)","3","7","0","1728686612202"
"1075","f","SpeechGestureMatch","../RequiredFiles/videos/NeinDaumenrunter_f_no_sound.mp4","Ist der Ball in der blauen Box?","Green","Blue","F","negation","na","gesture","na","ThumbDown","female","speech-gesture","1536","864","firefox","61.98","Windows 10","20","female","right","Sat Oct 12 2024 00:22:38 GMT+0200 (Mitteleuropäische Sommerzeit)","3","8","0","1728686612202"
"1526","f","SpeechGestureMatch","../RequiredFiles/videos/NeinDaumenrunter_f.mp4","Ist der Ball in der blauen Box?","Green","Blue","F","negation","match","gesture","no","ThumbDown","female","speech-gesture","1536","864","firefox","61.98","Windows 10","20","female","right","Sat Oct 12 2024 00:22:45 GMT+0200 (Mitteleuropäische Sommerzeit)","3","9","0","1728686612202"
"1148","j","SpeechGestureMatch","../RequiredFiles/videos/NeinDaumenrunter_m.mp4","Ist der Ball in der grünen Box?","Blue","Green","F","negation","match","gesture","no","ThumbDown","male","speech-gesture","1536","864","firefox","61.98","Windows 10","20","female","right","Sat Oct 12 2024 00:22:52 GMT+0200 (Mitteleuropäische Sommerzeit)","3","10","1","1728686612202"
"1336","f","SpeechGestureMatch","../RequiredFiles/videos/JaDaumenhoch_f.mp4","Ist der Ball in der grünen Box?","Green","Blue","F","affirmation","match","gesture","yes","ThumbUp","female","speech-gesture","1536","864","firefox","61.98","Windows 10","20","female","right","Sat Oct 12 2024 00:22:59 GMT+0200 (Mitteleuropäische Sommerzeit)","3","11","0","1728686612202"
"1009","f","SpeechGestureMatch","../RequiredFiles/videos/JaDaumenhoch_m.mp4","Ist der Ball in der blauen Box?","Blue","Green","F","affirmation","match","gesture","yes","ThumbUp","male","speech-gesture","1536","864","firefox","61.98","Windows 10","20","female","right","Sat Oct 12 2024 00:23:06 GMT+0200 (Mitteleuropäische Sommerzeit)","3","12","0","1728686612202"
"1302","f","SpeechGestureMatch","../RequiredFiles/videos/NeinDaumenrunter_f.mp4","Ist der Ball in der grünen Box?","Blue","Green","F","negation","match","gesture","no","ThumbDown","female","speech-gesture","1536","864","firefox","61.98","Windows 10","20","female","right","Sat Oct 12 2024 00:23:12 GMT+0200 (Mitteleuropäische Sommerzeit)","3","13","0","1728686612202"
"1126","f","SpeechGestureMatch","../RequiredFiles/videos/JaDaumenrunter_m.mp4","Ist der Ball in der grünen Box?","Green","Blue","J","negation","mismatch","gesture","yes","ThumbDown","male","speech-gesture","1536","864","firefox","61.98","Windows 10","20","female","right","Sat Oct 12 2024 00:23:19 GMT+0200 (Mitteleuropäische Sommerzeit)","3","14","1","1728686612202"
"1245","j","SpeechGestureMatch","../RequiredFiles/videos/NeinDaumenhoch_f.mp4","Ist der Ball in der blauen Box?","Green","Blue","J","affirmation","mismatch","gesture","no","ThumbUp","female","speech-gesture","1536","864","firefox","61.98","Windows 10","20","female","right","Sat Oct 12 2024 00:23:26 GMT+0200 (Mitteleuropäische Sommerzeit)","3","15","0","1728686612202"
"1270","j","SpeechGestureMatch","../RequiredFiles/videos/JaDaumenhoch_f.mp4","Ist der Ball in der blauen Box?","Green","Blue","J","affirmation","match","gesture","yes","ThumbUp","female","speech-gesture","1536","864","firefox","61.98","Windows 10","20","female","right","Sat Oct 12 2024 00:23:33 GMT+0200 (Mitteleuropäische Sommerzeit)","3","16","0","1728686612202"
"931","f","SpeechGestureMatch","../RequiredFiles/videos/NeinDaumenhoch_f_no_sound.mp4","Ist der Ball in der blauen Box?","Blue","Green","F","affirmation","na","gesture","na","ThumbUp","female","speech-gesture","1536","864","firefox","61.98","Windows 10","20","female","right","Sat Oct 12 2024 00:23:39 GMT+0200 (Mitteleuropäische Sommerzeit)","3","17","0","1728686612202"
"885","f","SpeechGestureMatch","../RequiredFiles/videos/NeinDaumenrunter_m_no_sound.mp4","Ist der Ball in der grünen Box?","Blue","Green","F","negation","na","gesture","na","ThumbDown","male","speech-gesture","1536","864","firefox","61.98","Windows 10","20","female","right","Sat Oct 12 2024 00:23:46 GMT+0200 (Mitteleuropäische Sommerzeit)","3","18","0","1728686612202"
"1359","j","SpeechGestureMatch","../RequiredFiles/videos/NeinDaumenhoch_m.mp4","Ist der Ball in der grünen Box?","Blue","Green","J","affirmation","mismatch","gesture","no","ThumbUp","male","speech-gesture","1536","864","firefox","61.98","Windows 10","20","female","right","Sat Oct 12 2024 00:23:53 GMT+0200 (Mitteleuropäische Sommerzeit)","3","19","0","1728686612202"
"999","j","SpeechGestureMatch","../RequiredFiles/videos/JaDaumenrunter_f_no_sound.mp4","Ist der Ball in der blauen Box?","Blue","Green","J","negation","na","gesture","na","ThumbDown","female","speech-gesture","1536","864","firefox","61.98","Windows 10","20","female","right","Sat Oct 12 2024 00:24:00 GMT+0200 (Mitteleuropäische Sommerzeit)","3","20","0","1728686612202"
"1398","f","SpeechGestureMatch","../RequiredFiles/videos/NeinDaumenrunter_m.mp4","Ist der Ball in der blauen Box?","Green","Blue","F","negation","match","gesture","no","ThumbDown","male","speech-gesture","1536","864","firefox","61.98","Windows 10","20","female","right","Sat Oct 12 2024 00:24:06 GMT+0200 (Mitteleuropäische Sommerzeit)","3","21","0","1728686612202"
"922","f","SpeechGestureMatch","../RequiredFiles/videos/NeinDaumenhoch_m_no_sound.mp4","Ist der Ball in der blauen Box?","Blue","Green","F","affirmation","na","gesture","na","ThumbUp","male","speech-gesture","1536","864","firefox","61.98","Windows 10","20","female","right","Sat Oct 12 2024 00:24:13 GMT+0200 (Mitteleuropäische Sommerzeit)","3","22","0","1728686612202"
"887","j","SpeechGestureMatch","../RequiredFiles/videos/NeinDaumenhoch_f_no_sound.mp4","Ist der Ball in der grünen Box?","Blue","Green","J","affirmation","na","gesture","na","ThumbUp","female","speech-gesture","1536","864","firefox","61.98","Windows 10","20","female","right","Sat Oct 12 2024 00:24:20 GMT+0200 (Mitteleuropäische Sommerzeit)","3","23","0","1728686612202"
"1775","j","SpeechGestureMatch","../RequiredFiles/videos/JaDaumenrunter_f.mp4","Ist der Ball in der grünen Box?","Green","Blue","J","negation","mismatch","gesture","yes","ThumbDown","female","speech-gesture","1536","864","firefox","61.98","Windows 10","20","female","right","Sat Oct 12 2024 00:24:27 GMT+0200 (Mitteleuropäische Sommerzeit)","3","24","0","1728686612202"
"1095","f","SpeechGestureMatch","../RequiredFiles/videos/NeinDaumenhoch_m.mp4","Ist der Ball in der blauen Box?","Blue","Green","F","affirmation","mismatch","gesture","no","ThumbUp","male","speech-gesture","1536","864","firefox","61.98","Windows 10","20","female","right","Sat Oct 12 2024 00:24:33 GMT+0200 (Mitteleuropäische Sommerzeit)","3","25","0","1728686612202"
"865","f","SpeechGestureMatch","../RequiredFiles/videos/JaDaumenhoch_f_no_sound.mp4","Ist der Ball in der blauen Box?","Blue","Green","F","affirmation","na","gesture","na","ThumbUp","female","speech-gesture","1536","864","firefox","61.98","Windows 10","20","female","right","Sat Oct 12 2024 00:24:40 GMT+0200 (Mitteleuropäische Sommerzeit)","3","26","0","1728686612202"
"861","j","SpeechGestureMatch","../RequiredFiles/videos/JaDaumenrunter_m_no_sound.mp4","Ist der Ball in der blauen Box?","Blue","Green","J","negation","na","gesture","na","ThumbDown","male","speech-gesture","1536","864","firefox","61.98","Windows 10","20","female","right","Sat Oct 12 2024 00:24:46 GMT+0200 (Mitteleuropäische Sommerzeit)","3","27","0","1728686612202"
"1313","f","SpeechGestureMatch","../RequiredFiles/videos/NeinDaumenhoch_f.mp4","Ist der Ball in der grünen Box?","Blue","Green","J","affirmation","mismatch","gesture","no","ThumbUp","female","speech-gesture","1536","864","firefox","61.98","Windows 10","20","female","right","Sat Oct 12 2024 00:24:53 GMT+0200 (Mitteleuropäische Sommerzeit)","3","28","1","1728686612202"
"1183","j","SpeechGestureMatch","../RequiredFiles/videos/NeinDaumenhoch_m.mp4","Ist der Ball in der grünen Box?","Blue","Green","J","affirmation","mismatch","gesture","no","ThumbUp","male","speech-gesture","1536","864","firefox","61.98","Windows 10","20","female","right","Sat Oct 12 2024 00:25:00 GMT+0200 (Mitteleuropäische Sommerzeit)","3","29","0","1728686612202"
"1186","j","SpeechGestureMatch","../RequiredFiles/videos/NeinDaumenrunter_m.mp4","Ist der Ball in der grünen Box?","Green","Blue","J","negation","match","gesture","no","ThumbDown","male","speech-gesture","1536","864","firefox","61.98","Windows 10","20","female","right","Sat Oct 12 2024 00:25:07 GMT+0200 (Mitteleuropäische Sommerzeit)","3","30","0","1728686612202"
"1332","j","SpeechGestureMatch","../RequiredFiles/videos/NeinDaumenrunter_f_no_sound.mp4","Ist der Ball in der grünen Box?","Green","Blue","J","negation","na","gesture","na","ThumbDown","female","speech-gesture","1536","864","firefox","61.98","Windows 10","20","female","right","Sat Oct 12 2024 00:25:13 GMT+0200 (Mitteleuropäische Sommerzeit)","3","31","0","1728686612202"
"877","f","SpeechGestureMatch","../RequiredFiles/videos/NeinDaumenhoch_m_no_sound.mp4","Ist der Ball in der grünen Box?","Green","Blue","F","affirmation","na","gesture","na","ThumbUp","male","speech-gesture","1536","864","firefox","61.98","Windows 10","20","female","right","Sat Oct 12 2024 00:25:20 GMT+0200 (Mitteleuropäische Sommerzeit)","3","32","0","1728686612202"
"1313","f","SpeechGestureMatch","../RequiredFiles/videos/JaDaumenhoch_m.mp4","Ist der Ball in der grünen Box?","Green","Blue","F","affirmation","match","gesture","yes","ThumbUp","male","speech-gesture","1536","864","firefox","61.98","Windows 10","20","female","right","Sat Oct 12 2024 00:25:27 GMT+0200 (Mitteleuropäische Sommerzeit)","3","33","0","1728686612202"
"1259","f","SpeechGestureMatch","../RequiredFiles/videos/NeinDaumenrunter_f.mp4","Ist der Ball in der grünen Box?","Blue","Green","F","negation","match","gesture","no","ThumbDown","female","speech-gesture","1536","864","firefox","61.98","Windows 10","20","female","right","Sat Oct 12 2024 00:25:34 GMT+0200 (Mitteleuropäische Sommerzeit)","3","34","0","1728686612202"
"951","j","SpeechGestureMatch","../RequiredFiles/videos/JaDaumenrunter_f_no_sound.mp4","Ist der Ball in der grünen Box?","Green","Blue","J","negation","na","gesture","na","ThumbDown","female","speech-gesture","1536","864","firefox","61.98","Windows 10","20","female","right","Sat Oct 12 2024 00:25:40 GMT+0200 (Mitteleuropäische Sommerzeit)","3","35","0","1728686612202"
"1342","j","SpeechGestureMatch","../RequiredFiles/videos/NeinDaumenhoch_m.mp4","Ist der Ball in der blauen Box?","Green","Blue","J","affirmation","mismatch","gesture","no","ThumbUp","male","speech-gesture","1536","864","firefox","61.98","Windows 10","20","female","right","Sat Oct 12 2024 00:25:47 GMT+0200 (Mitteleuropäische Sommerzeit)","3","36","0","1728686612202"
"1176","j","SpeechGestureMatch","../RequiredFiles/videos/JaDaumenrunter_m.mp4","Ist der Ball in der grünen Box?","Green","Blue","J","negation","mismatch","gesture","yes","ThumbDown","male","speech-gesture","1536","864","firefox","61.98","Windows 10","20","female","right","Sat Oct 12 2024 00:25:54 GMT+0200 (Mitteleuropäische Sommerzeit)","3","37","0","1728686612202"
"1010","j","SpeechGestureMatch","../RequiredFiles/videos/NeinDaumenrunter_f_no_sound.mp4","Ist der Ball in der blauen Box?","Blue","Green","J","negation","na","gesture","na","ThumbDown","female","speech-gesture","1536","864","firefox","61.98","Windows 10","20","female","right","Sat Oct 12 2024 00:26:00 GMT+0200 (Mitteleuropäische Sommerzeit)","3","38","0","1728686612202"
"934","j","SpeechGestureMatch","../RequiredFiles/videos/NeinDaumenrunter_m_no_sound.mp4","Ist der Ball in der blauen Box?","Blue","Green","J","negation","na","gesture","na","ThumbDown","male","speech-gesture","1536","864","firefox","61.98","Windows 10","20","female","right","Sat Oct 12 2024 00:26:07 GMT+0200 (Mitteleuropäische Sommerzeit)","3","39","0","1728686612202"
"1515","f","SpeechGestureMatch","../RequiredFiles/videos/JaDaumenhoch_f.mp4","Ist der Ball in der grünen Box?","Green","Blue","F","affirmation","match","gesture","yes","ThumbUp","female","speech-gesture","1536","864","firefox","61.98","Windows 10","20","female","right","Sat Oct 12 2024 00:26:14 GMT+0200 (Mitteleuropäische Sommerzeit)","3","40","0","1728686612202"
"1285","j","SpeechGestureMatch","../RequiredFiles/videos/JaDaumenrunter_m.mp4","Ist der Ball in der grünen Box?","Blue","Green","F","negation","mismatch","gesture","yes","ThumbDown","male","speech-gesture","1536","864","firefox","61.98","Windows 10","20","female","right","Sat Oct 12 2024 00:26:21 GMT+0200 (Mitteleuropäische Sommerzeit)","3","41","1","1728686612202"
"1138","f","SpeechGestureMatch","../RequiredFiles/videos/NeinDaumenrunter_m.mp4","Ist der Ball in der grünen Box?","Blue","Green","F","negation","match","gesture","no","ThumbDown","male","speech-gesture","1536","864","firefox","61.98","Windows 10","20","female","right","Sat Oct 12 2024 00:26:27 GMT+0200 (Mitteleuropäische Sommerzeit)","3","42","0","1728686612202"
"1111","j","SpeechGestureMatch","../RequiredFiles/videos/JaDaumenhoch_m.mp4","Ist der Ball in der blauen Box?","Green","Blue","J","affirmation","match","gesture","yes","ThumbUp","male","speech-gesture","1536","864","firefox","61.98","Windows 10","20","female","right","Sat Oct 12 2024 00:26:34 GMT+0200 (Mitteleuropäische Sommerzeit)","3","43","0","1728686612202"
"1390","j","SpeechGestureMatch","../RequiredFiles/videos/JaDaumenhoch_m.mp4","Ist der Ball in der grünen Box?","Blue","Green","J","affirmation","match","gesture","yes","ThumbUp","male","speech-gesture","1536","864","firefox","61.98","Windows 10","20","female","right","Sat Oct 12 2024 00:26:41 GMT+0200 (Mitteleuropäische Sommerzeit)","3","44","0","1728686612202"
"1254","f","SpeechGestureMatch","../RequiredFiles/videos/JaDaumenrunter_f.mp4","Ist der Ball in der blauen Box?","Green","Blue","F","negation","mismatch","gesture","yes","ThumbDown","female","speech-gesture","1536","864","firefox","61.98","Windows 10","20","female","right","Sat Oct 12 2024 00:26:48 GMT+0200 (Mitteleuropäische Sommerzeit)","3","45","0","1728686612202"
"1092","f","SpeechGestureMatch","../RequiredFiles/videos/JaDaumenrunter_f.mp4","Ist der Ball in der grünen Box?","Blue","Green","F","negation","mismatch","gesture","yes","ThumbDown","female","speech-gesture","1536","864","firefox","61.98","Windows 10","20","female","right","Sat Oct 12 2024 00:26:55 GMT+0200 (Mitteleuropäische Sommerzeit)","3","46","0","1728686612202"
"1147","f","SpeechGestureMatch","../RequiredFiles/videos/JaDaumenhoch_m.mp4","Ist der Ball in der grünen Box?","Green","Blue","F","affirmation","match","gesture","yes","ThumbUp","male","speech-gesture","1536","864","firefox","61.98","Windows 10","20","female","right","Sat Oct 12 2024 00:27:01 GMT+0200 (Mitteleuropäische Sommerzeit)","3","47","0","1728686612202"
"903","f","SpeechGestureMatch","../RequiredFiles/videos/JaDaumenhoch_m_no_sound.mp4","Ist der Ball in der grünen Box?","Green","Blue","F","affirmation","na","gesture","na","ThumbUp","male","speech-gesture","1536","864","firefox","61.98","Windows 10","20","female","right","Sat Oct 12 2024 00:27:08 GMT+0200 (Mitteleuropäische Sommerzeit)","3","48","0","1728686612202"
"1643","j","SpeechGestureMatch","../RequiredFiles/videos/JaDaumenrunter_m.mp4","Ist der Ball in der blauen Box?","Blue","Green","J","negation","mismatch","gesture","yes","ThumbDown","male","speech-gesture","1536","864","firefox","61.98","Windows 10","20","female","right","Sat Oct 12 2024 00:27:15 GMT+0200 (Mitteleuropäische Sommerzeit)","3","49","0","1728686612202"
"948","f","SpeechGestureMatch","../RequiredFiles/videos/JaDaumenrunter_m_no_sound.mp4","Ist der Ball in der blauen Box?","Green","Blue","F","negation","na","gesture","na","ThumbDown","male","speech-gesture","1536","864","firefox","61.98","Windows 10","20","female","right","Sat Oct 12 2024 00:27:22 GMT+0200 (Mitteleuropäische Sommerzeit)","3","50","0","1728686612202"
"975","j","SpeechGestureMatch","../RequiredFiles/videos/JaDaumenhoch_f_no_sound.mp4","Ist der Ball in der blauen Box?","Green","Blue","J","affirmation","na","gesture","na","ThumbUp","female","speech-gesture","1536","864","firefox","61.98","Windows 10","20","female","right","Sat Oct 12 2024 00:27:28 GMT+0200 (Mitteleuropäische Sommerzeit)","3","51","0","1728686612202"
"1342","j","SpeechGestureMatch","../RequiredFiles/videos/JaDaumenrunter_f.mp4","Ist der Ball in der blauen Box?","Blue","Green","J","negation","mismatch","gesture","yes","ThumbDown","female","speech-gesture","1536","864","firefox","61.98","Windows 10","20","female","right","Sat Oct 12 2024 00:27:35 GMT+0200 (Mitteleuropäische Sommerzeit)","3","52","0","1728686612202"
"857","f","SpeechGestureMatch","../RequiredFiles/videos/NeinDaumenrunter_m_no_sound.mp4","Ist der Ball in der blauen Box?","Green","Blue","F","negation","na","gesture","na","ThumbDown","male","speech-gesture","1536","864","firefox","61.98","Windows 10","20","female","right","Sat Oct 12 2024 00:27:42 GMT+0200 (Mitteleuropäische Sommerzeit)","3","53","0","1728686612202"
"1471","j","SpeechGestureMatch","../RequiredFiles/videos/JaDaumenrunter_f.mp4","Ist der Ball in der blauen Box?","Blue","Green","J","negation","mismatch","gesture","yes","ThumbDown","female","speech-gesture","1536","864","firefox","61.98","Windows 10","20","female","right","Sat Oct 12 2024 00:27:49 GMT+0200 (Mitteleuropäische Sommerzeit)","3","54","0","1728686612202"
"1148","j","SpeechGestureMatch","../RequiredFiles/videos/JaDaumenrunter_m.mp4","Ist der Ball in der blauen Box?","Blue","Green","J","negation","mismatch","gesture","yes","ThumbDown","male","speech-gesture","1536","864","firefox","61.98","Windows 10","20","female","right","Sat Oct 12 2024 00:27:56 GMT+0200 (Mitteleuropäische Sommerzeit)","3","55","0","1728686612202"
"1240","j","SpeechGestureMatch","../RequiredFiles/videos/JaDaumenhoch_f.mp4","Ist der Ball in der blauen Box?","Green","Blue","J","affirmation","match","gesture","yes","ThumbUp","female","speech-gesture","1536","864","firefox","61.98","Windows 10","20","female","right","Sat Oct 12 2024 00:28:02 GMT+0200 (Mitteleuropäische Sommerzeit)","3","56","0","1728686612202"
"878","j","SpeechGestureMatch","../RequiredFiles/videos/NeinDaumenrunter_m_no_sound.mp4","Ist der Ball in der grünen Box?","Green","Blue","J","negation","na","gesture","na","ThumbDown","male","speech-gesture","1536","864","firefox","61.98","Windows 10","20","female","right","Sat Oct 12 2024 00:28:09 GMT+0200 (Mitteleuropäische Sommerzeit)","3","57","0","1728686612202"
"1354","f","SpeechGestureMatch","../RequiredFiles/videos/NeinDaumenrunter_m.mp4","Ist der Ball in der blauen Box?","Green","Blue","F","negation","match","gesture","no","ThumbDown","male","speech-gesture","1536","864","firefox","61.98","Windows 10","20","female","right","Sat Oct 12 2024 00:28:16 GMT+0200 (Mitteleuropäische Sommerzeit)","3","58","0","1728686612202"
"1057","j","SpeechGestureMatch","../RequiredFiles/videos/NeinDaumenhoch_m.mp4","Ist der Ball in der blauen Box?","Green","Blue","J","affirmation","mismatch","gesture","no","ThumbUp","male","speech-gesture","1536","864","firefox","61.98","Windows 10","20","female","right","Sat Oct 12 2024 00:28:22 GMT+0200 (Mitteleuropäische Sommerzeit)","3","59","0","1728686612202"
"1130","f","SpeechGestureMatch","../RequiredFiles/videos/JaDaumenrunter_f.mp4","Ist der Ball in der grünen Box?","Blue","Green","F","negation","mismatch","gesture","yes","ThumbDown","female","speech-gesture","1536","864","firefox","61.98","Windows 10","20","female","right","Sat Oct 12 2024 00:28:29 GMT+0200 (Mitteleuropäische Sommerzeit)","3","60","0","1728686612202"
"1299","j","SpeechGestureMatch","../RequiredFiles/videos/JaDaumenrunter_f.mp4","Ist der Ball in der grünen Box?","Green","Blue","J","negation","mismatch","gesture","yes","ThumbDown","female","speech-gesture","1536","864","firefox","61.98","Windows 10","20","female","right","Sat Oct 12 2024 00:28:36 GMT+0200 (Mitteleuropäische Sommerzeit)","3","61","0","1728686612202"
"1369","j","SpeechGestureMatch","../RequiredFiles/videos/NeinDaumenrunter_m.mp4","Ist der Ball in der grünen Box?","Green","Blue","J","negation","match","gesture","no","ThumbDown","male","speech-gesture","1536","864","firefox","61.98","Windows 10","20","female","right","Sat Oct 12 2024 00:28:43 GMT+0200 (Mitteleuropäische Sommerzeit)","3","62","0","1728686612202"
"935","f","SpeechGestureMatch","../RequiredFiles/videos/NeinDaumenrunter_f_no_sound.mp4","Ist der Ball in der grünen Box?","Blue","Green","F","negation","na","gesture","na","ThumbDown","female","speech-gesture","1536","864","firefox","61.98","Windows 10","20","female","right","Sat Oct 12 2024 00:28:49 GMT+0200 (Mitteleuropäische Sommerzeit)","3","63","0","1728686612202"
"1492","j","SpeechGestureMatch","../RequiredFiles/videos/JaDaumenhoch_f.mp4","Ist der Ball in der grünen Box?","Blue","Green","J","affirmation","match","gesture","yes","ThumbUp","female","speech-gesture","1536","864","firefox","61.98","Windows 10","20","female","right","Sat Oct 12 2024 00:28:56 GMT+0200 (Mitteleuropäische Sommerzeit)","3","64","0","1728686612202"
"1007","f","SpeechGestureMatch","../RequiredFiles/videos/NeinDaumenhoch_f_no_sound.mp4","Ist der Ball in der grünen Box?","Green","Blue","F","affirmation","na","gesture","na","ThumbUp","female","speech-gesture","1536","864","firefox","61.98","Windows 10","20","female","right","Sat Oct 12 2024 00:29:03 GMT+0200 (Mitteleuropäische Sommerzeit)","3","65","0","1728686612202"
"901","j","SpeechGestureMatch","../RequiredFiles/videos/NeinDaumenhoch_m_no_sound.mp4","Ist der Ball in der blauen Box?","Green","Blue","J","affirmation","na","gesture","na","ThumbUp","male","speech-gesture","1536","864","firefox","61.98","Windows 10","20","female","right","Sat Oct 12 2024 00:29:09 GMT+0200 (Mitteleuropäische Sommerzeit)","3","66","0","1728686612202"
"1435","j","SpeechGestureMatch","../RequiredFiles/videos/JaDaumenhoch_f.mp4","Ist der Ball in der grünen Box?","Blue","Green","J","affirmation","match","gesture","yes","ThumbUp","female","speech-gesture","1536","864","firefox","61.98","Windows 10","20","female","right","Sat Oct 12 2024 00:29:17 GMT+0200 (Mitteleuropäische Sommerzeit)","3","67","0","1728686612202"
"871","j","SpeechGestureMatch","../RequiredFiles/videos/NeinDaumenhoch_f_no_sound.mp4","Ist der Ball in der blauen Box?","Green","Blue","J","affirmation","na","gesture","na","ThumbUp","female","speech-gesture","1536","864","firefox","61.98","Windows 10","20","female","right","Sat Oct 12 2024 00:29:23 GMT+0200 (Mitteleuropäische Sommerzeit)","3","68","0","1728686612202"
"954","j","SpeechGestureMatch","../RequiredFiles/videos/JaDaumenrunter_m_no_sound.mp4","Ist der Ball in der grünen Box?","Green","Blue","J","negation","na","gesture","na","ThumbDown","male","speech-gesture","1536","864","firefox","61.98","Windows 10","20","female","right","Sat Oct 12 2024 00:29:29 GMT+0200 (Mitteleuropäische Sommerzeit)","3","69","0","1728686612202"
"1529","j","SpeechGestureMatch","../RequiredFiles/videos/NeinDaumenrunter_f.mp4","Ist der Ball in der grünen Box?","Green","Blue","J","negation","match","gesture","no","ThumbDown","female","speech-gesture","1536","864","firefox","61.98","Windows 10","20","female","right","Sat Oct 12 2024 00:29:37 GMT+0200 (Mitteleuropäische Sommerzeit)","3","70","0","1728686612202"
"862","f","SpeechGestureMatch","../RequiredFiles/videos/JaDaumenrunter_f_no_sound.mp4","Ist der Ball in der blauen Box?","Green","Blue","F","negation","na","gesture","na","ThumbDown","female","speech-gesture","1536","864","firefox","61.98","Windows 10","20","female","right","Sat Oct 12 2024 00:29:43 GMT+0200 (Mitteleuropäische Sommerzeit)","3","71","0","1728686612202"
"877","f","SpeechGestureMatch","../RequiredFiles/videos/JaDaumenhoch_m_no_sound.mp4","Ist der Ball in der blauen Box?","Blue","Green","F","affirmation","na","gesture","na","ThumbUp","male","speech-gesture","1536","864","firefox","61.98","Windows 10","20","female","right","Sat Oct 12 2024 00:29:50 GMT+0200 (Mitteleuropäische Sommerzeit)","3","72","0","1728686612202"
"1348","j","SpeechGestureMatch","../RequiredFiles/videos/NeinDaumenhoch_f.mp4","Ist der Ball in der grünen Box?","Blue","Green","J","affirmation","mismatch","gesture","no","ThumbUp","female","speech-gesture","1536","864","firefox","61.98","Windows 10","20","female","right","Sat Oct 12 2024 00:29:56 GMT+0200 (Mitteleuropäische Sommerzeit)","3","73","0","1728686612202"
"1188","j","SpeechGestureMatch","../RequiredFiles/videos/NeinDaumenhoch_f.mp4","Ist der Ball in der blauen Box?","Green","Blue","J","affirmation","mismatch","gesture","no","ThumbUp","female","speech-gesture","1536","864","firefox","61.98","Windows 10","20","female","right","Sat Oct 12 2024 00:30:03 GMT+0200 (Mitteleuropäische Sommerzeit)","3","74","0","1728686612202"
"1193","f","SpeechGestureMatch","../RequiredFiles/videos/NeinDaumenhoch_f.mp4","Ist der Ball in der grünen Box?","Green","Blue","F","affirmation","mismatch","gesture","no","ThumbUp","female","speech-gesture","1536","864","firefox","61.98","Windows 10","20","female","right","Sat Oct 12 2024 00:30:10 GMT+0200 (Mitteleuropäische Sommerzeit)","3","75","0","1728686612202"
"953","f","SpeechGestureMatch","../RequiredFiles/videos/NeinDaumenhoch_m.mp4","Ist der Ball in der blauen Box?","Blue","Green","F","affirmation","mismatch","gesture","no","ThumbUp","male","speech-gesture","1536","864","firefox","61.98","Windows 10","20","female","right","Sat Oct 12 2024 00:30:16 GMT+0200 (Mitteleuropäische Sommerzeit)","3","76","0","1728686612202"
"894","f","SpeechGestureMatch","../RequiredFiles/videos/JaDaumenrunter_m_no_sound.mp4","Ist der Ball in der grünen Box?","Blue","Green","F","negation","na","gesture","na","ThumbDown","male","speech-gesture","1536","864","firefox","61.98","Windows 10","20","female","right","Sat Oct 12 2024 00:30:23 GMT+0200 (Mitteleuropäische Sommerzeit)","3","77","0","1728686612202"
"1352","j","SpeechGestureMatch","../RequiredFiles/videos/NeinDaumenhoch_m.mp4","Ist der Ball in der grünen Box?","Green","Blue","F","affirmation","mismatch","gesture","no","ThumbUp","male","speech-gesture","1536","864","firefox","61.98","Windows 10","20","female","right","Sat Oct 12 2024 00:30:30 GMT+0200 (Mitteleuropäische Sommerzeit)","3","78","1","1728686612202"
