"rt","response","stim","video","question","box_colour_left","box_colour_right","correct_key","polarity","matching","modality","verbal","gesture","speaker","order","width","height","browser","vsync_rate","os","age","gender","handedness","date","blockNum","trialNum","error","vpNum"
"1414","j","SpeechGestureMatch","../RequiredFiles/videos/NeinKopfNein_f.mp4","Ist der Ball in der blauen Box?","Blue","Green","J","negation","match","speech","no","HeadShake","female","speech-gesture","1470","920","chrome","59.76","Mac OS","21","female","right","Wed Oct 23 2024 19:35:50 GMT+0200 (Mitteleuropäische Sommerzeit)","1","1","0","1729707599585"
"843","f","SpeechGestureMatch","../RequiredFiles/videos/JaKopfNein_m.mp4","Ist der Ball in der grünen Box?","Green","Blue","F","affirmation","mismatch","speech","yes","HeadShake","male","speech-gesture","1470","920","chrome","59.76","Mac OS","21","female","right","Wed Oct 23 2024 19:35:57 GMT+0200 (Mitteleuropäische Sommerzeit)","1","2","0","1729707599585"
"901","j","SpeechGestureMatch","../RequiredFiles/videos/NeinKopfNein_f.mp4","Ist der Ball in der blauen Box?","Blue","Green","J","negation","match","speech","no","HeadShake","female","speech-gesture","1470","920","chrome","59.76","Mac OS","21","female","right","Wed Oct 23 2024 19:36:03 GMT+0200 (Mitteleuropäische Sommerzeit)","1","3","0","1729707599585"
"851","j","SpeechGestureMatch","../RequiredFiles/videos/JaKopfJa_m.mp4","Ist der Ball in der grünen Box?","Blue","Green","J","affirmation","match","speech","yes","HeadNod","male","speech-gesture","1470","920","chrome","59.76","Mac OS","21","female","right","Wed Oct 23 2024 19:36:10 GMT+0200 (Mitteleuropäische Sommerzeit)","1","4","0","1729707599585"
"799","f","SpeechGestureMatch","../RequiredFiles/videos/NeinKopfNein_f.mp4","Ist der Ball in der grünen Box?","Blue","Green","F","negation","match","speech","no","HeadShake","female","speech-gesture","1470","920","chrome","59.76","Mac OS","21","female","right","Wed Oct 23 2024 19:36:16 GMT+0200 (Mitteleuropäische Sommerzeit)","1","5","0","1729707599585"
"910","j","SpeechGestureMatch","../RequiredFiles/videos/JaKopfJa_f.mp4","Ist der Ball in der blauen Box?","Green","Blue","J","affirmation","match","speech","yes","HeadNod","female","speech-gesture","1470","920","chrome","59.76","Mac OS","21","female","right","Wed Oct 23 2024 19:36:22 GMT+0200 (Mitteleuropäische Sommerzeit)","1","6","0","1729707599585"
"775","f","SpeechGestureMatch","../RequiredFiles/videos/JaKopfJa_f_no_gesture.mp4","Ist der Ball in der blauen Box?","Blue","Green","F","affirmation","na","speech","yes","na","female","speech-gesture","1470","920","chrome","59.76","Mac OS","21","female","right","Wed Oct 23 2024 19:36:29 GMT+0200 (Mitteleuropäische Sommerzeit)","1","7","0","1729707599585"
"711","j","SpeechGestureMatch","../RequiredFiles/videos/NeinKopfNein_f.mp4","Ist der Ball in der grünen Box?","Green","Blue","J","negation","match","speech","no","HeadShake","female","speech-gesture","1470","920","chrome","59.76","Mac OS","21","female","right","Wed Oct 23 2024 19:36:35 GMT+0200 (Mitteleuropäische Sommerzeit)","1","8","0","1729707599585"
"1022","j","SpeechGestureMatch","../RequiredFiles/videos/JaKopfNein_m.mp4","Ist der Ball in der blauen Box?","Blue","Green","F","affirmation","mismatch","speech","yes","HeadShake","male","speech-gesture","1470","920","chrome","59.76","Mac OS","21","female","right","Wed Oct 23 2024 19:36:41 GMT+0200 (Mitteleuropäische Sommerzeit)","1","9","1","1729707599585"
"975","f","SpeechGestureMatch","../RequiredFiles/videos/JaKopfNein_f_no_gesture.mp4","Ist der Ball in der grünen Box?","Green","Blue","F","affirmation","na","speech","yes","na","female","speech-gesture","1470","920","chrome","59.76","Mac OS","21","female","right","Wed Oct 23 2024 19:36:48 GMT+0200 (Mitteleuropäische Sommerzeit)","1","10","0","1729707599585"
"806","f","SpeechGestureMatch","../RequiredFiles/videos/NeinKopfJa_m.mp4","Ist der Ball in der grünen Box?","Blue","Green","F","negation","mismatch","speech","no","HeadNod","male","speech-gesture","1470","920","chrome","59.76","Mac OS","21","female","right","Wed Oct 23 2024 19:36:54 GMT+0200 (Mitteleuropäische Sommerzeit)","1","11","0","1729707599585"
"890","f","SpeechGestureMatch","../RequiredFiles/videos/NeinKopfJa_m.mp4","Ist der Ball in der blauen Box?","Green","Blue","F","negation","mismatch","speech","no","HeadNod","male","speech-gesture","1470","920","chrome","59.76","Mac OS","21","female","right","Wed Oct 23 2024 19:37:01 GMT+0200 (Mitteleuropäische Sommerzeit)","1","12","0","1729707599585"
"803","j","SpeechGestureMatch","../RequiredFiles/videos/JaKopfJa_m_no_gesture.mp4","Ist der Ball in der blauen Box?","Green","Blue","J","affirmation","na","speech","yes","na","male","speech-gesture","1470","920","chrome","59.76","Mac OS","21","female","right","Wed Oct 23 2024 19:37:07 GMT+0200 (Mitteleuropäische Sommerzeit)","1","13","0","1729707599585"
"848","f","SpeechGestureMatch","../RequiredFiles/videos/NeinKopfJa_f.mp4","Ist der Ball in der grünen Box?","Blue","Green","F","negation","mismatch","speech","no","HeadNod","female","speech-gesture","1470","920","chrome","59.76","Mac OS","21","female","right","Wed Oct 23 2024 19:37:13 GMT+0200 (Mitteleuropäische Sommerzeit)","1","14","0","1729707599585"
"818","j","SpeechGestureMatch","../RequiredFiles/videos/JaKopfNein_m_no_gesture.mp4","Ist der Ball in der blauen Box?","Green","Blue","J","affirmation","na","speech","yes","na","male","speech-gesture","1470","920","chrome","59.76","Mac OS","21","female","right","Wed Oct 23 2024 19:37:20 GMT+0200 (Mitteleuropäische Sommerzeit)","1","15","0","1729707599585"
"750","f","SpeechGestureMatch","../RequiredFiles/videos/JaKopfJa_f.mp4","Ist der Ball in der grünen Box?","Green","Blue","F","affirmation","match","speech","yes","HeadNod","female","speech-gesture","1470","920","chrome","59.76","Mac OS","21","female","right","Wed Oct 23 2024 19:37:26 GMT+0200 (Mitteleuropäische Sommerzeit)","1","16","0","1729707599585"
"822","j","SpeechGestureMatch","../RequiredFiles/videos/JaKopfNein_f.mp4","Ist der Ball in der blauen Box?","Green","Blue","J","affirmation","mismatch","speech","yes","HeadShake","female","speech-gesture","1470","920","chrome","59.76","Mac OS","21","female","right","Wed Oct 23 2024 19:37:32 GMT+0200 (Mitteleuropäische Sommerzeit)","1","17","0","1729707599585"
"2279","f","SpeechGestureMatch","../RequiredFiles/videos/NeinKopfJa_f.mp4","Ist der Ball in der blauen Box?","Green","Blue","F","negation","mismatch","speech","no","HeadNod","female","speech-gesture","1470","920","chrome","59.76","Mac OS","21","female","right","Wed Oct 23 2024 19:37:40 GMT+0200 (Mitteleuropäische Sommerzeit)","1","18","0","1729707599585"
"830","f","SpeechGestureMatch","../RequiredFiles/videos/JaKopfNein_f.mp4","Ist der Ball in der grünen Box?","Green","Blue","F","affirmation","mismatch","speech","yes","HeadShake","female","speech-gesture","1470","920","chrome","59.76","Mac OS","21","female","right","Wed Oct 23 2024 19:37:46 GMT+0200 (Mitteleuropäische Sommerzeit)","1","19","0","1729707599585"
"1094","f","SpeechGestureMatch","../RequiredFiles/videos/NeinKopfNein_f_no_gesture.mp4","Ist der Ball in der grünen Box?","Blue","Green","F","negation","na","speech","no","na","female","speech-gesture","1470","920","chrome","59.76","Mac OS","21","female","right","Wed Oct 23 2024 19:37:53 GMT+0200 (Mitteleuropäische Sommerzeit)","1","20","0","1729707599585"
"942","j","SpeechGestureMatch","../RequiredFiles/videos/NeinKopfJa_f_no_gesture.mp4","Ist der Ball in der grünen Box?","Green","Blue","J","negation","na","speech","no","na","female","speech-gesture","1470","920","chrome","59.76","Mac OS","21","female","right","Wed Oct 23 2024 19:37:59 GMT+0200 (Mitteleuropäische Sommerzeit)","1","21","0","1729707599585"
"803","j","SpeechGestureMatch","../RequiredFiles/videos/NeinKopfJa_f.mp4","Ist der Ball in der grünen Box?","Green","Blue","J","negation","mismatch","speech","no","HeadNod","female","speech-gesture","1470","920","chrome","59.76","Mac OS","21","female","right","Wed Oct 23 2024 19:38:06 GMT+0200 (Mitteleuropäische Sommerzeit)","1","22","0","1729707599585"
"1266","j","SpeechGestureMatch","../RequiredFiles/videos/JaKopfNein_m_no_gesture.mp4","Ist der Ball in der grünen Box?","Blue","Green","J","affirmation","na","speech","yes","na","male","speech-gesture","1470","920","chrome","59.76","Mac OS","21","female","right","Wed Oct 23 2024 19:38:13 GMT+0200 (Mitteleuropäische Sommerzeit)","1","23","0","1729707599585"
"647","f","SpeechGestureMatch","../RequiredFiles/videos/NeinKopfJa_m_no_gesture.mp4","Ist der Ball in der grünen Box?","Blue","Green","F","negation","na","speech","no","na","male","speech-gesture","1470","920","chrome","59.76","Mac OS","21","female","right","Wed Oct 23 2024 19:38:19 GMT+0200 (Mitteleuropäische Sommerzeit)","1","24","0","1729707599585"
"752","f","SpeechGestureMatch","../RequiredFiles/videos/JaKopfNein_m_no_gesture.mp4","Ist der Ball in der grünen Box?","Green","Blue","F","affirmation","na","speech","yes","na","male","speech-gesture","1470","920","chrome","59.76","Mac OS","21","female","right","Wed Oct 23 2024 19:38:25 GMT+0200 (Mitteleuropäische Sommerzeit)","1","25","0","1729707599585"
"975","f","SpeechGestureMatch","../RequiredFiles/videos/NeinKopfJa_m.mp4","Ist der Ball in der grünen Box?","Blue","Green","F","negation","mismatch","speech","no","HeadNod","male","speech-gesture","1470","920","chrome","59.76","Mac OS","21","female","right","Wed Oct 23 2024 19:38:31 GMT+0200 (Mitteleuropäische Sommerzeit)","1","26","0","1729707599585"
"710","j","SpeechGestureMatch","../RequiredFiles/videos/NeinKopfNein_m_no_gesture.mp4","Ist der Ball in der blauen Box?","Blue","Green","J","negation","na","speech","no","na","male","speech-gesture","1470","920","chrome","59.76","Mac OS","21","female","right","Wed Oct 23 2024 19:38:38 GMT+0200 (Mitteleuropäische Sommerzeit)","1","27","0","1729707599585"
"867","f","SpeechGestureMatch","../RequiredFiles/videos/JaKopfJa_m.mp4","Ist der Ball in der grünen Box?","Green","Blue","F","affirmation","match","speech","yes","HeadNod","male","speech-gesture","1470","920","chrome","59.76","Mac OS","21","female","right","Wed Oct 23 2024 19:38:44 GMT+0200 (Mitteleuropäische Sommerzeit)","1","28","0","1729707599585"
"995","j","SpeechGestureMatch","../RequiredFiles/videos/JaKopfJa_f_no_gesture.mp4","Ist der Ball in der grünen Box?","Blue","Green","J","affirmation","na","speech","yes","na","female","speech-gesture","1470","920","chrome","59.76","Mac OS","21","female","right","Wed Oct 23 2024 19:38:51 GMT+0200 (Mitteleuropäische Sommerzeit)","1","29","0","1729707599585"
"825","j","SpeechGestureMatch","../RequiredFiles/videos/NeinKopfJa_f_no_gesture.mp4","Ist der Ball in der blauen Box?","Blue","Green","J","negation","na","speech","no","na","female","speech-gesture","1470","920","chrome","59.76","Mac OS","21","female","right","Wed Oct 23 2024 19:38:57 GMT+0200 (Mitteleuropäische Sommerzeit)","1","30","0","1729707599585"
"725","f","SpeechGestureMatch","../RequiredFiles/videos/JaKopfJa_m_no_gesture.mp4","Ist der Ball in der grünen Box?","Green","Blue","F","affirmation","na","speech","yes","na","male","speech-gesture","1470","920","chrome","59.76","Mac OS","21","female","right","Wed Oct 23 2024 19:39:03 GMT+0200 (Mitteleuropäische Sommerzeit)","1","31","0","1729707599585"
"837","j","SpeechGestureMatch","../RequiredFiles/videos/NeinKopfJa_m.mp4","Ist der Ball in der grünen Box?","Green","Blue","J","negation","mismatch","speech","no","HeadNod","male","speech-gesture","1470","920","chrome","59.76","Mac OS","21","female","right","Wed Oct 23 2024 19:39:09 GMT+0200 (Mitteleuropäische Sommerzeit)","1","32","0","1729707599585"
"1232","f","SpeechGestureMatch","../RequiredFiles/videos/JaKopfJa_m.mp4","Ist der Ball in der blauen Box?","Blue","Green","F","affirmation","match","speech","yes","HeadNod","male","speech-gesture","1470","920","chrome","59.76","Mac OS","21","female","right","Wed Oct 23 2024 19:39:16 GMT+0200 (Mitteleuropäische Sommerzeit)","1","33","0","1729707599585"
"699","f","SpeechGestureMatch","../RequiredFiles/videos/NeinKopfJa_f_no_gesture.mp4","Ist der Ball in der blauen Box?","Green","Blue","F","negation","na","speech","no","na","female","speech-gesture","1470","920","chrome","59.76","Mac OS","21","female","right","Wed Oct 23 2024 19:39:22 GMT+0200 (Mitteleuropäische Sommerzeit)","1","34","0","1729707599585"
"682","j","SpeechGestureMatch","../RequiredFiles/videos/JaKopfJa_m.mp4","Ist der Ball in der blauen Box?","Green","Blue","J","affirmation","match","speech","yes","HeadNod","male","speech-gesture","1470","920","chrome","59.76","Mac OS","21","female","right","Wed Oct 23 2024 19:39:29 GMT+0200 (Mitteleuropäische Sommerzeit)","1","35","0","1729707599585"
"1079","j","SpeechGestureMatch","../RequiredFiles/videos/NeinKopfNein_m.mp4","Ist der Ball in der grünen Box?","Green","Blue","J","negation","match","speech","no","HeadShake","male","speech-gesture","1470","920","chrome","59.76","Mac OS","21","female","right","Wed Oct 23 2024 19:39:35 GMT+0200 (Mitteleuropäische Sommerzeit)","1","36","0","1729707599585"
"873","f","SpeechGestureMatch","../RequiredFiles/videos/JaKopfNein_f.mp4","Ist der Ball in der grünen Box?","Blue","Green","J","affirmation","mismatch","speech","yes","HeadShake","female","speech-gesture","1470","920","chrome","59.76","Mac OS","21","female","right","Wed Oct 23 2024 19:39:42 GMT+0200 (Mitteleuropäische Sommerzeit)","1","37","1","1729707599585"
"1246","f","SpeechGestureMatch","../RequiredFiles/videos/NeinKopfNein_m.mp4","Ist der Ball in der grünen Box?","Blue","Green","F","negation","match","speech","no","HeadShake","male","speech-gesture","1470","920","chrome","59.76","Mac OS","21","female","right","Wed Oct 23 2024 19:39:48 GMT+0200 (Mitteleuropäische Sommerzeit)","1","38","0","1729707599585"
"1114","f","SpeechGestureMatch","../RequiredFiles/videos/JaKopfJa_m.mp4","Ist der Ball in der grünen Box?","Green","Blue","F","affirmation","match","speech","yes","HeadNod","male","speech-gesture","1470","920","chrome","59.76","Mac OS","21","female","right","Wed Oct 23 2024 19:39:55 GMT+0200 (Mitteleuropäische Sommerzeit)","1","39","0","1729707599585"
"826","j","SpeechGestureMatch","../RequiredFiles/videos/NeinKopfJa_m_no_gesture.mp4","Ist der Ball in der blauen Box?","Blue","Green","J","negation","na","speech","no","na","male","speech-gesture","1470","920","chrome","59.76","Mac OS","21","female","right","Wed Oct 23 2024 19:40:01 GMT+0200 (Mitteleuropäische Sommerzeit)","1","40","0","1729707599585"
"784","f","SpeechGestureMatch","../RequiredFiles/videos/NeinKopfJa_m.mp4","Ist der Ball in der blauen Box?","Green","Blue","F","negation","mismatch","speech","no","HeadNod","male","speech-gesture","1470","920","chrome","59.76","Mac OS","21","female","right","Wed Oct 23 2024 19:40:08 GMT+0200 (Mitteleuropäische Sommerzeit)","1","41","0","1729707599585"
"820","j","SpeechGestureMatch","../RequiredFiles/videos/NeinKopfJa_m.mp4","Ist der Ball in der grünen Box?","Green","Blue","J","negation","mismatch","speech","no","HeadNod","male","speech-gesture","1470","920","chrome","59.76","Mac OS","21","female","right","Wed Oct 23 2024 19:40:14 GMT+0200 (Mitteleuropäische Sommerzeit)","1","42","0","1729707599585"
"850","j","SpeechGestureMatch","../RequiredFiles/videos/JaKopfNein_f.mp4","Ist der Ball in der blauen Box?","Blue","Green","F","affirmation","mismatch","speech","yes","HeadShake","female","speech-gesture","1470","920","chrome","59.76","Mac OS","21","female","right","Wed Oct 23 2024 19:40:20 GMT+0200 (Mitteleuropäische Sommerzeit)","1","43","1","1729707599585"
"884","f","SpeechGestureMatch","../RequiredFiles/videos/NeinKopfNein_f.mp4","Ist der Ball in der grünen Box?","Blue","Green","F","negation","match","speech","no","HeadShake","female","speech-gesture","1470","920","chrome","59.76","Mac OS","21","female","right","Wed Oct 23 2024 19:40:27 GMT+0200 (Mitteleuropäische Sommerzeit)","1","44","0","1729707599585"
"809","j","SpeechGestureMatch","../RequiredFiles/videos/JaKopfJa_m.mp4","Ist der Ball in der grünen Box?","Blue","Green","J","affirmation","match","speech","yes","HeadNod","male","speech-gesture","1470","920","chrome","59.76","Mac OS","21","female","right","Wed Oct 23 2024 19:40:33 GMT+0200 (Mitteleuropäische Sommerzeit)","1","45","0","1729707599585"
"1273","j","SpeechGestureMatch","../RequiredFiles/videos/JaKopfJa_m_no_gesture.mp4","Ist der Ball in der grünen Box?","Blue","Green","J","affirmation","na","speech","yes","na","male","speech-gesture","1470","920","chrome","59.76","Mac OS","21","female","right","Wed Oct 23 2024 19:40:40 GMT+0200 (Mitteleuropäische Sommerzeit)","1","46","0","1729707599585"
"780","j","SpeechGestureMatch","../RequiredFiles/videos/NeinKopfNein_f_no_gesture.mp4","Ist der Ball in der blauen Box?","Blue","Green","J","negation","na","speech","no","na","female","speech-gesture","1470","920","chrome","59.76","Mac OS","21","female","right","Wed Oct 23 2024 19:40:46 GMT+0200 (Mitteleuropäische Sommerzeit)","1","47","0","1729707599585"
"1135","f","SpeechGestureMatch","../RequiredFiles/videos/NeinKopfNein_f_no_gesture.mp4","Ist der Ball in der blauen Box?","Green","Blue","F","negation","na","speech","no","na","female","speech-gesture","1470","920","chrome","59.76","Mac OS","21","female","right","Wed Oct 23 2024 19:40:53 GMT+0200 (Mitteleuropäische Sommerzeit)","1","48","0","1729707599585"
"691","j","SpeechGestureMatch","../RequiredFiles/videos/JaKopfNein_m.mp4","Ist der Ball in der grünen Box?","Blue","Green","J","affirmation","mismatch","speech","yes","HeadShake","male","speech-gesture","1470","920","chrome","59.76","Mac OS","21","female","right","Wed Oct 23 2024 19:40:59 GMT+0200 (Mitteleuropäische Sommerzeit)","1","49","0","1729707599585"
"800","f","SpeechGestureMatch","../RequiredFiles/videos/JaKopfJa_m_no_gesture.mp4","Ist der Ball in der blauen Box?","Blue","Green","F","affirmation","na","speech","yes","na","male","speech-gesture","1470","920","chrome","59.76","Mac OS","21","female","right","Wed Oct 23 2024 19:41:05 GMT+0200 (Mitteleuropäische Sommerzeit)","1","50","0","1729707599585"
"1004","f","SpeechGestureMatch","../RequiredFiles/videos/NeinKopfNein_f.mp4","Ist der Ball in der blauen Box?","Green","Blue","F","negation","match","speech","no","HeadShake","female","speech-gesture","1470","920","chrome","59.76","Mac OS","21","female","right","Wed Oct 23 2024 19:41:12 GMT+0200 (Mitteleuropäische Sommerzeit)","1","51","0","1729707599585"
"1366","j","SpeechGestureMatch","../RequiredFiles/videos/NeinKopfNein_m.mp4","Ist der Ball in der blauen Box?","Blue","Green","J","negation","match","speech","no","HeadShake","male","speech-gesture","1470","920","chrome","59.76","Mac OS","21","female","right","Wed Oct 23 2024 19:41:19 GMT+0200 (Mitteleuropäische Sommerzeit)","1","52","0","1729707599585"
"1085","f","SpeechGestureMatch","../RequiredFiles/videos/NeinKopfJa_f.mp4","Ist der Ball in der blauen Box?","Blue","Green","J","negation","mismatch","speech","no","HeadNod","female","speech-gesture","1470","920","chrome","59.76","Mac OS","21","female","right","Wed Oct 23 2024 19:41:25 GMT+0200 (Mitteleuropäische Sommerzeit)","1","53","1","1729707599585"
"951","f","SpeechGestureMatch","../RequiredFiles/videos/JaKopfNein_m.mp4","Ist der Ball in der grünen Box?","Green","Blue","F","affirmation","mismatch","speech","yes","HeadShake","male","speech-gesture","1470","920","chrome","59.76","Mac OS","21","female","right","Wed Oct 23 2024 19:41:32 GMT+0200 (Mitteleuropäische Sommerzeit)","1","54","0","1729707599585"
"1259","j","SpeechGestureMatch","../RequiredFiles/videos/NeinKopfNein_m.mp4","Ist der Ball in der blauen Box?","Blue","Green","J","negation","match","speech","no","HeadShake","male","speech-gesture","1470","920","chrome","59.76","Mac OS","21","female","right","Wed Oct 23 2024 19:41:39 GMT+0200 (Mitteleuropäische Sommerzeit)","1","55","0","1729707599585"
"1062","j","SpeechGestureMatch","../RequiredFiles/videos/JaKopfNein_m.mp4","Ist der Ball in der blauen Box?","Green","Blue","J","affirmation","mismatch","speech","yes","HeadShake","male","speech-gesture","1470","920","chrome","59.76","Mac OS","21","female","right","Wed Oct 23 2024 19:41:45 GMT+0200 (Mitteleuropäische Sommerzeit)","1","56","0","1729707599585"
"2191","j","SpeechGestureMatch","../RequiredFiles/videos/NeinKopfJa_f.mp4","Ist der Ball in der blauen Box?","Blue","Green","J","negation","mismatch","speech","no","HeadNod","female","speech-gesture","1470","920","chrome","59.76","Mac OS","21","female","right","Wed Oct 23 2024 19:41:53 GMT+0200 (Mitteleuropäische Sommerzeit)","1","57","0","1729707599585"
"1327","f","SpeechGestureMatch","../RequiredFiles/videos/JaKopfNein_m_no_gesture.mp4","Ist der Ball in der blauen Box?","Blue","Green","F","affirmation","na","speech","yes","na","male","speech-gesture","1470","920","chrome","59.76","Mac OS","21","female","right","Wed Oct 23 2024 19:42:00 GMT+0200 (Mitteleuropäische Sommerzeit)","1","58","0","1729707599585"
"1383","f","SpeechGestureMatch","../RequiredFiles/videos/NeinKopfNein_f.mp4","Ist der Ball in der blauen Box?","Green","Blue","F","negation","match","speech","no","HeadShake","female","speech-gesture","1470","920","chrome","59.76","Mac OS","21","female","right","Wed Oct 23 2024 19:42:07 GMT+0200 (Mitteleuropäische Sommerzeit)","1","59","0","1729707599585"
"908","j","SpeechGestureMatch","../RequiredFiles/videos/NeinKopfNein_m.mp4","Ist der Ball in der grünen Box?","Green","Blue","J","negation","match","speech","no","HeadShake","male","speech-gesture","1470","920","chrome","59.76","Mac OS","21","female","right","Wed Oct 23 2024 19:42:13 GMT+0200 (Mitteleuropäische Sommerzeit)","1","60","0","1729707599585"
"1028","j","SpeechGestureMatch","../RequiredFiles/videos/JaKopfNein_m.mp4","Ist der Ball in der blauen Box?","Green","Blue","J","affirmation","mismatch","speech","yes","HeadShake","male","speech-gesture","1470","920","chrome","59.76","Mac OS","21","female","right","Wed Oct 23 2024 19:42:20 GMT+0200 (Mitteleuropäische Sommerzeit)","1","61","0","1729707599585"
"1995","j","SpeechGestureMatch","../RequiredFiles/videos/NeinKopfJa_f.mp4","Ist der Ball in der blauen Box?","Green","Blue","F","negation","mismatch","speech","no","HeadNod","female","speech-gesture","1470","920","chrome","59.76","Mac OS","21","female","right","Wed Oct 23 2024 19:42:27 GMT+0200 (Mitteleuropäische Sommerzeit)","1","62","1","1729707599585"
"1901","j","SpeechGestureMatch","../RequiredFiles/videos/JaKopfJa_m.mp4","Ist der Ball in der blauen Box?","Green","Blue","J","affirmation","match","speech","yes","HeadNod","male","speech-gesture","1470","920","chrome","59.76","Mac OS","21","female","right","Wed Oct 23 2024 19:42:35 GMT+0200 (Mitteleuropäische Sommerzeit)","1","63","0","1729707599585"
"1121","j","SpeechGestureMatch","../RequiredFiles/videos/JaKopfNein_f_no_gesture.mp4","Ist der Ball in der grünen Box?","Blue","Green","J","affirmation","na","speech","yes","na","female","speech-gesture","1470","920","chrome","59.76","Mac OS","21","female","right","Wed Oct 23 2024 19:42:41 GMT+0200 (Mitteleuropäische Sommerzeit)","1","64","0","1729707599585"
"1202","j","SpeechGestureMatch","../RequiredFiles/videos/NeinKopfNein_f_no_gesture.mp4","Ist der Ball in der grünen Box?","Green","Blue","J","negation","na","speech","no","na","female","speech-gesture","1470","920","chrome","59.76","Mac OS","21","female","right","Wed Oct 23 2024 19:42:48 GMT+0200 (Mitteleuropäische Sommerzeit)","1","65","0","1729707599585"
"988","j","SpeechGestureMatch","../RequiredFiles/videos/JaKopfJa_f.mp4","Ist der Ball in der grünen Box?","Blue","Green","J","affirmation","match","speech","yes","HeadNod","female","speech-gesture","1470","920","chrome","59.76","Mac OS","21","female","right","Wed Oct 23 2024 19:42:54 GMT+0200 (Mitteleuropäische Sommerzeit)","1","66","0","1729707599585"
"1331","f","SpeechGestureMatch","../RequiredFiles/videos/NeinKopfJa_f_no_gesture.mp4","Ist der Ball in der grünen Box?","Blue","Green","F","negation","na","speech","no","na","female","speech-gesture","1470","920","chrome","59.76","Mac OS","21","female","right","Wed Oct 23 2024 19:43:01 GMT+0200 (Mitteleuropäische Sommerzeit)","1","67","0","1729707599585"
"1042","f","SpeechGestureMatch","../RequiredFiles/videos/NeinKopfNein_m.mp4","Ist der Ball in der grünen Box?","Blue","Green","F","negation","match","speech","no","HeadShake","male","speech-gesture","1470","920","chrome","59.76","Mac OS","21","female","right","Wed Oct 23 2024 19:43:08 GMT+0200 (Mitteleuropäische Sommerzeit)","1","68","0","1729707599585"
"1159","j","SpeechGestureMatch","../RequiredFiles/videos/NeinKopfNein_f.mp4","Ist der Ball in der grünen Box?","Green","Blue","J","negation","match","speech","no","HeadShake","female","speech-gesture","1470","920","chrome","59.76","Mac OS","21","female","right","Wed Oct 23 2024 19:43:14 GMT+0200 (Mitteleuropäische Sommerzeit)","1","69","0","1729707599585"
"1174","f","SpeechGestureMatch","../RequiredFiles/videos/JaKopfNein_f.mp4","Ist der Ball in der grünen Box?","Green","Blue","F","affirmation","mismatch","speech","yes","HeadShake","female","speech-gesture","1470","920","chrome","59.76","Mac OS","21","female","right","Wed Oct 23 2024 19:43:21 GMT+0200 (Mitteleuropäische Sommerzeit)","1","70","0","1729707599585"
"1059","j","SpeechGestureMatch","../RequiredFiles/videos/NeinKopfJa_m_no_gesture.mp4","Ist der Ball in der grünen Box?","Green","Blue","J","negation","na","speech","no","na","male","speech-gesture","1470","920","chrome","59.76","Mac OS","21","female","right","Wed Oct 23 2024 19:43:28 GMT+0200 (Mitteleuropäische Sommerzeit)","1","71","0","1729707599585"
"800","f","SpeechGestureMatch","../RequiredFiles/videos/JaKopfNein_m.mp4","Ist der Ball in der blauen Box?","Blue","Green","F","affirmation","mismatch","speech","yes","HeadShake","male","speech-gesture","1470","920","chrome","59.76","Mac OS","21","female","right","Wed Oct 23 2024 19:43:34 GMT+0200 (Mitteleuropäische Sommerzeit)","1","72","0","1729707599585"
"1212","f","SpeechGestureMatch","../RequiredFiles/videos/JaKopfNein_m.mp4","Ist der Ball in der grünen Box?","Blue","Green","J","affirmation","mismatch","speech","yes","HeadShake","male","speech-gesture","1470","920","chrome","59.76","Mac OS","21","female","right","Wed Oct 23 2024 19:43:41 GMT+0200 (Mitteleuropäische Sommerzeit)","1","73","1","1729707599585"
"825","j","SpeechGestureMatch","../RequiredFiles/videos/JaKopfJa_f.mp4","Ist der Ball in der blauen Box?","Green","Blue","J","affirmation","match","speech","yes","HeadNod","female","speech-gesture","1470","920","chrome","59.76","Mac OS","21","female","right","Wed Oct 23 2024 19:43:47 GMT+0200 (Mitteleuropäische Sommerzeit)","1","74","0","1729707599585"
"983","f","SpeechGestureMatch","../RequiredFiles/videos/JaKopfJa_f_no_gesture.mp4","Ist der Ball in der grünen Box?","Green","Blue","F","affirmation","na","speech","yes","na","female","speech-gesture","1470","920","chrome","59.76","Mac OS","21","female","right","Wed Oct 23 2024 19:43:54 GMT+0200 (Mitteleuropäische Sommerzeit)","1","75","0","1729707599585"
"938","f","SpeechGestureMatch","../RequiredFiles/videos/JaKopfJa_f.mp4","Ist der Ball in der blauen Box?","Blue","Green","F","affirmation","match","speech","yes","HeadNod","female","speech-gesture","1470","920","chrome","59.76","Mac OS","21","female","right","Wed Oct 23 2024 19:44:00 GMT+0200 (Mitteleuropäische Sommerzeit)","1","76","0","1729707599585"
"1091","j","SpeechGestureMatch","../RequiredFiles/videos/JaKopfNein_f.mp4","Ist der Ball in der grünen Box?","Blue","Green","J","affirmation","mismatch","speech","yes","HeadShake","female","speech-gesture","1470","920","chrome","59.76","Mac OS","21","female","right","Wed Oct 23 2024 19:44:07 GMT+0200 (Mitteleuropäische Sommerzeit)","1","77","0","1729707599585"
"1029","f","SpeechGestureMatch","../RequiredFiles/videos/NeinKopfNein_m.mp4","Ist der Ball in der blauen Box?","Green","Blue","F","negation","match","speech","no","HeadShake","male","speech-gesture","1470","920","chrome","59.76","Mac OS","21","female","right","Wed Oct 23 2024 19:44:13 GMT+0200 (Mitteleuropäische Sommerzeit)","1","78","0","1729707599585"
"1137","f","SpeechGestureMatch","../RequiredFiles/videos/NeinKopfNein_m_no_gesture.mp4","Ist der Ball in der blauen Box?","Green","Blue","F","negation","na","speech","no","na","male","speech-gesture","1470","920","chrome","59.76","Mac OS","21","female","right","Wed Oct 23 2024 19:44:20 GMT+0200 (Mitteleuropäische Sommerzeit)","1","79","0","1729707599585"
"934","f","SpeechGestureMatch","../RequiredFiles/videos/NeinKopfNein_m.mp4","Ist der Ball in der blauen Box?","Green","Blue","F","negation","match","speech","no","HeadShake","male","speech-gesture","1470","920","chrome","59.76","Mac OS","21","female","right","Wed Oct 23 2024 19:44:26 GMT+0200 (Mitteleuropäische Sommerzeit)","1","80","0","1729707599585"
"983","j","SpeechGestureMatch","../RequiredFiles/videos/NeinKopfNein_m_no_gesture.mp4","Ist der Ball in der grünen Box?","Green","Blue","J","negation","na","speech","no","na","male","speech-gesture","1470","920","chrome","59.76","Mac OS","21","female","right","Wed Oct 23 2024 19:44:33 GMT+0200 (Mitteleuropäische Sommerzeit)","1","81","0","1729707599585"
"852","f","SpeechGestureMatch","../RequiredFiles/videos/JaKopfNein_f_no_gesture.mp4","Ist der Ball in der blauen Box?","Blue","Green","F","affirmation","na","speech","yes","na","female","speech-gesture","1470","920","chrome","59.76","Mac OS","21","female","right","Wed Oct 23 2024 19:44:39 GMT+0200 (Mitteleuropäische Sommerzeit)","1","82","0","1729707599585"
"1770","j","SpeechGestureMatch","../RequiredFiles/videos/NeinKopfJa_f.mp4","Ist der Ball in der grünen Box?","Blue","Green","F","negation","mismatch","speech","no","HeadNod","female","speech-gesture","1470","920","chrome","59.76","Mac OS","21","female","right","Wed Oct 23 2024 19:44:46 GMT+0200 (Mitteleuropäische Sommerzeit)","1","83","1","1729707599585"
"1254","j","SpeechGestureMatch","../RequiredFiles/videos/JaKopfJa_f_no_gesture.mp4","Ist der Ball in der blauen Box?","Green","Blue","J","affirmation","na","speech","yes","na","female","speech-gesture","1470","920","chrome","59.76","Mac OS","21","female","right","Wed Oct 23 2024 19:44:53 GMT+0200 (Mitteleuropäische Sommerzeit)","1","84","0","1729707599585"
"1250","j","SpeechGestureMatch","../RequiredFiles/videos/JaKopfNein_f.mp4","Ist der Ball in der blauen Box?","Green","Blue","J","affirmation","mismatch","speech","yes","HeadShake","female","speech-gesture","1470","920","chrome","59.76","Mac OS","21","female","right","Wed Oct 23 2024 19:45:00 GMT+0200 (Mitteleuropäische Sommerzeit)","1","85","0","1729707599585"
"997","j","SpeechGestureMatch","../RequiredFiles/videos/NeinKopfJa_m.mp4","Ist der Ball in der blauen Box?","Blue","Green","J","negation","mismatch","speech","no","HeadNod","male","speech-gesture","1470","920","chrome","59.76","Mac OS","21","female","right","Wed Oct 23 2024 19:45:06 GMT+0200 (Mitteleuropäische Sommerzeit)","1","86","0","1729707599585"
"1635","j","SpeechGestureMatch","../RequiredFiles/videos/JaKopfJa_f.mp4","Ist der Ball in der grünen Box?","Blue","Green","J","affirmation","match","speech","yes","HeadNod","female","speech-gesture","1470","920","chrome","59.76","Mac OS","21","female","right","Wed Oct 23 2024 19:45:14 GMT+0200 (Mitteleuropäische Sommerzeit)","1","87","0","1729707599585"
"1536","j","SpeechGestureMatch","../RequiredFiles/videos/NeinKopfJa_m.mp4","Ist der Ball in der blauen Box?","Blue","Green","J","negation","mismatch","speech","no","HeadNod","male","speech-gesture","1470","920","chrome","59.76","Mac OS","21","female","right","Wed Oct 23 2024 19:45:21 GMT+0200 (Mitteleuropäische Sommerzeit)","1","88","0","1729707599585"
"1623","f","SpeechGestureMatch","../RequiredFiles/videos/JaKopfJa_f.mp4","Ist der Ball in der blauen Box?","Blue","Green","F","affirmation","match","speech","yes","HeadNod","female","speech-gesture","1470","920","chrome","59.76","Mac OS","21","female","right","Wed Oct 23 2024 19:45:28 GMT+0200 (Mitteleuropäische Sommerzeit)","1","89","0","1729707599585"
"826","j","SpeechGestureMatch","../RequiredFiles/videos/JaKopfNein_f_no_gesture.mp4","Ist der Ball in der blauen Box?","Green","Blue","J","affirmation","na","speech","yes","na","female","speech-gesture","1470","920","chrome","59.76","Mac OS","21","female","right","Wed Oct 23 2024 19:45:34 GMT+0200 (Mitteleuropäische Sommerzeit)","1","90","0","1729707599585"
"1117","f","SpeechGestureMatch","../RequiredFiles/videos/JaKopfJa_m.mp4","Ist der Ball in der blauen Box?","Blue","Green","F","affirmation","match","speech","yes","HeadNod","male","speech-gesture","1470","920","chrome","59.76","Mac OS","21","female","right","Wed Oct 23 2024 19:45:41 GMT+0200 (Mitteleuropäische Sommerzeit)","1","91","0","1729707599585"
"1544","f","SpeechGestureMatch","../RequiredFiles/videos/JaKopfNein_f.mp4","Ist der Ball in der blauen Box?","Blue","Green","F","affirmation","mismatch","speech","yes","HeadShake","female","speech-gesture","1470","920","chrome","59.76","Mac OS","21","female","right","Wed Oct 23 2024 19:45:48 GMT+0200 (Mitteleuropäische Sommerzeit)","1","92","0","1729707599585"
"871","f","SpeechGestureMatch","../RequiredFiles/videos/NeinKopfJa_m_no_gesture.mp4","Ist der Ball in der blauen Box?","Green","Blue","F","negation","na","speech","no","na","male","speech-gesture","1470","920","chrome","59.76","Mac OS","21","female","right","Wed Oct 23 2024 19:45:54 GMT+0200 (Mitteleuropäische Sommerzeit)","1","93","0","1729707599585"
"1325","j","SpeechGestureMatch","../RequiredFiles/videos/NeinKopfJa_f.mp4","Ist der Ball in der grünen Box?","Green","Blue","J","negation","mismatch","speech","no","HeadNod","female","speech-gesture","1470","920","chrome","59.76","Mac OS","21","female","right","Wed Oct 23 2024 19:46:01 GMT+0200 (Mitteleuropäische Sommerzeit)","1","94","0","1729707599585"
"1137","f","SpeechGestureMatch","../RequiredFiles/videos/JaKopfJa_f.mp4","Ist der Ball in der grünen Box?","Green","Blue","F","affirmation","match","speech","yes","HeadNod","female","speech-gesture","1470","920","chrome","59.76","Mac OS","21","female","right","Wed Oct 23 2024 19:46:08 GMT+0200 (Mitteleuropäische Sommerzeit)","1","95","0","1729707599585"
"1369","f","SpeechGestureMatch","../RequiredFiles/videos/NeinKopfNein_m_no_gesture.mp4","Ist der Ball in der grünen Box?","Blue","Green","F","negation","na","speech","no","na","male","speech-gesture","1470","920","chrome","59.76","Mac OS","21","female","right","Wed Oct 23 2024 19:46:15 GMT+0200 (Mitteleuropäische Sommerzeit)","1","96","0","1729707599585"
"878","j","SpeechGestureMatch","../RequiredFiles/videos/JaKopfJa_m_no_gesture.mp4","Ist der Ball in der blauen Box?","Green","Blue","J","affirmation","na","speech","yes","na","male","speech-gesture","1470","920","chrome","59.76","Mac OS","21","female","right","Wed Oct 23 2024 19:46:30 GMT+0200 (Mitteleuropäische Sommerzeit)","2","1","0","1729707599585"
"849","j","SpeechGestureMatch","../RequiredFiles/videos/NeinKopfJa_m.mp4","Ist der Ball in der grünen Box?","Green","Blue","J","negation","mismatch","speech","no","HeadNod","male","speech-gesture","1470","920","chrome","59.76","Mac OS","21","female","right","Wed Oct 23 2024 19:46:36 GMT+0200 (Mitteleuropäische Sommerzeit)","2","2","0","1729707599585"
"1205","f","SpeechGestureMatch","../RequiredFiles/videos/JaKopfNein_f.mp4","Ist der Ball in der grünen Box?","Green","Blue","F","affirmation","mismatch","speech","yes","HeadShake","female","speech-gesture","1470","920","chrome","59.76","Mac OS","21","female","right","Wed Oct 23 2024 19:46:43 GMT+0200 (Mitteleuropäische Sommerzeit)","2","3","0","1729707599585"
"835","j","SpeechGestureMatch","../RequiredFiles/videos/JaKopfNein_f.mp4","Ist der Ball in der grünen Box?","Blue","Green","J","affirmation","mismatch","speech","yes","HeadShake","female","speech-gesture","1470","920","chrome","59.76","Mac OS","21","female","right","Wed Oct 23 2024 19:46:49 GMT+0200 (Mitteleuropäische Sommerzeit)","2","4","0","1729707599585"
"732","j","SpeechGestureMatch","../RequiredFiles/videos/NeinKopfJa_f.mp4","Ist der Ball in der grünen Box?","Green","Blue","J","negation","mismatch","speech","no","HeadNod","female","speech-gesture","1470","920","chrome","59.76","Mac OS","21","female","right","Wed Oct 23 2024 19:46:56 GMT+0200 (Mitteleuropäische Sommerzeit)","2","5","0","1729707599585"
"896","f","SpeechGestureMatch","../RequiredFiles/videos/JaKopfJa_f_no_gesture.mp4","Ist der Ball in der blauen Box?","Green","Blue","J","affirmation","na","speech","yes","na","female","speech-gesture","1470","920","chrome","59.76","Mac OS","21","female","right","Wed Oct 23 2024 19:47:02 GMT+0200 (Mitteleuropäische Sommerzeit)","2","6","1","1729707599585"
"1333","j","SpeechGestureMatch","../RequiredFiles/videos/NeinKopfNein_f.mp4","Ist der Ball in der grünen Box?","Green","Blue","J","negation","match","speech","no","HeadShake","female","speech-gesture","1470","920","chrome","59.76","Mac OS","21","female","right","Wed Oct 23 2024 19:47:09 GMT+0200 (Mitteleuropäische Sommerzeit)","2","7","0","1729707599585"
"840","f","SpeechGestureMatch","../RequiredFiles/videos/NeinKopfJa_m.mp4","Ist der Ball in der blauen Box?","Green","Blue","F","negation","mismatch","speech","no","HeadNod","male","speech-gesture","1470","920","chrome","59.76","Mac OS","21","female","right","Wed Oct 23 2024 19:47:15 GMT+0200 (Mitteleuropäische Sommerzeit)","2","8","0","1729707599585"
"928","f","SpeechGestureMatch","../RequiredFiles/videos/JaKopfJa_m_no_gesture.mp4","Ist der Ball in der grünen Box?","Green","Blue","F","affirmation","na","speech","yes","na","male","speech-gesture","1470","920","chrome","59.76","Mac OS","21","female","right","Wed Oct 23 2024 19:47:22 GMT+0200 (Mitteleuropäische Sommerzeit)","2","9","0","1729707599585"
"770","j","SpeechGestureMatch","../RequiredFiles/videos/JaKopfJa_f.mp4","Ist der Ball in der blauen Box?","Green","Blue","J","affirmation","match","speech","yes","HeadNod","female","speech-gesture","1470","920","chrome","59.76","Mac OS","21","female","right","Wed Oct 23 2024 19:47:28 GMT+0200 (Mitteleuropäische Sommerzeit)","2","10","0","1729707599585"
"912","f","SpeechGestureMatch","../RequiredFiles/videos/JaKopfNein_f_no_gesture.mp4","Ist der Ball in der grünen Box?","Green","Blue","F","affirmation","na","speech","yes","na","female","speech-gesture","1470","920","chrome","59.76","Mac OS","21","female","right","Wed Oct 23 2024 19:47:34 GMT+0200 (Mitteleuropäische Sommerzeit)","2","11","0","1729707599585"
"1225","j","SpeechGestureMatch","../RequiredFiles/videos/NeinKopfNein_f.mp4","Ist der Ball in der blauen Box?","Blue","Green","J","negation","match","speech","no","HeadShake","female","speech-gesture","1470","920","chrome","59.76","Mac OS","21","female","right","Wed Oct 23 2024 19:47:41 GMT+0200 (Mitteleuropäische Sommerzeit)","2","12","0","1729707599585"
"1158","f","SpeechGestureMatch","../RequiredFiles/videos/JaKopfNein_m.mp4","Ist der Ball in der grünen Box?","Green","Blue","F","affirmation","mismatch","speech","yes","HeadShake","male","speech-gesture","1470","920","chrome","59.76","Mac OS","21","female","right","Wed Oct 23 2024 19:47:48 GMT+0200 (Mitteleuropäische Sommerzeit)","2","13","0","1729707599585"
"1899","f","SpeechGestureMatch","../RequiredFiles/videos/JaKopfNein_m.mp4","Ist der Ball in der blauen Box?","Blue","Green","F","affirmation","mismatch","speech","yes","HeadShake","male","speech-gesture","1470","920","chrome","59.76","Mac OS","21","female","right","Wed Oct 23 2024 19:47:55 GMT+0200 (Mitteleuropäische Sommerzeit)","2","14","0","1729707599585"
"770","f","SpeechGestureMatch","../RequiredFiles/videos/JaKopfNein_m_no_gesture.mp4","Ist der Ball in der grünen Box?","Green","Blue","F","affirmation","na","speech","yes","na","male","speech-gesture","1470","920","chrome","59.76","Mac OS","21","female","right","Wed Oct 23 2024 19:48:02 GMT+0200 (Mitteleuropäische Sommerzeit)","2","15","0","1729707599585"
"1013","f","SpeechGestureMatch","../RequiredFiles/videos/NeinKopfJa_m_no_gesture.mp4","Ist der Ball in der grünen Box?","Blue","Green","F","negation","na","speech","no","na","male","speech-gesture","1470","920","chrome","59.76","Mac OS","21","female","right","Wed Oct 23 2024 19:48:08 GMT+0200 (Mitteleuropäische Sommerzeit)","2","16","0","1729707599585"
"883","f","SpeechGestureMatch","../RequiredFiles/videos/NeinKopfJa_m.mp4","Ist der Ball in der blauen Box?","Blue","Green","J","negation","mismatch","speech","no","HeadNod","male","speech-gesture","1470","920","chrome","59.76","Mac OS","21","female","right","Wed Oct 23 2024 19:48:14 GMT+0200 (Mitteleuropäische Sommerzeit)","2","17","1","1729707599585"
"1271","f","SpeechGestureMatch","../RequiredFiles/videos/JaKopfJa_f.mp4","Ist der Ball in der grünen Box?","Green","Blue","F","affirmation","match","speech","yes","HeadNod","female","speech-gesture","1470","920","chrome","59.76","Mac OS","21","female","right","Wed Oct 23 2024 19:48:21 GMT+0200 (Mitteleuropäische Sommerzeit)","2","18","0","1729707599585"
"983","f","SpeechGestureMatch","../RequiredFiles/videos/NeinKopfNein_f.mp4","Ist der Ball in der blauen Box?","Green","Blue","F","negation","match","speech","no","HeadShake","female","speech-gesture","1470","920","chrome","59.76","Mac OS","21","female","right","Wed Oct 23 2024 19:48:28 GMT+0200 (Mitteleuropäische Sommerzeit)","2","19","0","1729707599585"
"1450","f","SpeechGestureMatch","../RequiredFiles/videos/JaKopfNein_f.mp4","Ist der Ball in der blauen Box?","Blue","Green","F","affirmation","mismatch","speech","yes","HeadShake","female","speech-gesture","1470","920","chrome","59.76","Mac OS","21","female","right","Wed Oct 23 2024 19:48:35 GMT+0200 (Mitteleuropäische Sommerzeit)","2","20","0","1729707599585"
"983","f","SpeechGestureMatch","../RequiredFiles/videos/NeinKopfNein_m.mp4","Ist der Ball in der blauen Box?","Green","Blue","F","negation","match","speech","no","HeadShake","male","speech-gesture","1470","920","chrome","59.76","Mac OS","21","female","right","Wed Oct 23 2024 19:48:41 GMT+0200 (Mitteleuropäische Sommerzeit)","2","21","0","1729707599585"
"906","j","SpeechGestureMatch","../RequiredFiles/videos/JaKopfNein_m_no_gesture.mp4","Ist der Ball in der blauen Box?","Green","Blue","J","affirmation","na","speech","yes","na","male","speech-gesture","1470","920","chrome","59.76","Mac OS","21","female","right","Wed Oct 23 2024 19:48:48 GMT+0200 (Mitteleuropäische Sommerzeit)","2","22","0","1729707599585"
"1198","f","SpeechGestureMatch","../RequiredFiles/videos/NeinKopfJa_f_no_gesture.mp4","Ist der Ball in der grünen Box?","Blue","Green","F","negation","na","speech","no","na","female","speech-gesture","1470","920","chrome","59.76","Mac OS","21","female","right","Wed Oct 23 2024 19:48:54 GMT+0200 (Mitteleuropäische Sommerzeit)","2","23","0","1729707599585"
"929","j","SpeechGestureMatch","../RequiredFiles/videos/NeinKopfNein_m.mp4","Ist der Ball in der grünen Box?","Green","Blue","J","negation","match","speech","no","HeadShake","male","speech-gesture","1470","920","chrome","59.76","Mac OS","21","female","right","Wed Oct 23 2024 19:49:01 GMT+0200 (Mitteleuropäische Sommerzeit)","2","24","0","1729707599585"
"1073","f","SpeechGestureMatch","../RequiredFiles/videos/NeinKopfNein_m.mp4","Ist der Ball in der grünen Box?","Blue","Green","F","negation","match","speech","no","HeadShake","male","speech-gesture","1470","920","chrome","59.76","Mac OS","21","female","right","Wed Oct 23 2024 19:49:07 GMT+0200 (Mitteleuropäische Sommerzeit)","2","25","0","1729707599585"
"1252","j","SpeechGestureMatch","../RequiredFiles/videos/JaKopfNein_f_no_gesture.mp4","Ist der Ball in der grünen Box?","Blue","Green","J","affirmation","na","speech","yes","na","female","speech-gesture","1470","920","chrome","59.76","Mac OS","21","female","right","Wed Oct 23 2024 19:49:14 GMT+0200 (Mitteleuropäische Sommerzeit)","2","26","0","1729707599585"
"854","j","SpeechGestureMatch","../RequiredFiles/videos/JaKopfJa_m.mp4","Ist der Ball in der blauen Box?","Green","Blue","J","affirmation","match","speech","yes","HeadNod","male","speech-gesture","1470","920","chrome","59.76","Mac OS","21","female","right","Wed Oct 23 2024 19:49:21 GMT+0200 (Mitteleuropäische Sommerzeit)","2","27","0","1729707599585"
"1099","j","SpeechGestureMatch","../RequiredFiles/videos/JaKopfNein_m.mp4","Ist der Ball in der grünen Box?","Blue","Green","J","affirmation","mismatch","speech","yes","HeadShake","male","speech-gesture","1470","920","chrome","59.76","Mac OS","21","female","right","Wed Oct 23 2024 19:49:27 GMT+0200 (Mitteleuropäische Sommerzeit)","2","28","0","1729707599585"
"1835","f","SpeechGestureMatch","../RequiredFiles/videos/NeinKopfJa_m.mp4","Ist der Ball in der blauen Box?","Green","Blue","F","negation","mismatch","speech","no","HeadNod","male","speech-gesture","1470","920","chrome","59.76","Mac OS","21","female","right","Wed Oct 23 2024 19:49:34 GMT+0200 (Mitteleuropäische Sommerzeit)","2","29","0","1729707599585"
"1701","j","SpeechGestureMatch","../RequiredFiles/videos/NeinKopfJa_m.mp4","Ist der Ball in der grünen Box?","Green","Blue","J","negation","mismatch","speech","no","HeadNod","male","speech-gesture","1470","920","chrome","59.76","Mac OS","21","female","right","Wed Oct 23 2024 19:49:42 GMT+0200 (Mitteleuropäische Sommerzeit)","2","30","0","1729707599585"
"1942","f","SpeechGestureMatch","../RequiredFiles/videos/JaKopfJa_f.mp4","Ist der Ball in der grünen Box?","Green","Blue","F","affirmation","match","speech","yes","HeadNod","female","speech-gesture","1470","920","chrome","59.76","Mac OS","21","female","right","Wed Oct 23 2024 19:49:49 GMT+0200 (Mitteleuropäische Sommerzeit)","2","31","0","1729707599585"
"1349","f","SpeechGestureMatch","../RequiredFiles/videos/NeinKopfNein_f_no_gesture.mp4","Ist der Ball in der grünen Box?","Blue","Green","F","negation","na","speech","no","na","female","speech-gesture","1470","920","chrome","59.76","Mac OS","21","female","right","Wed Oct 23 2024 19:49:56 GMT+0200 (Mitteleuropäische Sommerzeit)","2","32","0","1729707599585"
"1698","f","SpeechGestureMatch","../RequiredFiles/videos/NeinKopfJa_m.mp4","Ist der Ball in der grünen Box?","Blue","Green","F","negation","mismatch","speech","no","HeadNod","male","speech-gesture","1470","920","chrome","59.76","Mac OS","21","female","right","Wed Oct 23 2024 19:50:03 GMT+0200 (Mitteleuropäische Sommerzeit)","2","33","0","1729707599585"
"1077","j","SpeechGestureMatch","../RequiredFiles/videos/NeinKopfNein_f.mp4","Ist der Ball in der blauen Box?","Blue","Green","J","negation","match","speech","no","HeadShake","female","speech-gesture","1470","920","chrome","59.76","Mac OS","21","female","right","Wed Oct 23 2024 19:50:10 GMT+0200 (Mitteleuropäische Sommerzeit)","2","34","0","1729707599585"
"2048","j","SpeechGestureMatch","../RequiredFiles/videos/JaKopfJa_m.mp4","Ist der Ball in der grünen Box?","Blue","Green","J","affirmation","match","speech","yes","HeadNod","male","speech-gesture","1470","920","chrome","59.76","Mac OS","21","female","right","Wed Oct 23 2024 19:50:17 GMT+0200 (Mitteleuropäische Sommerzeit)","2","35","0","1729707599585"
"2103","f","SpeechGestureMatch","../RequiredFiles/videos/JaKopfNein_f_no_gesture.mp4","Ist der Ball in der blauen Box?","Blue","Green","F","affirmation","na","speech","yes","na","female","speech-gesture","1470","920","chrome","59.76","Mac OS","21","female","right","Wed Oct 23 2024 19:50:25 GMT+0200 (Mitteleuropäische Sommerzeit)","2","36","0","1729707599585"
"1503","f","SpeechGestureMatch","../RequiredFiles/videos/NeinKopfJa_f.mp4","Ist der Ball in der blauen Box?","Green","Blue","F","negation","mismatch","speech","no","HeadNod","female","speech-gesture","1470","920","chrome","59.76","Mac OS","21","female","right","Wed Oct 23 2024 19:50:32 GMT+0200 (Mitteleuropäische Sommerzeit)","2","37","0","1729707599585"
"1531","j","SpeechGestureMatch","../RequiredFiles/videos/NeinKopfJa_f_no_gesture.mp4","Ist der Ball in der grünen Box?","Green","Blue","J","negation","na","speech","no","na","female","speech-gesture","1470","920","chrome","59.76","Mac OS","21","female","right","Wed Oct 23 2024 19:50:39 GMT+0200 (Mitteleuropäische Sommerzeit)","2","38","0","1729707599585"
"1214","j","SpeechGestureMatch","../RequiredFiles/videos/JaKopfJa_m.mp4","Ist der Ball in der grünen Box?","Blue","Green","J","affirmation","match","speech","yes","HeadNod","male","speech-gesture","1470","920","chrome","59.76","Mac OS","21","female","right","Wed Oct 23 2024 19:50:46 GMT+0200 (Mitteleuropäische Sommerzeit)","2","39","0","1729707599585"
"1214","f","SpeechGestureMatch","../RequiredFiles/videos/NeinKopfNein_f.mp4","Ist der Ball in der blauen Box?","Green","Blue","F","negation","match","speech","no","HeadShake","female","speech-gesture","1470","920","chrome","59.76","Mac OS","21","female","right","Wed Oct 23 2024 19:50:53 GMT+0200 (Mitteleuropäische Sommerzeit)","2","40","0","1729707599585"
"1379","j","SpeechGestureMatch","../RequiredFiles/videos/NeinKopfNein_f_no_gesture.mp4","Ist der Ball in der blauen Box?","Blue","Green","J","negation","na","speech","no","na","female","speech-gesture","1470","920","chrome","59.76","Mac OS","21","female","right","Wed Oct 23 2024 19:50:59 GMT+0200 (Mitteleuropäische Sommerzeit)","2","41","0","1729707599585"
"1115","j","SpeechGestureMatch","../RequiredFiles/videos/NeinKopfJa_f_no_gesture.mp4","Ist der Ball in der blauen Box?","Blue","Green","J","negation","na","speech","no","na","female","speech-gesture","1470","920","chrome","59.76","Mac OS","21","female","right","Wed Oct 23 2024 19:51:06 GMT+0200 (Mitteleuropäische Sommerzeit)","2","42","0","1729707599585"
"896","f","SpeechGestureMatch","../RequiredFiles/videos/NeinKopfNein_m_no_gesture.mp4","Ist der Ball in der blauen Box?","Green","Blue","F","negation","na","speech","no","na","male","speech-gesture","1470","920","chrome","59.76","Mac OS","21","female","right","Wed Oct 23 2024 19:51:12 GMT+0200 (Mitteleuropäische Sommerzeit)","2","43","0","1729707599585"
"1158","j","SpeechGestureMatch","../RequiredFiles/videos/NeinKopfNein_m.mp4","Ist der Ball in der blauen Box?","Blue","Green","J","negation","match","speech","no","HeadShake","male","speech-gesture","1470","920","chrome","59.76","Mac OS","21","female","right","Wed Oct 23 2024 19:51:19 GMT+0200 (Mitteleuropäische Sommerzeit)","2","44","0","1729707599585"
"962","j","SpeechGestureMatch","../RequiredFiles/videos/JaKopfJa_m_no_gesture.mp4","Ist der Ball in der blauen Box?","Blue","Green","F","affirmation","na","speech","yes","na","male","speech-gesture","1470","920","chrome","59.76","Mac OS","21","female","right","Wed Oct 23 2024 19:51:26 GMT+0200 (Mitteleuropäische Sommerzeit)","2","45","1","1729707599585"
"1348","j","SpeechGestureMatch","../RequiredFiles/videos/JaKopfNein_f.mp4","Ist der Ball in der blauen Box?","Green","Blue","J","affirmation","mismatch","speech","yes","HeadShake","female","speech-gesture","1470","920","chrome","59.76","Mac OS","21","female","right","Wed Oct 23 2024 19:51:33 GMT+0200 (Mitteleuropäische Sommerzeit)","2","46","0","1729707599585"
"810","f","SpeechGestureMatch","../RequiredFiles/videos/NeinKopfJa_m.mp4","Ist der Ball in der grünen Box?","Blue","Green","F","negation","mismatch","speech","no","HeadNod","male","speech-gesture","1470","920","chrome","59.76","Mac OS","21","female","right","Wed Oct 23 2024 19:51:39 GMT+0200 (Mitteleuropäische Sommerzeit)","2","47","0","1729707599585"
"1181","f","SpeechGestureMatch","../RequiredFiles/videos/NeinKopfNein_f.mp4","Ist der Ball in der grünen Box?","Blue","Green","F","negation","match","speech","no","HeadShake","female","speech-gesture","1470","920","chrome","59.76","Mac OS","21","female","right","Wed Oct 23 2024 19:51:46 GMT+0200 (Mitteleuropäische Sommerzeit)","2","48","0","1729707599585"
"1056","f","SpeechGestureMatch","../RequiredFiles/videos/JaKopfJa_f.mp4","Ist der Ball in der blauen Box?","Blue","Green","F","affirmation","match","speech","yes","HeadNod","female","speech-gesture","1470","920","chrome","59.76","Mac OS","21","female","right","Wed Oct 23 2024 19:51:52 GMT+0200 (Mitteleuropäische Sommerzeit)","2","49","0","1729707599585"
"1092","f","SpeechGestureMatch","../RequiredFiles/videos/JaKopfJa_m.mp4","Ist der Ball in der blauen Box?","Blue","Green","F","affirmation","match","speech","yes","HeadNod","male","speech-gesture","1470","920","chrome","59.76","Mac OS","21","female","right","Wed Oct 23 2024 19:51:59 GMT+0200 (Mitteleuropäische Sommerzeit)","2","50","0","1729707599585"
"918","f","SpeechGestureMatch","../RequiredFiles/videos/JaKopfNein_f.mp4","Ist der Ball in der blauen Box?","Blue","Green","F","affirmation","mismatch","speech","yes","HeadShake","female","speech-gesture","1470","920","chrome","59.76","Mac OS","21","female","right","Wed Oct 23 2024 19:52:05 GMT+0200 (Mitteleuropäische Sommerzeit)","2","51","0","1729707599585"
"780","j","SpeechGestureMatch","../RequiredFiles/videos/JaKopfJa_m_no_gesture.mp4","Ist der Ball in der grünen Box?","Blue","Green","J","affirmation","na","speech","yes","na","male","speech-gesture","1470","920","chrome","59.76","Mac OS","21","female","right","Wed Oct 23 2024 19:52:12 GMT+0200 (Mitteleuropäische Sommerzeit)","2","52","0","1729707599585"
"1147","j","SpeechGestureMatch","../RequiredFiles/videos/NeinKopfNein_m.mp4","Ist der Ball in der blauen Box?","Green","Blue","F","negation","match","speech","no","HeadShake","male","speech-gesture","1470","920","chrome","59.76","Mac OS","21","female","right","Wed Oct 23 2024 19:52:18 GMT+0200 (Mitteleuropäische Sommerzeit)","2","53","1","1729707599585"
"938","j","SpeechGestureMatch","../RequiredFiles/videos/NeinKopfJa_m_no_gesture.mp4","Ist der Ball in der grünen Box?","Green","Blue","J","negation","na","speech","no","na","male","speech-gesture","1470","920","chrome","59.76","Mac OS","21","female","right","Wed Oct 23 2024 19:52:25 GMT+0200 (Mitteleuropäische Sommerzeit)","2","54","0","1729707599585"
"1031","j","SpeechGestureMatch","../RequiredFiles/videos/JaKopfJa_f.mp4","Ist der Ball in der grünen Box?","Blue","Green","J","affirmation","match","speech","yes","HeadNod","female","speech-gesture","1470","920","chrome","59.76","Mac OS","21","female","right","Wed Oct 23 2024 19:52:31 GMT+0200 (Mitteleuropäische Sommerzeit)","2","55","0","1729707599585"
"1267","f","SpeechGestureMatch","../RequiredFiles/videos/NeinKopfNein_m_no_gesture.mp4","Ist der Ball in der grünen Box?","Blue","Green","F","negation","na","speech","no","na","male","speech-gesture","1470","920","chrome","59.76","Mac OS","21","female","right","Wed Oct 23 2024 19:52:38 GMT+0200 (Mitteleuropäische Sommerzeit)","2","56","0","1729707599585"
"2017","j","SpeechGestureMatch","../RequiredFiles/videos/NeinKopfJa_f.mp4","Ist der Ball in der blauen Box?","Blue","Green","J","negation","mismatch","speech","no","HeadNod","female","speech-gesture","1470","920","chrome","59.76","Mac OS","21","female","right","Wed Oct 23 2024 19:52:46 GMT+0200 (Mitteleuropäische Sommerzeit)","2","57","0","1729707599585"
"1102","j","SpeechGestureMatch","../RequiredFiles/videos/JaKopfNein_f.mp4","Ist der Ball in der grünen Box?","Blue","Green","J","affirmation","mismatch","speech","yes","HeadShake","female","speech-gesture","1470","920","chrome","59.76","Mac OS","21","female","right","Wed Oct 23 2024 19:52:52 GMT+0200 (Mitteleuropäische Sommerzeit)","2","58","0","1729707599585"
"1265","j","SpeechGestureMatch","../RequiredFiles/videos/NeinKopfNein_m_no_gesture.mp4","Ist der Ball in der blauen Box?","Blue","Green","J","negation","na","speech","no","na","male","speech-gesture","1470","920","chrome","59.76","Mac OS","21","female","right","Wed Oct 23 2024 19:52:59 GMT+0200 (Mitteleuropäische Sommerzeit)","2","59","0","1729707599585"
"957","j","SpeechGestureMatch","../RequiredFiles/videos/NeinKopfJa_m.mp4","Ist der Ball in der blauen Box?","Blue","Green","J","negation","mismatch","speech","no","HeadNod","male","speech-gesture","1470","920","chrome","59.76","Mac OS","21","female","right","Wed Oct 23 2024 19:53:05 GMT+0200 (Mitteleuropäische Sommerzeit)","2","60","0","1729707599585"
"1927","f","SpeechGestureMatch","../RequiredFiles/videos/JaKopfNein_m.mp4","Ist der Ball in der blauen Box?","Blue","Green","F","affirmation","mismatch","speech","yes","HeadShake","male","speech-gesture","1470","920","chrome","59.76","Mac OS","21","female","right","Wed Oct 23 2024 19:53:13 GMT+0200 (Mitteleuropäische Sommerzeit)","2","61","0","1729707599585"
"830","f","SpeechGestureMatch","../RequiredFiles/videos/JaKopfJa_f_no_gesture.mp4","Ist der Ball in der grünen Box?","Green","Blue","F","affirmation","na","speech","yes","na","female","speech-gesture","1470","920","chrome","59.76","Mac OS","21","female","right","Wed Oct 23 2024 19:53:19 GMT+0200 (Mitteleuropäische Sommerzeit)","2","62","0","1729707599585"
"1036","f","SpeechGestureMatch","../RequiredFiles/videos/NeinKopfJa_f.mp4","Ist der Ball in der blauen Box?","Green","Blue","F","negation","mismatch","speech","no","HeadNod","female","speech-gesture","1470","920","chrome","59.76","Mac OS","21","female","right","Wed Oct 23 2024 19:53:26 GMT+0200 (Mitteleuropäische Sommerzeit)","2","63","0","1729707599585"
"1011","j","SpeechGestureMatch","../RequiredFiles/videos/JaKopfNein_m.mp4","Ist der Ball in der blauen Box?","Green","Blue","J","affirmation","mismatch","speech","yes","HeadShake","male","speech-gesture","1470","920","chrome","59.76","Mac OS","21","female","right","Wed Oct 23 2024 19:53:32 GMT+0200 (Mitteleuropäische Sommerzeit)","2","64","0","1729707599585"
"936","j","SpeechGestureMatch","../RequiredFiles/videos/JaKopfNein_m.mp4","Ist der Ball in der grünen Box?","Blue","Green","J","affirmation","mismatch","speech","yes","HeadShake","male","speech-gesture","1470","920","chrome","59.76","Mac OS","21","female","right","Wed Oct 23 2024 19:53:39 GMT+0200 (Mitteleuropäische Sommerzeit)","2","65","0","1729707599585"
"980","f","SpeechGestureMatch","../RequiredFiles/videos/JaKopfJa_f.mp4","Ist der Ball in der blauen Box?","Blue","Green","F","affirmation","match","speech","yes","HeadNod","female","speech-gesture","1470","920","chrome","59.76","Mac OS","21","female","right","Wed Oct 23 2024 19:53:45 GMT+0200 (Mitteleuropäische Sommerzeit)","2","66","0","1729707599585"
"962","j","SpeechGestureMatch","../RequiredFiles/videos/JaKopfNein_f.mp4","Ist der Ball in der blauen Box?","Green","Blue","J","affirmation","mismatch","speech","yes","HeadShake","female","speech-gesture","1470","920","chrome","59.76","Mac OS","21","female","right","Wed Oct 23 2024 19:53:52 GMT+0200 (Mitteleuropäische Sommerzeit)","2","67","0","1729707599585"
"1653","j","SpeechGestureMatch","../RequiredFiles/videos/NeinKopfJa_f.mp4","Ist der Ball in der blauen Box?","Blue","Green","J","negation","mismatch","speech","no","HeadNod","female","speech-gesture","1470","920","chrome","59.76","Mac OS","21","female","right","Wed Oct 23 2024 19:53:59 GMT+0200 (Mitteleuropäische Sommerzeit)","2","68","0","1729707599585"
"901","f","SpeechGestureMatch","../RequiredFiles/videos/NeinKopfJa_f.mp4","Ist der Ball in der grünen Box?","Blue","Green","F","negation","mismatch","speech","no","HeadNod","female","speech-gesture","1470","920","chrome","59.76","Mac OS","21","female","right","Wed Oct 23 2024 19:54:05 GMT+0200 (Mitteleuropäische Sommerzeit)","2","69","0","1729707599585"
"923","f","SpeechGestureMatch","../RequiredFiles/videos/JaKopfJa_f_no_gesture.mp4","Ist der Ball in der blauen Box?","Blue","Green","F","affirmation","na","speech","yes","na","female","speech-gesture","1470","920","chrome","59.76","Mac OS","21","female","right","Wed Oct 23 2024 19:54:12 GMT+0200 (Mitteleuropäische Sommerzeit)","2","70","0","1729707599585"
"1139","f","SpeechGestureMatch","../RequiredFiles/videos/JaKopfNein_m.mp4","Ist der Ball in der grünen Box?","Green","Blue","F","affirmation","mismatch","speech","yes","HeadShake","male","speech-gesture","1470","920","chrome","59.76","Mac OS","21","female","right","Wed Oct 23 2024 19:54:18 GMT+0200 (Mitteleuropäische Sommerzeit)","2","71","0","1729707599585"
"947","j","SpeechGestureMatch","../RequiredFiles/videos/NeinKopfNein_m.mp4","Ist der Ball in der blauen Box?","Blue","Green","J","negation","match","speech","no","HeadShake","male","speech-gesture","1470","920","chrome","59.76","Mac OS","21","female","right","Wed Oct 23 2024 19:54:25 GMT+0200 (Mitteleuropäische Sommerzeit)","2","72","0","1729707599585"
"1354","f","SpeechGestureMatch","../RequiredFiles/videos/JaKopfJa_m.mp4","Ist der Ball in der grünen Box?","Green","Blue","F","affirmation","match","speech","yes","HeadNod","male","speech-gesture","1470","920","chrome","59.76","Mac OS","21","female","right","Wed Oct 23 2024 19:54:32 GMT+0200 (Mitteleuropäische Sommerzeit)","2","73","0","1729707599585"
"1050","j","SpeechGestureMatch","../RequiredFiles/videos/JaKopfNein_f_no_gesture.mp4","Ist der Ball in der blauen Box?","Green","Blue","J","affirmation","na","speech","yes","na","female","speech-gesture","1470","920","chrome","59.76","Mac OS","21","female","right","Wed Oct 23 2024 19:54:38 GMT+0200 (Mitteleuropäische Sommerzeit)","2","74","0","1729707599585"
"784","f","SpeechGestureMatch","../RequiredFiles/videos/JaKopfJa_m.mp4","Ist der Ball in der blauen Box?","Blue","Green","F","affirmation","match","speech","yes","HeadNod","male","speech-gesture","1470","920","chrome","59.76","Mac OS","21","female","right","Wed Oct 23 2024 19:54:45 GMT+0200 (Mitteleuropäische Sommerzeit)","2","75","0","1729707599585"
"884","j","SpeechGestureMatch","../RequiredFiles/videos/JaKopfJa_f_no_gesture.mp4","Ist der Ball in der grünen Box?","Blue","Green","J","affirmation","na","speech","yes","na","female","speech-gesture","1470","920","chrome","59.76","Mac OS","21","female","right","Wed Oct 23 2024 19:54:51 GMT+0200 (Mitteleuropäische Sommerzeit)","2","76","0","1729707599585"
"875","j","SpeechGestureMatch","../RequiredFiles/videos/NeinKopfNein_f_no_gesture.mp4","Ist der Ball in der grünen Box?","Green","Blue","J","negation","na","speech","no","na","female","speech-gesture","1470","920","chrome","59.76","Mac OS","21","female","right","Wed Oct 23 2024 19:54:57 GMT+0200 (Mitteleuropäische Sommerzeit)","2","77","0","1729707599585"
"1181","f","SpeechGestureMatch","../RequiredFiles/videos/NeinKopfNein_f_no_gesture.mp4","Ist der Ball in der blauen Box?","Green","Blue","F","negation","na","speech","no","na","female","speech-gesture","1470","920","chrome","59.76","Mac OS","21","female","right","Wed Oct 23 2024 19:55:04 GMT+0200 (Mitteleuropäische Sommerzeit)","2","78","0","1729707599585"
"1779","f","SpeechGestureMatch","../RequiredFiles/videos/NeinKopfJa_f.mp4","Ist der Ball in der grünen Box?","Blue","Green","F","negation","mismatch","speech","no","HeadNod","female","speech-gesture","1470","920","chrome","59.76","Mac OS","21","female","right","Wed Oct 23 2024 19:55:11 GMT+0200 (Mitteleuropäische Sommerzeit)","2","79","0","1729707599585"
"1018","j","SpeechGestureMatch","../RequiredFiles/videos/NeinKopfNein_f.mp4","Ist der Ball in der grünen Box?","Green","Blue","J","negation","match","speech","no","HeadShake","female","speech-gesture","1470","920","chrome","59.76","Mac OS","21","female","right","Wed Oct 23 2024 19:55:18 GMT+0200 (Mitteleuropäische Sommerzeit)","2","80","0","1729707599585"
"990","j","SpeechGestureMatch","../RequiredFiles/videos/JaKopfNein_m.mp4","Ist der Ball in der blauen Box?","Green","Blue","J","affirmation","mismatch","speech","yes","HeadShake","male","speech-gesture","1470","920","chrome","59.76","Mac OS","21","female","right","Wed Oct 23 2024 19:55:24 GMT+0200 (Mitteleuropäische Sommerzeit)","2","81","0","1729707599585"
"1221","f","SpeechGestureMatch","../RequiredFiles/videos/NeinKopfNein_m.mp4","Ist der Ball in der grünen Box?","Blue","Green","F","negation","match","speech","no","HeadShake","male","speech-gesture","1470","920","chrome","59.76","Mac OS","21","female","right","Wed Oct 23 2024 19:55:31 GMT+0200 (Mitteleuropäische Sommerzeit)","2","82","0","1729707599585"
"1109","j","SpeechGestureMatch","../RequiredFiles/videos/NeinKopfJa_m_no_gesture.mp4","Ist der Ball in der blauen Box?","Blue","Green","J","negation","na","speech","no","na","male","speech-gesture","1470","920","chrome","59.76","Mac OS","21","female","right","Wed Oct 23 2024 19:55:38 GMT+0200 (Mitteleuropäische Sommerzeit)","2","83","0","1729707599585"
"1023","j","SpeechGestureMatch","../RequiredFiles/videos/JaKopfJa_m.mp4","Ist der Ball in der blauen Box?","Green","Blue","J","affirmation","match","speech","yes","HeadNod","male","speech-gesture","1470","920","chrome","59.76","Mac OS","21","female","right","Wed Oct 23 2024 19:55:44 GMT+0200 (Mitteleuropäische Sommerzeit)","2","84","0","1729707599585"
"1192","f","SpeechGestureMatch","../RequiredFiles/videos/NeinKopfJa_m_no_gesture.mp4","Ist der Ball in der blauen Box?","Green","Blue","F","negation","na","speech","no","na","male","speech-gesture","1470","920","chrome","59.76","Mac OS","21","female","right","Wed Oct 23 2024 19:55:51 GMT+0200 (Mitteleuropäische Sommerzeit)","2","85","0","1729707599585"
"1318","f","SpeechGestureMatch","../RequiredFiles/videos/JaKopfNein_m_no_gesture.mp4","Ist der Ball in der blauen Box?","Blue","Green","F","affirmation","na","speech","yes","na","male","speech-gesture","1470","920","chrome","59.76","Mac OS","21","female","right","Wed Oct 23 2024 19:55:58 GMT+0200 (Mitteleuropäische Sommerzeit)","2","86","0","1729707599585"
"1401","j","SpeechGestureMatch","../RequiredFiles/videos/JaKopfJa_f.mp4","Ist der Ball in der blauen Box?","Green","Blue","J","affirmation","match","speech","yes","HeadNod","female","speech-gesture","1470","920","chrome","59.76","Mac OS","21","female","right","Wed Oct 23 2024 19:56:05 GMT+0200 (Mitteleuropäische Sommerzeit)","2","87","0","1729707599585"
"1069","f","SpeechGestureMatch","../RequiredFiles/videos/NeinKopfJa_f_no_gesture.mp4","Ist der Ball in der blauen Box?","Green","Blue","F","negation","na","speech","no","na","female","speech-gesture","1470","920","chrome","59.76","Mac OS","21","female","right","Wed Oct 23 2024 19:56:11 GMT+0200 (Mitteleuropäische Sommerzeit)","2","88","0","1729707599585"
"1096","f","SpeechGestureMatch","../RequiredFiles/videos/JaKopfJa_m.mp4","Ist der Ball in der grünen Box?","Green","Blue","F","affirmation","match","speech","yes","HeadNod","male","speech-gesture","1470","920","chrome","59.76","Mac OS","21","female","right","Wed Oct 23 2024 19:56:18 GMT+0200 (Mitteleuropäische Sommerzeit)","2","89","0","1729707599585"
"1772","j","SpeechGestureMatch","../RequiredFiles/videos/JaKopfJa_f.mp4","Ist der Ball in der grünen Box?","Blue","Green","J","affirmation","match","speech","yes","HeadNod","female","speech-gesture","1470","920","chrome","59.76","Mac OS","21","female","right","Wed Oct 23 2024 19:56:25 GMT+0200 (Mitteleuropäische Sommerzeit)","2","90","0","1729707599585"
"2201","f","SpeechGestureMatch","../RequiredFiles/videos/JaKopfNein_f.mp4","Ist der Ball in der grünen Box?","Green","Blue","F","affirmation","mismatch","speech","yes","HeadShake","female","speech-gesture","1470","920","chrome","59.76","Mac OS","21","female","right","Wed Oct 23 2024 19:56:33 GMT+0200 (Mitteleuropäische Sommerzeit)","2","91","0","1729707599585"
"945","f","SpeechGestureMatch","../RequiredFiles/videos/NeinKopfNein_f.mp4","Ist der Ball in der grünen Box?","Blue","Green","F","negation","match","speech","no","HeadShake","female","speech-gesture","1470","920","chrome","59.76","Mac OS","21","female","right","Wed Oct 23 2024 19:56:39 GMT+0200 (Mitteleuropäische Sommerzeit)","2","92","0","1729707599585"
"899","j","SpeechGestureMatch","../RequiredFiles/videos/NeinKopfNein_m_no_gesture.mp4","Ist der Ball in der grünen Box?","Green","Blue","J","negation","na","speech","no","na","male","speech-gesture","1470","920","chrome","59.76","Mac OS","21","female","right","Wed Oct 23 2024 19:56:46 GMT+0200 (Mitteleuropäische Sommerzeit)","2","93","0","1729707599585"
"1137","j","SpeechGestureMatch","../RequiredFiles/videos/JaKopfNein_m_no_gesture.mp4","Ist der Ball in der grünen Box?","Blue","Green","J","affirmation","na","speech","yes","na","male","speech-gesture","1470","920","chrome","59.76","Mac OS","21","female","right","Wed Oct 23 2024 19:56:52 GMT+0200 (Mitteleuropäische Sommerzeit)","2","94","0","1729707599585"
"1789","j","SpeechGestureMatch","../RequiredFiles/videos/NeinKopfJa_f.mp4","Ist der Ball in der grünen Box?","Green","Blue","J","negation","mismatch","speech","no","HeadNod","female","speech-gesture","1470","920","chrome","59.76","Mac OS","21","female","right","Wed Oct 23 2024 19:57:00 GMT+0200 (Mitteleuropäische Sommerzeit)","2","95","0","1729707599585"
"1161","j","SpeechGestureMatch","../RequiredFiles/videos/NeinKopfNein_m.mp4","Ist der Ball in der grünen Box?","Green","Blue","J","negation","match","speech","no","HeadShake","male","speech-gesture","1470","920","chrome","59.76","Mac OS","21","female","right","Wed Oct 23 2024 19:57:06 GMT+0200 (Mitteleuropäische Sommerzeit)","2","96","0","1729707599585"
"1144","f","SpeechGestureMatch","../RequiredFiles/videos/JaKopfNein_f.mp4","Ist der Ball in der blauen Box?","Green","Blue","F","negation","mismatch","gesture","yes","HeadShake","female","speech-gesture","1470","920","chrome","59.76","Mac OS","21","female","right","Wed Oct 23 2024 19:58:54 GMT+0200 (Mitteleuropäische Sommerzeit)","3","1","0","1729707599585"
"896","f","SpeechGestureMatch","../RequiredFiles/videos/JaKopfNein_f_no_sound.mp4","Ist der Ball in der blauen Box?","Green","Blue","F","negation","na","gesture","na","HeadShake","female","speech-gesture","1470","920","chrome","59.76","Mac OS","21","female","right","Wed Oct 23 2024 19:59:00 GMT+0200 (Mitteleuropäische Sommerzeit)","3","2","0","1729707599585"
"767","f","SpeechGestureMatch","../RequiredFiles/videos/JaKopfNein_f.mp4","Ist der Ball in der blauen Box?","Green","Blue","F","negation","mismatch","gesture","yes","HeadShake","female","speech-gesture","1470","920","chrome","59.76","Mac OS","21","female","right","Wed Oct 23 2024 19:59:07 GMT+0200 (Mitteleuropäische Sommerzeit)","3","3","0","1729707599585"
"913","j","SpeechGestureMatch","../RequiredFiles/videos/JaKopfJa_m.mp4","Ist der Ball in der blauen Box?","Green","Blue","J","affirmation","match","gesture","yes","HeadNod","male","speech-gesture","1470","920","chrome","59.76","Mac OS","21","female","right","Wed Oct 23 2024 19:59:13 GMT+0200 (Mitteleuropäische Sommerzeit)","3","4","0","1729707599585"
"842","j","SpeechGestureMatch","../RequiredFiles/videos/NeinKopfNein_f.mp4","Ist der Ball in der grünen Box?","Green","Blue","J","negation","match","gesture","no","HeadShake","female","speech-gesture","1470","920","chrome","59.76","Mac OS","21","female","right","Wed Oct 23 2024 19:59:20 GMT+0200 (Mitteleuropäische Sommerzeit)","3","5","0","1729707599585"
"750","f","SpeechGestureMatch","../RequiredFiles/videos/JaKopfJa_f_no_sound.mp4","Ist der Ball in der grünen Box?","Green","Blue","F","affirmation","na","gesture","na","HeadNod","female","speech-gesture","1470","920","chrome","59.76","Mac OS","21","female","right","Wed Oct 23 2024 19:59:26 GMT+0200 (Mitteleuropäische Sommerzeit)","3","6","0","1729707599585"
"602","j","SpeechGestureMatch","../RequiredFiles/videos/NeinKopfNein_m_no_sound.mp4","Ist der Ball in der grünen Box?","Green","Blue","J","negation","na","gesture","na","HeadShake","male","speech-gesture","1470","920","chrome","59.76","Mac OS","21","female","right","Wed Oct 23 2024 19:59:32 GMT+0200 (Mitteleuropäische Sommerzeit)","3","7","0","1729707599585"
"947","f","SpeechGestureMatch","../RequiredFiles/videos/NeinKopfJa_m_no_sound.mp4","Ist der Ball in der blauen Box?","Blue","Green","F","affirmation","na","gesture","na","HeadNod","male","speech-gesture","1470","920","chrome","59.76","Mac OS","21","female","right","Wed Oct 23 2024 19:59:38 GMT+0200 (Mitteleuropäische Sommerzeit)","3","8","0","1729707599585"
"637","f","SpeechGestureMatch","../RequiredFiles/videos/JaKopfNein_f_no_sound.mp4","Ist der Ball in der grünen Box?","Blue","Green","F","negation","na","gesture","na","HeadShake","female","speech-gesture","1470","920","chrome","59.76","Mac OS","21","female","right","Wed Oct 23 2024 19:59:45 GMT+0200 (Mitteleuropäische Sommerzeit)","3","9","0","1729707599585"
"767","j","SpeechGestureMatch","../RequiredFiles/videos/JaKopfJa_m.mp4","Ist der Ball in der blauen Box?","Green","Blue","J","affirmation","match","gesture","yes","HeadNod","male","speech-gesture","1470","920","chrome","59.76","Mac OS","21","female","right","Wed Oct 23 2024 19:59:51 GMT+0200 (Mitteleuropäische Sommerzeit)","3","10","0","1729707599585"
"961","f","SpeechGestureMatch","../RequiredFiles/videos/NeinKopfJa_m.mp4","Ist der Ball in der blauen Box?","Blue","Green","F","affirmation","mismatch","gesture","no","HeadNod","male","speech-gesture","1470","920","chrome","59.76","Mac OS","21","female","right","Wed Oct 23 2024 19:59:57 GMT+0200 (Mitteleuropäische Sommerzeit)","3","11","0","1729707599585"
"810","j","SpeechGestureMatch","../RequiredFiles/videos/NeinKopfJa_m.mp4","Ist der Ball in der blauen Box?","Green","Blue","J","affirmation","mismatch","gesture","no","HeadNod","male","speech-gesture","1470","920","chrome","59.76","Mac OS","21","female","right","Wed Oct 23 2024 20:00:04 GMT+0200 (Mitteleuropäische Sommerzeit)","3","12","0","1729707599585"
"862","j","SpeechGestureMatch","../RequiredFiles/videos/JaKopfNein_f.mp4","Ist der Ball in der grünen Box?","Green","Blue","J","negation","mismatch","gesture","yes","HeadShake","female","speech-gesture","1470","920","chrome","59.76","Mac OS","21","female","right","Wed Oct 23 2024 20:00:10 GMT+0200 (Mitteleuropäische Sommerzeit)","3","13","0","1729707599585"
"820","f","SpeechGestureMatch","../RequiredFiles/videos/JaKopfJa_f.mp4","Ist der Ball in der grünen Box?","Green","Blue","F","affirmation","match","gesture","yes","HeadNod","female","speech-gesture","1470","920","chrome","59.76","Mac OS","21","female","right","Wed Oct 23 2024 20:00:16 GMT+0200 (Mitteleuropäische Sommerzeit)","3","14","0","1729707599585"
"578","f","SpeechGestureMatch","../RequiredFiles/videos/NeinKopfJa_f_no_sound.mp4","Ist der Ball in der blauen Box?","Blue","Green","F","affirmation","na","gesture","na","HeadNod","female","speech-gesture","1470","920","chrome","59.76","Mac OS","21","female","right","Wed Oct 23 2024 20:00:22 GMT+0200 (Mitteleuropäische Sommerzeit)","3","15","0","1729707599585"
"663","f","SpeechGestureMatch","../RequiredFiles/videos/JaKopfJa_f.mp4","Ist der Ball in der blauen Box?","Blue","Green","F","affirmation","match","gesture","yes","HeadNod","female","speech-gesture","1470","920","chrome","59.76","Mac OS","21","female","right","Wed Oct 23 2024 20:00:29 GMT+0200 (Mitteleuropäische Sommerzeit)","3","16","0","1729707599585"
"614","j","SpeechGestureMatch","../RequiredFiles/videos/JaKopfJa_f.mp4","Ist der Ball in der blauen Box?","Green","Blue","J","affirmation","match","gesture","yes","HeadNod","female","speech-gesture","1470","920","chrome","59.76","Mac OS","21","female","right","Wed Oct 23 2024 20:00:35 GMT+0200 (Mitteleuropäische Sommerzeit)","3","17","0","1729707599585"
"908","j","SpeechGestureMatch","../RequiredFiles/videos/JaKopfNein_m.mp4","Ist der Ball in der grünen Box?","Blue","Green","F","negation","mismatch","gesture","yes","HeadShake","male","speech-gesture","1470","920","chrome","59.76","Mac OS","21","female","right","Wed Oct 23 2024 20:00:41 GMT+0200 (Mitteleuropäische Sommerzeit)","3","18","1","1729707599585"
"692","j","SpeechGestureMatch","../RequiredFiles/videos/JaKopfJa_f.mp4","Ist der Ball in der grünen Box?","Blue","Green","J","affirmation","match","gesture","yes","HeadNod","female","speech-gesture","1470","920","chrome","59.76","Mac OS","21","female","right","Wed Oct 23 2024 20:00:47 GMT+0200 (Mitteleuropäische Sommerzeit)","3","19","0","1729707599585"
"607","f","SpeechGestureMatch","../RequiredFiles/videos/NeinKopfNein_f.mp4","Ist der Ball in der blauen Box?","Green","Blue","F","negation","match","gesture","no","HeadShake","female","speech-gesture","1470","920","chrome","59.76","Mac OS","21","female","right","Wed Oct 23 2024 20:00:54 GMT+0200 (Mitteleuropäische Sommerzeit)","3","20","0","1729707599585"
"971","f","SpeechGestureMatch","../RequiredFiles/videos/NeinKopfNein_f.mp4","Ist der Ball in der grünen Box?","Blue","Green","F","negation","match","gesture","no","HeadShake","female","speech-gesture","1470","920","chrome","59.76","Mac OS","21","female","right","Wed Oct 23 2024 20:01:00 GMT+0200 (Mitteleuropäische Sommerzeit)","3","21","0","1729707599585"
"912","f","SpeechGestureMatch","../RequiredFiles/videos/JaKopfNein_m.mp4","Ist der Ball in der blauen Box?","Green","Blue","F","negation","mismatch","gesture","yes","HeadShake","male","speech-gesture","1470","920","chrome","59.76","Mac OS","21","female","right","Wed Oct 23 2024 20:01:06 GMT+0200 (Mitteleuropäische Sommerzeit)","3","22","0","1729707599585"
"783","j","SpeechGestureMatch","../RequiredFiles/videos/NeinKopfJa_f_no_sound.mp4","Ist der Ball in der grünen Box?","Blue","Green","J","affirmation","na","gesture","na","HeadNod","female","speech-gesture","1470","920","chrome","59.76","Mac OS","21","female","right","Wed Oct 23 2024 20:01:13 GMT+0200 (Mitteleuropäische Sommerzeit)","3","23","0","1729707599585"
"746","j","SpeechGestureMatch","../RequiredFiles/videos/NeinKopfNein_f.mp4","Ist der Ball in der grünen Box?","Green","Blue","J","negation","match","gesture","no","HeadShake","female","speech-gesture","1470","920","chrome","59.76","Mac OS","21","female","right","Wed Oct 23 2024 20:01:19 GMT+0200 (Mitteleuropäische Sommerzeit)","3","24","0","1729707599585"
"635","f","SpeechGestureMatch","../RequiredFiles/videos/NeinKopfNein_m.mp4","Ist der Ball in der grünen Box?","Blue","Green","F","negation","match","gesture","no","HeadShake","male","speech-gesture","1470","920","chrome","59.76","Mac OS","21","female","right","Wed Oct 23 2024 20:01:25 GMT+0200 (Mitteleuropäische Sommerzeit)","3","25","0","1729707599585"
"751","j","SpeechGestureMatch","../RequiredFiles/videos/NeinKopfNein_m.mp4","Ist der Ball in der blauen Box?","Blue","Green","J","negation","match","gesture","no","HeadShake","male","speech-gesture","1470","920","chrome","59.76","Mac OS","21","female","right","Wed Oct 23 2024 20:01:31 GMT+0200 (Mitteleuropäische Sommerzeit)","3","26","0","1729707599585"
"897","f","SpeechGestureMatch","../RequiredFiles/videos/NeinKopfJa_f.mp4","Ist der Ball in der grünen Box?","Green","Blue","F","affirmation","mismatch","gesture","no","HeadNod","female","speech-gesture","1470","920","chrome","59.76","Mac OS","21","female","right","Wed Oct 23 2024 20:01:38 GMT+0200 (Mitteleuropäische Sommerzeit)","3","27","0","1729707599585"
"846","f","SpeechGestureMatch","../RequiredFiles/videos/NeinKopfJa_m.mp4","Ist der Ball in der grünen Box?","Green","Blue","F","affirmation","mismatch","gesture","no","HeadNod","male","speech-gesture","1470","920","chrome","59.76","Mac OS","21","female","right","Wed Oct 23 2024 20:01:44 GMT+0200 (Mitteleuropäische Sommerzeit)","3","28","0","1729707599585"
"664","j","SpeechGestureMatch","../RequiredFiles/videos/JaKopfJa_f.mp4","Ist der Ball in der blauen Box?","Green","Blue","J","affirmation","match","gesture","yes","HeadNod","female","speech-gesture","1470","920","chrome","59.76","Mac OS","21","female","right","Wed Oct 23 2024 20:01:50 GMT+0200 (Mitteleuropäische Sommerzeit)","3","29","0","1729707599585"
"697","j","SpeechGestureMatch","../RequiredFiles/videos/JaKopfNein_m.mp4","Ist der Ball in der blauen Box?","Blue","Green","J","negation","mismatch","gesture","yes","HeadShake","male","speech-gesture","1470","920","chrome","59.76","Mac OS","21","female","right","Wed Oct 23 2024 20:01:57 GMT+0200 (Mitteleuropäische Sommerzeit)","3","30","0","1729707599585"
"580","j","SpeechGestureMatch","../RequiredFiles/videos/NeinKopfNein_m_no_sound.mp4","Ist der Ball in der blauen Box?","Blue","Green","J","negation","na","gesture","na","HeadShake","male","speech-gesture","1470","920","chrome","59.76","Mac OS","21","female","right","Wed Oct 23 2024 20:02:03 GMT+0200 (Mitteleuropäische Sommerzeit)","3","31","0","1729707599585"
"687","j","SpeechGestureMatch","../RequiredFiles/videos/NeinKopfNein_m.mp4","Ist der Ball in der blauen Box?","Green","Blue","F","negation","match","gesture","no","HeadShake","male","speech-gesture","1470","920","chrome","59.76","Mac OS","21","female","right","Wed Oct 23 2024 20:02:09 GMT+0200 (Mitteleuropäische Sommerzeit)","3","32","1","1729707599585"
"594","j","SpeechGestureMatch","../RequiredFiles/videos/NeinKopfNein_m.mp4","Ist der Ball in der blauen Box?","Blue","Green","J","negation","match","gesture","no","HeadShake","male","speech-gesture","1470","920","chrome","59.76","Mac OS","21","female","right","Wed Oct 23 2024 20:02:15 GMT+0200 (Mitteleuropäische Sommerzeit)","3","33","0","1729707599585"
"696","j","SpeechGestureMatch","../RequiredFiles/videos/NeinKopfNein_f.mp4","Ist der Ball in der blauen Box?","Blue","Green","J","negation","match","gesture","no","HeadShake","female","speech-gesture","1470","920","chrome","59.76","Mac OS","21","female","right","Wed Oct 23 2024 20:02:21 GMT+0200 (Mitteleuropäische Sommerzeit)","3","34","0","1729707599585"
"560","f","SpeechGestureMatch","../RequiredFiles/videos/JaKopfJa_f.mp4","Ist der Ball in der grünen Box?","Blue","Green","J","affirmation","match","gesture","yes","HeadNod","female","speech-gesture","1470","920","chrome","59.76","Mac OS","21","female","right","Wed Oct 23 2024 20:02:27 GMT+0200 (Mitteleuropäische Sommerzeit)","3","35","1","1729707599585"
"755","j","SpeechGestureMatch","../RequiredFiles/videos/JaKopfJa_f_no_sound.mp4","Ist der Ball in der blauen Box?","Green","Blue","J","affirmation","na","gesture","na","HeadNod","female","speech-gesture","1470","920","chrome","59.76","Mac OS","21","female","right","Wed Oct 23 2024 20:02:34 GMT+0200 (Mitteleuropäische Sommerzeit)","3","36","0","1729707599585"
"893","j","SpeechGestureMatch","../RequiredFiles/videos/NeinKopfJa_m.mp4","Ist der Ball in der blauen Box?","Green","Blue","J","affirmation","mismatch","gesture","no","HeadNod","male","speech-gesture","1470","920","chrome","59.76","Mac OS","21","female","right","Wed Oct 23 2024 20:02:40 GMT+0200 (Mitteleuropäische Sommerzeit)","3","37","0","1729707599585"
"808","f","SpeechGestureMatch","../RequiredFiles/videos/JaKopfJa_f.mp4","Ist der Ball in der grünen Box?","Green","Blue","F","affirmation","match","gesture","yes","HeadNod","female","speech-gesture","1470","920","chrome","59.76","Mac OS","21","female","right","Wed Oct 23 2024 20:02:46 GMT+0200 (Mitteleuropäische Sommerzeit)","3","38","0","1729707599585"
"641","j","SpeechGestureMatch","../RequiredFiles/videos/JaKopfNein_f.mp4","Ist der Ball in der blauen Box?","Blue","Green","J","negation","mismatch","gesture","yes","HeadShake","female","speech-gesture","1470","920","chrome","59.76","Mac OS","21","female","right","Wed Oct 23 2024 20:02:53 GMT+0200 (Mitteleuropäische Sommerzeit)","3","39","0","1729707599585"
"1048","j","SpeechGestureMatch","../RequiredFiles/videos/NeinKopfJa_m_no_sound.mp4","Ist der Ball in der blauen Box?","Green","Blue","J","affirmation","na","gesture","na","HeadNod","male","speech-gesture","1470","920","chrome","59.76","Mac OS","21","female","right","Wed Oct 23 2024 20:02:59 GMT+0200 (Mitteleuropäische Sommerzeit)","3","40","0","1729707599585"
"826","f","SpeechGestureMatch","../RequiredFiles/videos/NeinKopfNein_m_no_sound.mp4","Ist der Ball in der blauen Box?","Green","Blue","F","negation","na","gesture","na","HeadShake","male","speech-gesture","1470","920","chrome","59.76","Mac OS","21","female","right","Wed Oct 23 2024 20:03:05 GMT+0200 (Mitteleuropäische Sommerzeit)","3","41","0","1729707599585"
"987","f","SpeechGestureMatch","../RequiredFiles/videos/NeinKopfJa_f.mp4","Ist der Ball in der grünen Box?","Green","Blue","F","affirmation","mismatch","gesture","no","HeadNod","female","speech-gesture","1470","920","chrome","59.76","Mac OS","21","female","right","Wed Oct 23 2024 20:03:12 GMT+0200 (Mitteleuropäische Sommerzeit)","3","42","0","1729707599585"
"963","f","SpeechGestureMatch","../RequiredFiles/videos/JaKopfNein_m.mp4","Ist der Ball in der grünen Box?","Blue","Green","F","negation","mismatch","gesture","yes","HeadShake","male","speech-gesture","1470","920","chrome","59.76","Mac OS","21","female","right","Wed Oct 23 2024 20:03:18 GMT+0200 (Mitteleuropäische Sommerzeit)","3","43","0","1729707599585"
"1221","j","SpeechGestureMatch","../RequiredFiles/videos/NeinKopfJa_f_no_sound.mp4","Ist der Ball in der blauen Box?","Green","Blue","J","affirmation","na","gesture","na","HeadNod","female","speech-gesture","1470","920","chrome","59.76","Mac OS","21","female","right","Wed Oct 23 2024 20:03:25 GMT+0200 (Mitteleuropäische Sommerzeit)","3","44","0","1729707599585"
"1030","j","SpeechGestureMatch","../RequiredFiles/videos/NeinKopfNein_f.mp4","Ist der Ball in der blauen Box?","Blue","Green","J","negation","match","gesture","no","HeadShake","female","speech-gesture","1470","920","chrome","59.76","Mac OS","21","female","right","Wed Oct 23 2024 20:03:32 GMT+0200 (Mitteleuropäische Sommerzeit)","3","45","0","1729707599585"
"898","f","SpeechGestureMatch","../RequiredFiles/videos/JaKopfJa_f.mp4","Ist der Ball in der blauen Box?","Blue","Green","F","affirmation","match","gesture","yes","HeadNod","female","speech-gesture","1470","920","chrome","59.76","Mac OS","21","female","right","Wed Oct 23 2024 20:03:38 GMT+0200 (Mitteleuropäische Sommerzeit)","3","46","0","1729707599585"
"963","j","SpeechGestureMatch","../RequiredFiles/videos/NeinKopfJa_f.mp4","Ist der Ball in der grünen Box?","Blue","Green","J","affirmation","mismatch","gesture","no","HeadNod","female","speech-gesture","1470","920","chrome","59.76","Mac OS","21","female","right","Wed Oct 23 2024 20:03:45 GMT+0200 (Mitteleuropäische Sommerzeit)","3","47","0","1729707599585"
"1219","f","SpeechGestureMatch","../RequiredFiles/videos/NeinKopfNein_m.mp4","Ist der Ball in der grünen Box?","Blue","Green","F","negation","match","gesture","no","HeadShake","male","speech-gesture","1470","920","chrome","59.76","Mac OS","21","female","right","Wed Oct 23 2024 20:03:51 GMT+0200 (Mitteleuropäische Sommerzeit)","3","48","0","1729707599585"
"607","j","SpeechGestureMatch","../RequiredFiles/videos/JaKopfJa_m_no_sound.mp4","Ist der Ball in der grünen Box?","Blue","Green","J","affirmation","na","gesture","na","HeadNod","male","speech-gesture","1470","920","chrome","59.76","Mac OS","21","female","right","Wed Oct 23 2024 20:03:57 GMT+0200 (Mitteleuropäische Sommerzeit)","3","49","0","1729707599585"
"1371","f","SpeechGestureMatch","../RequiredFiles/videos/NeinKopfNein_f.mp4","Ist der Ball in der blauen Box?","Green","Blue","F","negation","match","gesture","no","HeadShake","female","speech-gesture","1470","920","chrome","59.76","Mac OS","21","female","right","Wed Oct 23 2024 20:04:04 GMT+0200 (Mitteleuropäische Sommerzeit)","3","50","0","1729707599585"
"1350","f","SpeechGestureMatch","../RequiredFiles/videos/JaKopfNein_f.mp4","Ist der Ball in der grünen Box?","Blue","Green","F","negation","mismatch","gesture","yes","HeadShake","female","speech-gesture","1470","920","chrome","59.76","Mac OS","21","female","right","Wed Oct 23 2024 20:04:11 GMT+0200 (Mitteleuropäische Sommerzeit)","3","51","0","1729707599585"
"1119","j","SpeechGestureMatch","../RequiredFiles/videos/JaKopfJa_m_no_sound.mp4","Ist der Ball in der blauen Box?","Green","Blue","J","affirmation","na","gesture","na","HeadNod","male","speech-gesture","1470","920","chrome","59.76","Mac OS","21","female","right","Wed Oct 23 2024 20:04:18 GMT+0200 (Mitteleuropäische Sommerzeit)","3","52","0","1729707599585"
"833","f","SpeechGestureMatch","../RequiredFiles/videos/NeinKopfJa_m_no_sound.mp4","Ist der Ball in der grünen Box?","Green","Blue","F","affirmation","na","gesture","na","HeadNod","male","speech-gesture","1470","920","chrome","59.76","Mac OS","21","female","right","Wed Oct 23 2024 20:04:24 GMT+0200 (Mitteleuropäische Sommerzeit)","3","53","0","1729707599585"
"1100","f","SpeechGestureMatch","../RequiredFiles/videos/JaKopfJa_m.mp4","Ist der Ball in der blauen Box?","Blue","Green","F","affirmation","match","gesture","yes","HeadNod","male","speech-gesture","1470","920","chrome","59.76","Mac OS","21","female","right","Wed Oct 23 2024 20:04:31 GMT+0200 (Mitteleuropäische Sommerzeit)","3","54","0","1729707599585"
"1268","j","SpeechGestureMatch","../RequiredFiles/videos/JaKopfNein_f.mp4","Ist der Ball in der blauen Box?","Blue","Green","J","negation","mismatch","gesture","yes","HeadShake","female","speech-gesture","1470","920","chrome","59.76","Mac OS","21","female","right","Wed Oct 23 2024 20:04:38 GMT+0200 (Mitteleuropäische Sommerzeit)","3","55","0","1729707599585"
"957","f","SpeechGestureMatch","../RequiredFiles/videos/JaKopfNein_m_no_sound.mp4","Ist der Ball in der grünen Box?","Blue","Green","F","negation","na","gesture","na","HeadShake","male","speech-gesture","1470","920","chrome","59.76","Mac OS","21","female","right","Wed Oct 23 2024 20:04:44 GMT+0200 (Mitteleuropäische Sommerzeit)","3","56","0","1729707599585"
"1132","f","SpeechGestureMatch","../RequiredFiles/videos/JaKopfJa_f_no_sound.mp4","Ist der Ball in der blauen Box?","Blue","Green","F","affirmation","na","gesture","na","HeadNod","female","speech-gesture","1470","920","chrome","59.76","Mac OS","21","female","right","Wed Oct 23 2024 20:04:51 GMT+0200 (Mitteleuropäische Sommerzeit)","3","57","0","1729707599585"
"4036","f","SpeechGestureMatch","../RequiredFiles/videos/JaKopfNein_m_no_sound.mp4","Ist der Ball in der grünen Box?","Green","Blue","J","negation","na","gesture","na","HeadShake","male","speech-gesture","1470","920","chrome","59.76","Mac OS","21","female","right","Wed Oct 23 2024 20:05:00 GMT+0200 (Mitteleuropäische Sommerzeit)","3","58","1","1729707599585"
"1465","j","SpeechGestureMatch","../RequiredFiles/videos/JaKopfNein_f_no_sound.mp4","Ist der Ball in der blauen Box?","Blue","Green","J","negation","na","gesture","na","HeadShake","female","speech-gesture","1470","920","chrome","59.76","Mac OS","21","female","right","Wed Oct 23 2024 20:05:07 GMT+0200 (Mitteleuropäische Sommerzeit)","3","59","0","1729707599585"
"1252","f","SpeechGestureMatch","../RequiredFiles/videos/NeinKopfNein_m.mp4","Ist der Ball in der blauen Box?","Green","Blue","F","negation","match","gesture","no","HeadShake","male","speech-gesture","1470","920","chrome","59.76","Mac OS","21","female","right","Wed Oct 23 2024 20:05:14 GMT+0200 (Mitteleuropäische Sommerzeit)","3","60","0","1729707599585"
"1057","f","SpeechGestureMatch","../RequiredFiles/videos/NeinKopfJa_m.mp4","Ist der Ball in der blauen Box?","Blue","Green","F","affirmation","mismatch","gesture","no","HeadNod","male","speech-gesture","1470","920","chrome","59.76","Mac OS","21","female","right","Wed Oct 23 2024 20:05:21 GMT+0200 (Mitteleuropäische Sommerzeit)","3","61","0","1729707599585"
"1112","j","SpeechGestureMatch","../RequiredFiles/videos/NeinKopfNein_f_no_sound.mp4","Ist der Ball in der grünen Box?","Green","Blue","J","negation","na","gesture","na","HeadShake","female","speech-gesture","1470","920","chrome","59.76","Mac OS","21","female","right","Wed Oct 23 2024 20:05:27 GMT+0200 (Mitteleuropäische Sommerzeit)","3","62","0","1729707599585"
"954","f","SpeechGestureMatch","../RequiredFiles/videos/NeinKopfNein_f_no_sound.mp4","Ist der Ball in der blauen Box?","Green","Blue","F","negation","na","gesture","na","HeadShake","female","speech-gesture","1470","920","chrome","59.76","Mac OS","21","female","right","Wed Oct 23 2024 20:05:34 GMT+0200 (Mitteleuropäische Sommerzeit)","3","63","0","1729707599585"
"788","f","SpeechGestureMatch","../RequiredFiles/videos/NeinKopfNein_m_no_sound.mp4","Ist der Ball in der grünen Box?","Blue","Green","F","negation","na","gesture","na","HeadShake","male","speech-gesture","1470","920","chrome","59.76","Mac OS","21","female","right","Wed Oct 23 2024 20:05:40 GMT+0200 (Mitteleuropäische Sommerzeit)","3","64","0","1729707599585"
"1718","f","SpeechGestureMatch","../RequiredFiles/videos/NeinKopfJa_f_no_sound.mp4","Ist der Ball in der grünen Box?","Green","Blue","F","affirmation","na","gesture","na","HeadNod","female","speech-gesture","1470","920","chrome","59.76","Mac OS","21","female","right","Wed Oct 23 2024 20:05:47 GMT+0200 (Mitteleuropäische Sommerzeit)","3","65","0","1729707599585"
"864","f","SpeechGestureMatch","../RequiredFiles/videos/NeinKopfJa_f.mp4","Ist der Ball in der blauen Box?","Blue","Green","F","affirmation","mismatch","gesture","no","HeadNod","female","speech-gesture","1470","920","chrome","59.76","Mac OS","21","female","right","Wed Oct 23 2024 20:05:54 GMT+0200 (Mitteleuropäische Sommerzeit)","3","66","0","1729707599585"
"1590","j","SpeechGestureMatch","../RequiredFiles/videos/JaKopfJa_m.mp4","Ist der Ball in der grünen Box?","Blue","Green","J","affirmation","match","gesture","yes","HeadNod","male","speech-gesture","1470","920","chrome","59.76","Mac OS","21","female","right","Wed Oct 23 2024 20:06:01 GMT+0200 (Mitteleuropäische Sommerzeit)","3","67","0","1729707599585"
"806","f","SpeechGestureMatch","../RequiredFiles/videos/JaKopfNein_m_no_sound.mp4","Ist der Ball in der blauen Box?","Green","Blue","F","negation","na","gesture","na","HeadShake","male","speech-gesture","1470","920","chrome","59.76","Mac OS","21","female","right","Wed Oct 23 2024 20:06:07 GMT+0200 (Mitteleuropäische Sommerzeit)","3","68","0","1729707599585"
"1658","f","SpeechGestureMatch","../RequiredFiles/videos/NeinKopfJa_m.mp4","Ist der Ball in der grünen Box?","Green","Blue","F","affirmation","mismatch","gesture","no","HeadNod","male","speech-gesture","1470","920","chrome","59.76","Mac OS","21","female","right","Wed Oct 23 2024 20:06:14 GMT+0200 (Mitteleuropäische Sommerzeit)","3","69","0","1729707599585"
"952","j","SpeechGestureMatch","../RequiredFiles/videos/NeinKopfNein_m.mp4","Ist der Ball in der grünen Box?","Green","Blue","J","negation","match","gesture","no","HeadShake","male","speech-gesture","1470","920","chrome","59.76","Mac OS","21","female","right","Wed Oct 23 2024 20:06:21 GMT+0200 (Mitteleuropäische Sommerzeit)","3","70","0","1729707599585"
"2109","j","SpeechGestureMatch","../RequiredFiles/videos/JaKopfJa_m_no_sound.mp4","Ist der Ball in der grünen Box?","Green","Blue","F","affirmation","na","gesture","na","HeadNod","male","speech-gesture","1470","920","chrome","59.76","Mac OS","21","female","right","Wed Oct 23 2024 20:06:28 GMT+0200 (Mitteleuropäische Sommerzeit)","3","71","1","1729707599585"
"977","j","SpeechGestureMatch","../RequiredFiles/videos/NeinKopfNein_m.mp4","Ist der Ball in der grünen Box?","Green","Blue","J","negation","match","gesture","no","HeadShake","male","speech-gesture","1470","920","chrome","59.76","Mac OS","21","female","right","Wed Oct 23 2024 20:06:35 GMT+0200 (Mitteleuropäische Sommerzeit)","3","72","0","1729707599585"
"873","f","SpeechGestureMatch","../RequiredFiles/videos/NeinKopfNein_f_no_sound.mp4","Ist der Ball in der grünen Box?","Blue","Green","F","negation","na","gesture","na","HeadShake","female","speech-gesture","1470","920","chrome","59.76","Mac OS","21","female","right","Wed Oct 23 2024 20:06:41 GMT+0200 (Mitteleuropäische Sommerzeit)","3","73","0","1729707599585"
"68","j","SpeechGestureMatch","../RequiredFiles/videos/JaKopfNein_m.mp4","Ist der Ball in der blauen Box?","Green","Blue","F","negation","mismatch","gesture","yes","HeadShake","male","speech-gesture","1470","920","chrome","59.76","Mac OS","21","female","right","Wed Oct 23 2024 20:06:47 GMT+0200 (Mitteleuropäische Sommerzeit)","3","74","1","1729707599585"
"1171","j","SpeechGestureMatch","../RequiredFiles/videos/JaKopfNein_m.mp4","Ist der Ball in der grünen Box?","Green","Blue","J","negation","mismatch","gesture","yes","HeadShake","male","speech-gesture","1470","920","chrome","59.76","Mac OS","21","female","right","Wed Oct 23 2024 20:06:54 GMT+0200 (Mitteleuropäische Sommerzeit)","3","75","0","1729707599585"
"827","j","SpeechGestureMatch","../RequiredFiles/videos/JaKopfNein_m.mp4","Ist der Ball in der grünen Box?","Green","Blue","J","negation","mismatch","gesture","yes","HeadShake","male","speech-gesture","1470","920","chrome","59.76","Mac OS","21","female","right","Wed Oct 23 2024 20:07:00 GMT+0200 (Mitteleuropäische Sommerzeit)","3","76","0","1729707599585"
"965","j","SpeechGestureMatch","../RequiredFiles/videos/JaKopfNein_f_no_sound.mp4","Ist der Ball in der grünen Box?","Green","Blue","J","negation","na","gesture","na","HeadShake","female","speech-gesture","1470","920","chrome","59.76","Mac OS","21","female","right","Wed Oct 23 2024 20:07:06 GMT+0200 (Mitteleuropäische Sommerzeit)","3","77","0","1729707599585"
"1035","j","SpeechGestureMatch","../RequiredFiles/videos/NeinKopfJa_m.mp4","Ist der Ball in der grünen Box?","Blue","Green","J","affirmation","mismatch","gesture","no","HeadNod","male","speech-gesture","1470","920","chrome","59.76","Mac OS","21","female","right","Wed Oct 23 2024 20:07:13 GMT+0200 (Mitteleuropäische Sommerzeit)","3","78","0","1729707599585"
"833","f","SpeechGestureMatch","../RequiredFiles/videos/JaKopfNein_f.mp4","Ist der Ball in der grünen Box?","Blue","Green","F","negation","mismatch","gesture","yes","HeadShake","female","speech-gesture","1470","920","chrome","59.76","Mac OS","21","female","right","Wed Oct 23 2024 20:07:19 GMT+0200 (Mitteleuropäische Sommerzeit)","3","79","0","1729707599585"
"1513","f","SpeechGestureMatch","../RequiredFiles/videos/JaKopfJa_m.mp4","Ist der Ball in der grünen Box?","Green","Blue","F","affirmation","match","gesture","yes","HeadNod","male","speech-gesture","1470","920","chrome","59.76","Mac OS","21","female","right","Wed Oct 23 2024 20:07:26 GMT+0200 (Mitteleuropäische Sommerzeit)","3","80","0","1729707599585"
"1213","j","SpeechGestureMatch","../RequiredFiles/videos/JaKopfNein_m.mp4","Ist der Ball in der blauen Box?","Blue","Green","J","negation","mismatch","gesture","yes","HeadShake","male","speech-gesture","1470","920","chrome","59.76","Mac OS","21","female","right","Wed Oct 23 2024 20:07:33 GMT+0200 (Mitteleuropäische Sommerzeit)","3","81","0","1729707599585"
"1299","f","SpeechGestureMatch","../RequiredFiles/videos/NeinKopfNein_f.mp4","Ist der Ball in der grünen Box?","Blue","Green","F","negation","match","gesture","no","HeadShake","female","speech-gesture","1470","920","chrome","59.76","Mac OS","21","female","right","Wed Oct 23 2024 20:07:40 GMT+0200 (Mitteleuropäische Sommerzeit)","3","82","0","1729707599585"
"869","f","SpeechGestureMatch","../RequiredFiles/videos/JaKopfJa_m.mp4","Ist der Ball in der grünen Box?","Green","Blue","F","affirmation","match","gesture","yes","HeadNod","male","speech-gesture","1470","920","chrome","59.76","Mac OS","21","female","right","Wed Oct 23 2024 20:07:46 GMT+0200 (Mitteleuropäische Sommerzeit)","3","83","0","1729707599585"
"1081","f","SpeechGestureMatch","../RequiredFiles/videos/NeinKopfJa_f.mp4","Ist der Ball in der blauen Box?","Blue","Green","F","affirmation","mismatch","gesture","no","HeadNod","female","speech-gesture","1470","920","chrome","59.76","Mac OS","21","female","right","Wed Oct 23 2024 20:07:53 GMT+0200 (Mitteleuropäische Sommerzeit)","3","84","0","1729707599585"
"810","j","SpeechGestureMatch","../RequiredFiles/videos/NeinKopfNein_f_no_sound.mp4","Ist der Ball in der blauen Box?","Blue","Green","J","negation","na","gesture","na","HeadShake","female","speech-gesture","1470","920","chrome","59.76","Mac OS","21","female","right","Wed Oct 23 2024 20:07:59 GMT+0200 (Mitteleuropäische Sommerzeit)","3","85","0","1729707599585"
