"rt","response","stim","video","question","box_colour_left","box_colour_right","correct_key","polarity","matching","modality","verbal","gesture","speaker","order","width","height","browser","vsync_rate","os","age","gender","handedness","date","blockNum","trialNum","error","vpNum"
"1172","j","SpeechGestureMatch","../RequiredFiles/videos/JaDaumenrunter_f.mp4","Ist der Ball in der blauen Box?","Blue","Green","F","affirmation","mismatch","speech","yes","ThumbDown","female","speech-gesture","1536","864","edge-chromium","60.12","Windows 10","21","female","right","Wed Oct 23 2024 09:36:40 GMT+0200 (Mitteleuropäische Sommerzeit)","1","1","1","1729691412468"
"1034","f","SpeechGestureMatch","../RequiredFiles/videos/JaDaumenrunter_m.mp4","Ist der Ball in der grünen Box?","Green","Blue","F","affirmation","mismatch","speech","yes","ThumbDown","male","speech-gesture","1536","864","edge-chromium","60.12","Windows 10","21","female","right","Wed Oct 23 2024 09:36:46 GMT+0200 (Mitteleuropäische Sommerzeit)","1","2","0","1729691412468"
"950","j","SpeechGestureMatch","../RequiredFiles/videos/NeinDaumenrunter_f.mp4","Ist der Ball in der grünen Box?","Green","Blue","J","negation","match","speech","no","ThumbDown","female","speech-gesture","1536","864","edge-chromium","60.12","Windows 10","21","female","right","Wed Oct 23 2024 09:36:53 GMT+0200 (Mitteleuropäische Sommerzeit)","1","3","0","1729691412468"
"1297","j","SpeechGestureMatch","../RequiredFiles/videos/NeinDaumenhoch_f.mp4","Ist der Ball in der blauen Box?","Blue","Green","J","negation","mismatch","speech","no","ThumbUp","female","speech-gesture","1536","864","edge-chromium","60.12","Windows 10","21","female","right","Wed Oct 23 2024 09:37:00 GMT+0200 (Mitteleuropäische Sommerzeit)","1","4","0","1729691412468"
"1023","j","SpeechGestureMatch","../RequiredFiles/videos/NeinDaumenrunter_m_no_gesture.mp4","Ist der Ball in der blauen Box?","Blue","Green","J","negation","na","speech","no","na","male","speech-gesture","1536","864","edge-chromium","60.12","Windows 10","21","female","right","Wed Oct 23 2024 09:37:06 GMT+0200 (Mitteleuropäische Sommerzeit)","1","5","0","1729691412468"
"1429","j","SpeechGestureMatch","../RequiredFiles/videos/NeinDaumenhoch_f_no_gesture.mp4","Ist der Ball in der grünen Box?","Blue","Green","F","negation","na","speech","no","na","female","speech-gesture","1536","864","edge-chromium","60.12","Windows 10","21","female","right","Wed Oct 23 2024 09:37:13 GMT+0200 (Mitteleuropäische Sommerzeit)","1","6","1","1729691412468"
"996","j","SpeechGestureMatch","../RequiredFiles/videos/JaDaumenhoch_f.mp4","Ist der Ball in der blauen Box?","Green","Blue","J","affirmation","match","speech","yes","ThumbUp","female","speech-gesture","1536","864","edge-chromium","60.12","Windows 10","21","female","right","Wed Oct 23 2024 09:37:20 GMT+0200 (Mitteleuropäische Sommerzeit)","1","7","0","1729691412468"
"891","f","SpeechGestureMatch","../RequiredFiles/videos/JaDaumenhoch_f.mp4","Ist der Ball in der grünen Box?","Green","Blue","F","affirmation","match","speech","yes","ThumbUp","female","speech-gesture","1536","864","edge-chromium","60.12","Windows 10","21","female","right","Wed Oct 23 2024 09:37:26 GMT+0200 (Mitteleuropäische Sommerzeit)","1","8","0","1729691412468"
"1119","f","SpeechGestureMatch","../RequiredFiles/videos/JaDaumenrunter_m.mp4","Ist der Ball in der blauen Box?","Blue","Green","F","affirmation","mismatch","speech","yes","ThumbDown","male","speech-gesture","1536","864","edge-chromium","60.12","Windows 10","21","female","right","Wed Oct 23 2024 09:37:33 GMT+0200 (Mitteleuropäische Sommerzeit)","1","9","0","1729691412468"
"1077","j","SpeechGestureMatch","../RequiredFiles/videos/JaDaumenhoch_f_no_gesture.mp4","Ist der Ball in der blauen Box?","Green","Blue","J","affirmation","na","speech","yes","na","female","speech-gesture","1536","864","edge-chromium","60.12","Windows 10","21","female","right","Wed Oct 23 2024 09:37:39 GMT+0200 (Mitteleuropäische Sommerzeit)","1","10","0","1729691412468"
"1030","j","SpeechGestureMatch","../RequiredFiles/videos/NeinDaumenrunter_f_no_gesture.mp4","Ist der Ball in der blauen Box?","Green","Blue","F","negation","na","speech","no","na","female","speech-gesture","1536","864","edge-chromium","60.12","Windows 10","21","female","right","Wed Oct 23 2024 09:37:46 GMT+0200 (Mitteleuropäische Sommerzeit)","1","11","1","1729691412468"
"999","j","SpeechGestureMatch","../RequiredFiles/videos/NeinDaumenrunter_m.mp4","Ist der Ball in der blauen Box?","Blue","Green","J","negation","match","speech","no","ThumbDown","male","speech-gesture","1536","864","edge-chromium","60.12","Windows 10","21","female","right","Wed Oct 23 2024 09:37:53 GMT+0200 (Mitteleuropäische Sommerzeit)","1","12","0","1729691412468"
"1024","j","SpeechGestureMatch","../RequiredFiles/videos/JaDaumenrunter_m.mp4","Ist der Ball in der blauen Box?","Green","Blue","J","affirmation","mismatch","speech","yes","ThumbDown","male","speech-gesture","1536","864","edge-chromium","60.12","Windows 10","21","female","right","Wed Oct 23 2024 09:37:59 GMT+0200 (Mitteleuropäische Sommerzeit)","1","13","0","1729691412468"
"1042","j","SpeechGestureMatch","../RequiredFiles/videos/JaDaumenhoch_m_no_gesture.mp4","Ist der Ball in der blauen Box?","Green","Blue","J","affirmation","na","speech","yes","na","male","speech-gesture","1536","864","edge-chromium","60.12","Windows 10","21","female","right","Wed Oct 23 2024 09:38:06 GMT+0200 (Mitteleuropäische Sommerzeit)","1","14","0","1729691412468"
"1092","j","SpeechGestureMatch","../RequiredFiles/videos/NeinDaumenrunter_m.mp4","Ist der Ball in der grünen Box?","Green","Blue","J","negation","match","speech","no","ThumbDown","male","speech-gesture","1536","864","edge-chromium","60.12","Windows 10","21","female","right","Wed Oct 23 2024 09:38:12 GMT+0200 (Mitteleuropäische Sommerzeit)","1","15","0","1729691412468"
"961","f","SpeechGestureMatch","../RequiredFiles/videos/NeinDaumenrunter_f.mp4","Ist der Ball in der grünen Box?","Blue","Green","F","negation","match","speech","no","ThumbDown","female","speech-gesture","1536","864","edge-chromium","60.12","Windows 10","21","female","right","Wed Oct 23 2024 09:38:19 GMT+0200 (Mitteleuropäische Sommerzeit)","1","16","0","1729691412468"
"1229","j","SpeechGestureMatch","../RequiredFiles/videos/NeinDaumenrunter_f.mp4","Ist der Ball in der blauen Box?","Blue","Green","J","negation","match","speech","no","ThumbDown","female","speech-gesture","1536","864","edge-chromium","60.12","Windows 10","21","female","right","Wed Oct 23 2024 09:38:26 GMT+0200 (Mitteleuropäische Sommerzeit)","1","17","0","1729691412468"
"925","j","SpeechGestureMatch","../RequiredFiles/videos/NeinDaumenrunter_m_no_gesture.mp4","Ist der Ball in der grünen Box?","Green","Blue","J","negation","na","speech","no","na","male","speech-gesture","1536","864","edge-chromium","60.12","Windows 10","21","female","right","Wed Oct 23 2024 09:38:32 GMT+0200 (Mitteleuropäische Sommerzeit)","1","18","0","1729691412468"
"1002","j","SpeechGestureMatch","../RequiredFiles/videos/NeinDaumenrunter_f_no_gesture.mp4","Ist der Ball in der blauen Box?","Blue","Green","J","negation","na","speech","no","na","female","speech-gesture","1536","864","edge-chromium","60.12","Windows 10","21","female","right","Wed Oct 23 2024 09:38:39 GMT+0200 (Mitteleuropäische Sommerzeit)","1","19","0","1729691412468"
"1356","j","SpeechGestureMatch","../RequiredFiles/videos/JaDaumenrunter_m.mp4","Ist der Ball in der grünen Box?","Blue","Green","J","affirmation","mismatch","speech","yes","ThumbDown","male","speech-gesture","1536","864","edge-chromium","60.12","Windows 10","21","female","right","Wed Oct 23 2024 09:38:46 GMT+0200 (Mitteleuropäische Sommerzeit)","1","20","0","1729691412468"
"957","f","SpeechGestureMatch","../RequiredFiles/videos/NeinDaumenrunter_f.mp4","Ist der Ball in der blauen Box?","Green","Blue","F","negation","match","speech","no","ThumbDown","female","speech-gesture","1536","864","edge-chromium","60.12","Windows 10","21","female","right","Wed Oct 23 2024 09:38:52 GMT+0200 (Mitteleuropäische Sommerzeit)","1","21","0","1729691412468"
"887","j","SpeechGestureMatch","../RequiredFiles/videos/NeinDaumenhoch_m.mp4","Ist der Ball in der blauen Box?","Blue","Green","J","negation","mismatch","speech","no","ThumbUp","male","speech-gesture","1536","864","edge-chromium","60.12","Windows 10","21","female","right","Wed Oct 23 2024 09:38:59 GMT+0200 (Mitteleuropäische Sommerzeit)","1","22","0","1729691412468"
"1096","f","SpeechGestureMatch","../RequiredFiles/videos/JaDaumenrunter_f.mp4","Ist der Ball in der blauen Box?","Blue","Green","F","affirmation","mismatch","speech","yes","ThumbDown","female","speech-gesture","1536","864","edge-chromium","60.12","Windows 10","21","female","right","Wed Oct 23 2024 09:39:05 GMT+0200 (Mitteleuropäische Sommerzeit)","1","23","0","1729691412468"
"1256","j","SpeechGestureMatch","../RequiredFiles/videos/JaDaumenrunter_f_no_gesture.mp4","Ist der Ball in der grünen Box?","Green","Blue","F","affirmation","na","speech","yes","na","female","speech-gesture","1536","864","edge-chromium","60.12","Windows 10","21","female","right","Wed Oct 23 2024 09:39:12 GMT+0200 (Mitteleuropäische Sommerzeit)","1","24","1","1729691412468"
"858","j","SpeechGestureMatch","../RequiredFiles/videos/JaDaumenhoch_m.mp4","Ist der Ball in der grünen Box?","Blue","Green","J","affirmation","match","speech","yes","ThumbUp","male","speech-gesture","1536","864","edge-chromium","60.12","Windows 10","21","female","right","Wed Oct 23 2024 09:39:19 GMT+0200 (Mitteleuropäische Sommerzeit)","1","25","0","1729691412468"
"1308","j","SpeechGestureMatch","../RequiredFiles/videos/NeinDaumenhoch_m.mp4","Ist der Ball in der grünen Box?","Green","Blue","J","negation","mismatch","speech","no","ThumbUp","male","speech-gesture","1536","864","edge-chromium","60.12","Windows 10","21","female","right","Wed Oct 23 2024 09:39:25 GMT+0200 (Mitteleuropäische Sommerzeit)","1","26","0","1729691412468"
"913","j","SpeechGestureMatch","../RequiredFiles/videos/NeinDaumenhoch_f.mp4","Ist der Ball in der blauen Box?","Blue","Green","J","negation","mismatch","speech","no","ThumbUp","female","speech-gesture","1536","864","edge-chromium","60.12","Windows 10","21","female","right","Wed Oct 23 2024 09:39:32 GMT+0200 (Mitteleuropäische Sommerzeit)","1","27","0","1729691412468"
"907","f","SpeechGestureMatch","../RequiredFiles/videos/JaDaumenhoch_m.mp4","Ist der Ball in der grünen Box?","Green","Blue","F","affirmation","match","speech","yes","ThumbUp","male","speech-gesture","1536","864","edge-chromium","60.12","Windows 10","21","female","right","Wed Oct 23 2024 09:39:38 GMT+0200 (Mitteleuropäische Sommerzeit)","1","28","0","1729691412468"
"999","f","SpeechGestureMatch","../RequiredFiles/videos/NeinDaumenhoch_m.mp4","Ist der Ball in der grünen Box?","Blue","Green","F","negation","mismatch","speech","no","ThumbUp","male","speech-gesture","1536","864","edge-chromium","60.12","Windows 10","21","female","right","Wed Oct 23 2024 09:39:45 GMT+0200 (Mitteleuropäische Sommerzeit)","1","29","0","1729691412468"
"1064","f","SpeechGestureMatch","../RequiredFiles/videos/NeinDaumenrunter_f_no_gesture.mp4","Ist der Ball in der grünen Box?","Blue","Green","F","negation","na","speech","no","na","female","speech-gesture","1536","864","edge-chromium","60.12","Windows 10","21","female","right","Wed Oct 23 2024 09:39:51 GMT+0200 (Mitteleuropäische Sommerzeit)","1","30","0","1729691412468"
"947","j","SpeechGestureMatch","../RequiredFiles/videos/NeinDaumenhoch_f_no_gesture.mp4","Ist der Ball in der blauen Box?","Blue","Green","J","negation","na","speech","no","na","female","speech-gesture","1536","864","edge-chromium","60.12","Windows 10","21","female","right","Wed Oct 23 2024 09:39:58 GMT+0200 (Mitteleuropäische Sommerzeit)","1","31","0","1729691412468"
"861","f","SpeechGestureMatch","../RequiredFiles/videos/NeinDaumenhoch_m_no_gesture.mp4","Ist der Ball in der blauen Box?","Green","Blue","F","negation","na","speech","no","na","male","speech-gesture","1536","864","edge-chromium","60.12","Windows 10","21","female","right","Wed Oct 23 2024 09:40:04 GMT+0200 (Mitteleuropäische Sommerzeit)","1","32","0","1729691412468"
"1110","f","SpeechGestureMatch","../RequiredFiles/videos/JaDaumenhoch_f.mp4","Ist der Ball in der grünen Box?","Green","Blue","F","affirmation","match","speech","yes","ThumbUp","female","speech-gesture","1536","864","edge-chromium","60.12","Windows 10","21","female","right","Wed Oct 23 2024 09:40:11 GMT+0200 (Mitteleuropäische Sommerzeit)","1","33","0","1729691412468"
"917","j","SpeechGestureMatch","../RequiredFiles/videos/JaDaumenhoch_f.mp4","Ist der Ball in der grünen Box?","Blue","Green","J","affirmation","match","speech","yes","ThumbUp","female","speech-gesture","1536","864","edge-chromium","60.12","Windows 10","21","female","right","Wed Oct 23 2024 09:40:17 GMT+0200 (Mitteleuropäische Sommerzeit)","1","34","0","1729691412468"
"975","f","SpeechGestureMatch","../RequiredFiles/videos/JaDaumenhoch_m_no_gesture.mp4","Ist der Ball in der grünen Box?","Green","Blue","F","affirmation","na","speech","yes","na","male","speech-gesture","1536","864","edge-chromium","60.12","Windows 10","21","female","right","Wed Oct 23 2024 09:40:24 GMT+0200 (Mitteleuropäische Sommerzeit)","1","35","0","1729691412468"
"1031","j","SpeechGestureMatch","../RequiredFiles/videos/JaDaumenrunter_f.mp4","Ist der Ball in der grünen Box?","Blue","Green","J","affirmation","mismatch","speech","yes","ThumbDown","female","speech-gesture","1536","864","edge-chromium","60.12","Windows 10","21","female","right","Wed Oct 23 2024 09:40:31 GMT+0200 (Mitteleuropäische Sommerzeit)","1","36","0","1729691412468"
"1882","j","SpeechGestureMatch","../RequiredFiles/videos/NeinDaumenhoch_f.mp4","Ist der Ball in der grünen Box?","Green","Blue","J","negation","mismatch","speech","no","ThumbUp","female","speech-gesture","1536","864","edge-chromium","60.12","Windows 10","21","female","right","Wed Oct 23 2024 09:40:38 GMT+0200 (Mitteleuropäische Sommerzeit)","1","37","0","1729691412468"
"1301","f","SpeechGestureMatch","../RequiredFiles/videos/JaDaumenhoch_m.mp4","Ist der Ball in der blauen Box?","Blue","Green","F","affirmation","match","speech","yes","ThumbUp","male","speech-gesture","1536","864","edge-chromium","60.12","Windows 10","21","female","right","Wed Oct 23 2024 09:40:45 GMT+0200 (Mitteleuropäische Sommerzeit)","1","38","0","1729691412468"
"801","j","SpeechGestureMatch","../RequiredFiles/videos/JaDaumenhoch_m.mp4","Ist der Ball in der blauen Box?","Green","Blue","J","affirmation","match","speech","yes","ThumbUp","male","speech-gesture","1536","864","edge-chromium","60.12","Windows 10","21","female","right","Wed Oct 23 2024 09:40:51 GMT+0200 (Mitteleuropäische Sommerzeit)","1","39","0","1729691412468"
"1477","f","SpeechGestureMatch","../RequiredFiles/videos/NeinDaumenhoch_m_no_gesture.mp4","Ist der Ball in der grünen Box?","Blue","Green","F","negation","na","speech","no","na","male","speech-gesture","1536","864","edge-chromium","60.12","Windows 10","21","female","right","Wed Oct 23 2024 09:40:58 GMT+0200 (Mitteleuropäische Sommerzeit)","1","40","0","1729691412468"
"1076","f","SpeechGestureMatch","../RequiredFiles/videos/NeinDaumenhoch_f.mp4","Ist der Ball in der blauen Box?","Green","Blue","F","negation","mismatch","speech","no","ThumbUp","female","speech-gesture","1536","864","edge-chromium","60.12","Windows 10","21","female","right","Wed Oct 23 2024 09:41:05 GMT+0200 (Mitteleuropäische Sommerzeit)","1","41","0","1729691412468"
"1083","j","SpeechGestureMatch","../RequiredFiles/videos/NeinDaumenhoch_m.mp4","Ist der Ball in der blauen Box?","Blue","Green","J","negation","mismatch","speech","no","ThumbUp","male","speech-gesture","1536","864","edge-chromium","60.12","Windows 10","21","female","right","Wed Oct 23 2024 09:41:12 GMT+0200 (Mitteleuropäische Sommerzeit)","1","42","0","1729691412468"
"1038","f","SpeechGestureMatch","../RequiredFiles/videos/JaDaumenhoch_f_no_gesture.mp4","Ist der Ball in der blauen Box?","Blue","Green","F","affirmation","na","speech","yes","na","female","speech-gesture","1536","864","edge-chromium","60.12","Windows 10","21","female","right","Wed Oct 23 2024 09:41:18 GMT+0200 (Mitteleuropäische Sommerzeit)","1","43","0","1729691412468"
"959","f","SpeechGestureMatch","../RequiredFiles/videos/NeinDaumenhoch_m.mp4","Ist der Ball in der blauen Box?","Green","Blue","F","negation","mismatch","speech","no","ThumbUp","male","speech-gesture","1536","864","edge-chromium","60.12","Windows 10","21","female","right","Wed Oct 23 2024 09:41:25 GMT+0200 (Mitteleuropäische Sommerzeit)","1","44","0","1729691412468"
"849","f","SpeechGestureMatch","../RequiredFiles/videos/JaDaumenhoch_m_no_gesture.mp4","Ist der Ball in der blauen Box?","Blue","Green","F","affirmation","na","speech","yes","na","male","speech-gesture","1536","864","edge-chromium","60.12","Windows 10","21","female","right","Wed Oct 23 2024 09:41:31 GMT+0200 (Mitteleuropäische Sommerzeit)","1","45","0","1729691412468"
"911","f","SpeechGestureMatch","../RequiredFiles/videos/NeinDaumenrunter_m.mp4","Ist der Ball in der grünen Box?","Blue","Green","F","negation","match","speech","no","ThumbDown","male","speech-gesture","1536","864","edge-chromium","60.12","Windows 10","21","female","right","Wed Oct 23 2024 09:41:38 GMT+0200 (Mitteleuropäische Sommerzeit)","1","46","0","1729691412468"
"1500","j","SpeechGestureMatch","../RequiredFiles/videos/JaDaumenhoch_f.mp4","Ist der Ball in der blauen Box?","Green","Blue","J","affirmation","match","speech","yes","ThumbUp","female","speech-gesture","1536","864","edge-chromium","60.12","Windows 10","21","female","right","Wed Oct 23 2024 09:41:45 GMT+0200 (Mitteleuropäische Sommerzeit)","1","47","0","1729691412468"
"1041","j","SpeechGestureMatch","../RequiredFiles/videos/NeinDaumenrunter_f.mp4","Ist der Ball in der grünen Box?","Green","Blue","J","negation","match","speech","no","ThumbDown","female","speech-gesture","1536","864","edge-chromium","60.12","Windows 10","21","female","right","Wed Oct 23 2024 09:41:51 GMT+0200 (Mitteleuropäische Sommerzeit)","1","48","0","1729691412468"
"1041","f","SpeechGestureMatch","../RequiredFiles/videos/NeinDaumenrunter_m.mp4","Ist der Ball in der blauen Box?","Green","Blue","F","negation","match","speech","no","ThumbDown","male","speech-gesture","1536","864","edge-chromium","60.12","Windows 10","21","female","right","Wed Oct 23 2024 09:41:58 GMT+0200 (Mitteleuropäische Sommerzeit)","1","49","0","1729691412468"
"859","j","SpeechGestureMatch","../RequiredFiles/videos/NeinDaumenrunter_m.mp4","Ist der Ball in der blauen Box?","Blue","Green","J","negation","match","speech","no","ThumbDown","male","speech-gesture","1536","864","edge-chromium","60.12","Windows 10","21","female","right","Wed Oct 23 2024 09:42:04 GMT+0200 (Mitteleuropäische Sommerzeit)","1","50","0","1729691412468"
"861","j","SpeechGestureMatch","../RequiredFiles/videos/NeinDaumenrunter_m.mp4","Ist der Ball in der grünen Box?","Green","Blue","J","negation","match","speech","no","ThumbDown","male","speech-gesture","1536","864","edge-chromium","60.12","Windows 10","21","female","right","Wed Oct 23 2024 09:42:11 GMT+0200 (Mitteleuropäische Sommerzeit)","1","51","0","1729691412468"
"915","f","SpeechGestureMatch","../RequiredFiles/videos/NeinDaumenrunter_m_no_gesture.mp4","Ist der Ball in der blauen Box?","Green","Blue","F","negation","na","speech","no","na","male","speech-gesture","1536","864","edge-chromium","60.12","Windows 10","21","female","right","Wed Oct 23 2024 09:42:17 GMT+0200 (Mitteleuropäische Sommerzeit)","1","52","0","1729691412468"
"847","j","SpeechGestureMatch","../RequiredFiles/videos/JaDaumenrunter_m_no_gesture.mp4","Ist der Ball in der blauen Box?","Blue","Green","F","affirmation","na","speech","yes","na","male","speech-gesture","1536","864","edge-chromium","60.12","Windows 10","21","female","right","Wed Oct 23 2024 09:42:24 GMT+0200 (Mitteleuropäische Sommerzeit)","1","53","1","1729691412468"
"1098","f","SpeechGestureMatch","../RequiredFiles/videos/NeinDaumenrunter_m.mp4","Ist der Ball in der grünen Box?","Blue","Green","F","negation","match","speech","no","ThumbDown","male","speech-gesture","1536","864","edge-chromium","60.12","Windows 10","21","female","right","Wed Oct 23 2024 09:42:30 GMT+0200 (Mitteleuropäische Sommerzeit)","1","54","0","1729691412468"
"958","f","SpeechGestureMatch","../RequiredFiles/videos/JaDaumenrunter_f_no_gesture.mp4","Ist der Ball in der blauen Box?","Blue","Green","F","affirmation","na","speech","yes","na","female","speech-gesture","1536","864","edge-chromium","60.12","Windows 10","21","female","right","Wed Oct 23 2024 09:42:37 GMT+0200 (Mitteleuropäische Sommerzeit)","1","55","0","1729691412468"
"843","j","SpeechGestureMatch","../RequiredFiles/videos/JaDaumenrunter_f.mp4","Ist der Ball in der blauen Box?","Green","Blue","J","affirmation","mismatch","speech","yes","ThumbDown","female","speech-gesture","1536","864","edge-chromium","60.12","Windows 10","21","female","right","Wed Oct 23 2024 09:42:43 GMT+0200 (Mitteleuropäische Sommerzeit)","1","56","0","1729691412468"
"855","f","SpeechGestureMatch","../RequiredFiles/videos/NeinDaumenrunter_f.mp4","Ist der Ball in der blauen Box?","Green","Blue","F","negation","match","speech","no","ThumbDown","female","speech-gesture","1536","864","edge-chromium","60.12","Windows 10","21","female","right","Wed Oct 23 2024 09:42:50 GMT+0200 (Mitteleuropäische Sommerzeit)","1","57","0","1729691412468"
"895","f","SpeechGestureMatch","../RequiredFiles/videos/NeinDaumenrunter_m.mp4","Ist der Ball in der blauen Box?","Green","Blue","F","negation","match","speech","no","ThumbDown","male","speech-gesture","1536","864","edge-chromium","60.12","Windows 10","21","female","right","Wed Oct 23 2024 09:42:56 GMT+0200 (Mitteleuropäische Sommerzeit)","1","58","0","1729691412468"
"841","j","SpeechGestureMatch","../RequiredFiles/videos/JaDaumenhoch_m.mp4","Ist der Ball in der grünen Box?","Green","Blue","F","affirmation","match","speech","yes","ThumbUp","male","speech-gesture","1536","864","edge-chromium","60.12","Windows 10","21","female","right","Wed Oct 23 2024 09:43:02 GMT+0200 (Mitteleuropäische Sommerzeit)","1","59","1","1729691412468"
"1311","j","SpeechGestureMatch","../RequiredFiles/videos/JaDaumenhoch_f.mp4","Ist der Ball in der grünen Box?","Blue","Green","J","affirmation","match","speech","yes","ThumbUp","female","speech-gesture","1536","864","edge-chromium","60.12","Windows 10","21","female","right","Wed Oct 23 2024 09:43:09 GMT+0200 (Mitteleuropäische Sommerzeit)","1","60","0","1729691412468"
"1006","f","SpeechGestureMatch","../RequiredFiles/videos/NeinDaumenhoch_f.mp4","Ist der Ball in der grünen Box?","Blue","Green","F","negation","mismatch","speech","no","ThumbUp","female","speech-gesture","1536","864","edge-chromium","60.12","Windows 10","21","female","right","Wed Oct 23 2024 09:43:16 GMT+0200 (Mitteleuropäische Sommerzeit)","1","61","0","1729691412468"
"868","j","SpeechGestureMatch","../RequiredFiles/videos/JaDaumenrunter_m.mp4","Ist der Ball in der grünen Box?","Blue","Green","J","affirmation","mismatch","speech","yes","ThumbDown","male","speech-gesture","1536","864","edge-chromium","60.12","Windows 10","21","female","right","Wed Oct 23 2024 09:43:22 GMT+0200 (Mitteleuropäische Sommerzeit)","1","62","0","1729691412468"
"1098","j","SpeechGestureMatch","../RequiredFiles/videos/JaDaumenrunter_f_no_gesture.mp4","Ist der Ball in der grünen Box?","Blue","Green","J","affirmation","na","speech","yes","na","female","speech-gesture","1536","864","edge-chromium","60.12","Windows 10","21","female","right","Wed Oct 23 2024 09:43:29 GMT+0200 (Mitteleuropäische Sommerzeit)","1","63","0","1729691412468"
"855","f","SpeechGestureMatch","../RequiredFiles/videos/NeinDaumenrunter_f.mp4","Ist der Ball in der grünen Box?","Blue","Green","F","negation","match","speech","no","ThumbDown","female","speech-gesture","1536","864","edge-chromium","60.12","Windows 10","21","female","right","Wed Oct 23 2024 09:43:35 GMT+0200 (Mitteleuropäische Sommerzeit)","1","64","0","1729691412468"
"788","j","SpeechGestureMatch","../RequiredFiles/videos/JaDaumenhoch_m_no_gesture.mp4","Ist der Ball in der grünen Box?","Blue","Green","J","affirmation","na","speech","yes","na","male","speech-gesture","1536","864","edge-chromium","60.12","Windows 10","21","female","right","Wed Oct 23 2024 09:43:42 GMT+0200 (Mitteleuropäische Sommerzeit)","1","65","0","1729691412468"
"784","j","SpeechGestureMatch","../RequiredFiles/videos/JaDaumenhoch_m.mp4","Ist der Ball in der grünen Box?","Blue","Green","J","affirmation","match","speech","yes","ThumbUp","male","speech-gesture","1536","864","edge-chromium","60.12","Windows 10","21","female","right","Wed Oct 23 2024 09:43:48 GMT+0200 (Mitteleuropäische Sommerzeit)","1","66","0","1729691412468"
"1224","f","SpeechGestureMatch","../RequiredFiles/videos/JaDaumenrunter_f.mp4","Ist der Ball in der grünen Box?","Green","Blue","F","affirmation","mismatch","speech","yes","ThumbDown","female","speech-gesture","1536","864","edge-chromium","60.12","Windows 10","21","female","right","Wed Oct 23 2024 09:43:55 GMT+0200 (Mitteleuropäische Sommerzeit)","1","67","0","1729691412468"
"1045","f","SpeechGestureMatch","../RequiredFiles/videos/JaDaumenhoch_f_no_gesture.mp4","Ist der Ball in der grünen Box?","Green","Blue","F","affirmation","na","speech","yes","na","female","speech-gesture","1536","864","edge-chromium","60.12","Windows 10","21","female","right","Wed Oct 23 2024 09:44:01 GMT+0200 (Mitteleuropäische Sommerzeit)","1","68","0","1729691412468"
"755","j","SpeechGestureMatch","../RequiredFiles/videos/NeinDaumenrunter_f.mp4","Ist der Ball in der blauen Box?","Blue","Green","J","negation","match","speech","no","ThumbDown","female","speech-gesture","1536","864","edge-chromium","60.12","Windows 10","21","female","right","Wed Oct 23 2024 09:44:08 GMT+0200 (Mitteleuropäische Sommerzeit)","1","69","0","1729691412468"
"937","f","SpeechGestureMatch","../RequiredFiles/videos/JaDaumenhoch_f_no_gesture.mp4","Ist der Ball in der grünen Box?","Blue","Green","J","affirmation","na","speech","yes","na","female","speech-gesture","1536","864","edge-chromium","60.12","Windows 10","21","female","right","Wed Oct 23 2024 09:44:14 GMT+0200 (Mitteleuropäische Sommerzeit)","1","70","1","1729691412468"
"781","j","SpeechGestureMatch","../RequiredFiles/videos/JaDaumenhoch_m.mp4","Ist der Ball in der blauen Box?","Green","Blue","J","affirmation","match","speech","yes","ThumbUp","male","speech-gesture","1536","864","edge-chromium","60.12","Windows 10","21","female","right","Wed Oct 23 2024 09:44:20 GMT+0200 (Mitteleuropäische Sommerzeit)","1","71","0","1729691412468"
"833","j","SpeechGestureMatch","../RequiredFiles/videos/JaDaumenrunter_m_no_gesture.mp4","Ist der Ball in der blauen Box?","Green","Blue","J","affirmation","na","speech","yes","na","male","speech-gesture","1536","864","edge-chromium","60.12","Windows 10","21","female","right","Wed Oct 23 2024 09:44:27 GMT+0200 (Mitteleuropäische Sommerzeit)","1","72","0","1729691412468"
"903","f","SpeechGestureMatch","../RequiredFiles/videos/JaDaumenrunter_m.mp4","Ist der Ball in der blauen Box?","Blue","Green","F","affirmation","mismatch","speech","yes","ThumbDown","male","speech-gesture","1536","864","edge-chromium","60.12","Windows 10","21","female","right","Wed Oct 23 2024 09:44:33 GMT+0200 (Mitteleuropäische Sommerzeit)","1","73","0","1729691412468"
"807","f","SpeechGestureMatch","../RequiredFiles/videos/JaDaumenrunter_m_no_gesture.mp4","Ist der Ball in der grünen Box?","Green","Blue","F","affirmation","na","speech","yes","na","male","speech-gesture","1536","864","edge-chromium","60.12","Windows 10","21","female","right","Wed Oct 23 2024 09:44:40 GMT+0200 (Mitteleuropäische Sommerzeit)","1","74","0","1729691412468"
"829","f","SpeechGestureMatch","../RequiredFiles/videos/NeinDaumenhoch_f.mp4","Ist der Ball in der grünen Box?","Blue","Green","F","negation","mismatch","speech","no","ThumbUp","female","speech-gesture","1536","864","edge-chromium","60.12","Windows 10","21","female","right","Wed Oct 23 2024 09:44:46 GMT+0200 (Mitteleuropäische Sommerzeit)","1","75","0","1729691412468"
"951","f","SpeechGestureMatch","../RequiredFiles/videos/JaDaumenhoch_f.mp4","Ist der Ball in der blauen Box?","Blue","Green","F","affirmation","match","speech","yes","ThumbUp","female","speech-gesture","1536","864","edge-chromium","60.12","Windows 10","21","female","right","Wed Oct 23 2024 09:44:53 GMT+0200 (Mitteleuropäische Sommerzeit)","1","76","0","1729691412468"
"809","j","SpeechGestureMatch","../RequiredFiles/videos/JaDaumenrunter_f_no_gesture.mp4","Ist der Ball in der blauen Box?","Green","Blue","J","affirmation","na","speech","yes","na","female","speech-gesture","1536","864","edge-chromium","60.12","Windows 10","21","female","right","Wed Oct 23 2024 09:44:59 GMT+0200 (Mitteleuropäische Sommerzeit)","1","77","0","1729691412468"
"1142","j","SpeechGestureMatch","../RequiredFiles/videos/JaDaumenrunter_m.mp4","Ist der Ball in der blauen Box?","Green","Blue","J","affirmation","mismatch","speech","yes","ThumbDown","male","speech-gesture","1536","864","edge-chromium","60.12","Windows 10","21","female","right","Wed Oct 23 2024 09:45:06 GMT+0200 (Mitteleuropäische Sommerzeit)","1","78","0","1729691412468"
"954","j","SpeechGestureMatch","../RequiredFiles/videos/JaDaumenrunter_m_no_gesture.mp4","Ist der Ball in der grünen Box?","Blue","Green","J","affirmation","na","speech","yes","na","male","speech-gesture","1536","864","edge-chromium","60.12","Windows 10","21","female","right","Wed Oct 23 2024 09:45:12 GMT+0200 (Mitteleuropäische Sommerzeit)","1","79","0","1729691412468"
"1420","f","SpeechGestureMatch","../RequiredFiles/videos/NeinDaumenhoch_m.mp4","Ist der Ball in der grünen Box?","Blue","Green","F","negation","mismatch","speech","no","ThumbUp","male","speech-gesture","1536","864","edge-chromium","60.12","Windows 10","21","female","right","Wed Oct 23 2024 09:45:19 GMT+0200 (Mitteleuropäische Sommerzeit)","1","80","0","1729691412468"
"838","f","SpeechGestureMatch","../RequiredFiles/videos/JaDaumenhoch_m.mp4","Ist der Ball in der blauen Box?","Blue","Green","F","affirmation","match","speech","yes","ThumbUp","male","speech-gesture","1536","864","edge-chromium","60.12","Windows 10","21","female","right","Wed Oct 23 2024 09:45:25 GMT+0200 (Mitteleuropäische Sommerzeit)","1","81","0","1729691412468"
"847","f","SpeechGestureMatch","../RequiredFiles/videos/NeinDaumenrunter_m_no_gesture.mp4","Ist der Ball in der grünen Box?","Blue","Green","F","negation","na","speech","no","na","male","speech-gesture","1536","864","edge-chromium","60.12","Windows 10","21","female","right","Wed Oct 23 2024 09:45:32 GMT+0200 (Mitteleuropäische Sommerzeit)","1","82","0","1729691412468"
"1109","f","SpeechGestureMatch","../RequiredFiles/videos/NeinDaumenhoch_f_no_gesture.mp4","Ist der Ball in der blauen Box?","Green","Blue","F","negation","na","speech","no","na","female","speech-gesture","1536","864","edge-chromium","60.12","Windows 10","21","female","right","Wed Oct 23 2024 09:45:39 GMT+0200 (Mitteleuropäische Sommerzeit)","1","83","0","1729691412468"
"950","f","SpeechGestureMatch","../RequiredFiles/videos/JaDaumenrunter_m.mp4","Ist der Ball in der grünen Box?","Green","Blue","F","affirmation","mismatch","speech","yes","ThumbDown","male","speech-gesture","1536","864","edge-chromium","60.12","Windows 10","21","female","right","Wed Oct 23 2024 09:45:45 GMT+0200 (Mitteleuropäische Sommerzeit)","1","84","0","1729691412468"
"899","j","SpeechGestureMatch","../RequiredFiles/videos/JaDaumenrunter_f.mp4","Ist der Ball in der grünen Box?","Blue","Green","J","affirmation","mismatch","speech","yes","ThumbDown","female","speech-gesture","1536","864","edge-chromium","60.12","Windows 10","21","female","right","Wed Oct 23 2024 09:45:52 GMT+0200 (Mitteleuropäische Sommerzeit)","1","85","0","1729691412468"
"900","f","SpeechGestureMatch","../RequiredFiles/videos/JaDaumenhoch_f.mp4","Ist der Ball in der blauen Box?","Blue","Green","F","affirmation","match","speech","yes","ThumbUp","female","speech-gesture","1536","864","edge-chromium","60.12","Windows 10","21","female","right","Wed Oct 23 2024 09:45:58 GMT+0200 (Mitteleuropäische Sommerzeit)","1","86","0","1729691412468"
"940","j","SpeechGestureMatch","../RequiredFiles/videos/NeinDaumenhoch_f_no_gesture.mp4","Ist der Ball in der grünen Box?","Green","Blue","J","negation","na","speech","no","na","female","speech-gesture","1536","864","edge-chromium","60.12","Windows 10","21","female","right","Wed Oct 23 2024 09:46:04 GMT+0200 (Mitteleuropäische Sommerzeit)","1","87","0","1729691412468"
"1142","j","SpeechGestureMatch","../RequiredFiles/videos/NeinDaumenhoch_f.mp4","Ist der Ball in der grünen Box?","Green","Blue","J","negation","mismatch","speech","no","ThumbUp","female","speech-gesture","1536","864","edge-chromium","60.12","Windows 10","21","female","right","Wed Oct 23 2024 09:46:11 GMT+0200 (Mitteleuropäische Sommerzeit)","1","88","0","1729691412468"
"857","j","SpeechGestureMatch","../RequiredFiles/videos/NeinDaumenhoch_m_no_gesture.mp4","Ist der Ball in der blauen Box?","Blue","Green","J","negation","na","speech","no","na","male","speech-gesture","1536","864","edge-chromium","60.12","Windows 10","21","female","right","Wed Oct 23 2024 09:46:18 GMT+0200 (Mitteleuropäische Sommerzeit)","1","89","0","1729691412468"
"1292","j","SpeechGestureMatch","../RequiredFiles/videos/JaDaumenrunter_f.mp4","Ist der Ball in der blauen Box?","Green","Blue","J","affirmation","mismatch","speech","yes","ThumbDown","female","speech-gesture","1536","864","edge-chromium","60.12","Windows 10","21","female","right","Wed Oct 23 2024 09:46:24 GMT+0200 (Mitteleuropäische Sommerzeit)","1","90","0","1729691412468"
"908","f","SpeechGestureMatch","../RequiredFiles/videos/NeinDaumenhoch_m.mp4","Ist der Ball in der grünen Box?","Green","Blue","J","negation","mismatch","speech","no","ThumbUp","male","speech-gesture","1536","864","edge-chromium","60.12","Windows 10","21","female","right","Wed Oct 23 2024 09:46:31 GMT+0200 (Mitteleuropäische Sommerzeit)","1","91","1","1729691412468"
"1186","f","SpeechGestureMatch","../RequiredFiles/videos/NeinDaumenhoch_m.mp4","Ist der Ball in der blauen Box?","Green","Blue","F","negation","mismatch","speech","no","ThumbUp","male","speech-gesture","1536","864","edge-chromium","60.12","Windows 10","21","female","right","Wed Oct 23 2024 09:46:38 GMT+0200 (Mitteleuropäische Sommerzeit)","1","92","0","1729691412468"
"974","j","SpeechGestureMatch","../RequiredFiles/videos/NeinDaumenrunter_f_no_gesture.mp4","Ist der Ball in der grünen Box?","Green","Blue","J","negation","na","speech","no","na","female","speech-gesture","1536","864","edge-chromium","60.12","Windows 10","21","female","right","Wed Oct 23 2024 09:46:44 GMT+0200 (Mitteleuropäische Sommerzeit)","1","93","0","1729691412468"
"895","j","SpeechGestureMatch","../RequiredFiles/videos/NeinDaumenhoch_f.mp4","Ist der Ball in der blauen Box?","Green","Blue","F","negation","mismatch","speech","no","ThumbUp","female","speech-gesture","1536","864","edge-chromium","60.12","Windows 10","21","female","right","Wed Oct 23 2024 09:46:51 GMT+0200 (Mitteleuropäische Sommerzeit)","1","94","1","1729691412468"
"1150","f","SpeechGestureMatch","../RequiredFiles/videos/JaDaumenrunter_f.mp4","Ist der Ball in der grünen Box?","Green","Blue","F","affirmation","mismatch","speech","yes","ThumbDown","female","speech-gesture","1536","864","edge-chromium","60.12","Windows 10","21","female","right","Wed Oct 23 2024 09:46:57 GMT+0200 (Mitteleuropäische Sommerzeit)","1","95","0","1729691412468"
"914","j","SpeechGestureMatch","../RequiredFiles/videos/NeinDaumenhoch_m_no_gesture.mp4","Ist der Ball in der grünen Box?","Green","Blue","J","negation","na","speech","no","na","male","speech-gesture","1536","864","edge-chromium","60.12","Windows 10","21","female","right","Wed Oct 23 2024 09:47:04 GMT+0200 (Mitteleuropäische Sommerzeit)","1","96","0","1729691412468"
"2081","f","SpeechGestureMatch","../RequiredFiles/videos/JaDaumenrunter_f.mp4","Ist der Ball in der blauen Box?","Green","Blue","J","affirmation","mismatch","speech","yes","ThumbDown","female","speech-gesture","1536","864","edge-chromium","60.12","Windows 10","21","female","right","Wed Oct 23 2024 09:52:14 GMT+0200 (Mitteleuropäische Sommerzeit)","2","1","1","1729691412468"
"1387","f","SpeechGestureMatch","../RequiredFiles/videos/NeinDaumenhoch_f.mp4","Ist der Ball in der blauen Box?","Green","Blue","F","negation","mismatch","speech","no","ThumbUp","female","speech-gesture","1536","864","edge-chromium","60.12","Windows 10","21","female","right","Wed Oct 23 2024 09:52:21 GMT+0200 (Mitteleuropäische Sommerzeit)","2","2","0","1729691412468"
"1085","j","SpeechGestureMatch","../RequiredFiles/videos/NeinDaumenhoch_m_no_gesture.mp4","Ist der Ball in der grünen Box?","Green","Blue","J","negation","na","speech","no","na","male","speech-gesture","1536","864","edge-chromium","60.12","Windows 10","21","female","right","Wed Oct 23 2024 09:52:28 GMT+0200 (Mitteleuropäische Sommerzeit)","2","3","0","1729691412468"
"857","j","SpeechGestureMatch","../RequiredFiles/videos/NeinDaumenhoch_f.mp4","Ist der Ball in der blauen Box?","Blue","Green","J","negation","mismatch","speech","no","ThumbUp","female","speech-gesture","1536","864","edge-chromium","60.12","Windows 10","21","female","right","Wed Oct 23 2024 09:52:34 GMT+0200 (Mitteleuropäische Sommerzeit)","2","4","0","1729691412468"
"1013","f","SpeechGestureMatch","../RequiredFiles/videos/NeinDaumenrunter_f.mp4","Ist der Ball in der blauen Box?","Green","Blue","F","negation","match","speech","no","ThumbDown","female","speech-gesture","1536","864","edge-chromium","60.12","Windows 10","21","female","right","Wed Oct 23 2024 09:52:41 GMT+0200 (Mitteleuropäische Sommerzeit)","2","5","0","1729691412468"
"957","j","SpeechGestureMatch","../RequiredFiles/videos/JaDaumenhoch_f.mp4","Ist der Ball in der blauen Box?","Green","Blue","J","affirmation","match","speech","yes","ThumbUp","female","speech-gesture","1536","864","edge-chromium","60.12","Windows 10","21","female","right","Wed Oct 23 2024 09:52:47 GMT+0200 (Mitteleuropäische Sommerzeit)","2","6","0","1729691412468"
"890","f","SpeechGestureMatch","../RequiredFiles/videos/NeinDaumenhoch_m.mp4","Ist der Ball in der grünen Box?","Blue","Green","F","negation","mismatch","speech","no","ThumbUp","male","speech-gesture","1536","864","edge-chromium","60.12","Windows 10","21","female","right","Wed Oct 23 2024 09:52:54 GMT+0200 (Mitteleuropäische Sommerzeit)","2","7","0","1729691412468"
"866","f","SpeechGestureMatch","../RequiredFiles/videos/JaDaumenrunter_m.mp4","Ist der Ball in der grünen Box?","Green","Blue","F","affirmation","mismatch","speech","yes","ThumbDown","male","speech-gesture","1536","864","edge-chromium","60.12","Windows 10","21","female","right","Wed Oct 23 2024 09:53:00 GMT+0200 (Mitteleuropäische Sommerzeit)","2","8","0","1729691412468"
"991","j","SpeechGestureMatch","../RequiredFiles/videos/JaDaumenrunter_f.mp4","Ist der Ball in der grünen Box?","Blue","Green","J","affirmation","mismatch","speech","yes","ThumbDown","female","speech-gesture","1536","864","edge-chromium","60.12","Windows 10","21","female","right","Wed Oct 23 2024 09:53:07 GMT+0200 (Mitteleuropäische Sommerzeit)","2","9","0","1729691412468"
"1065","f","SpeechGestureMatch","../RequiredFiles/videos/NeinDaumenrunter_m.mp4","Ist der Ball in der blauen Box?","Green","Blue","F","negation","match","speech","no","ThumbDown","male","speech-gesture","1536","864","edge-chromium","60.12","Windows 10","21","female","right","Wed Oct 23 2024 09:53:13 GMT+0200 (Mitteleuropäische Sommerzeit)","2","10","0","1729691412468"
"1005","f","SpeechGestureMatch","../RequiredFiles/videos/JaDaumenhoch_m_no_gesture.mp4","Ist der Ball in der blauen Box?","Blue","Green","F","affirmation","na","speech","yes","na","male","speech-gesture","1536","864","edge-chromium","60.12","Windows 10","21","female","right","Wed Oct 23 2024 09:53:20 GMT+0200 (Mitteleuropäische Sommerzeit)","2","11","0","1729691412468"
"858","f","SpeechGestureMatch","../RequiredFiles/videos/JaDaumenrunter_m.mp4","Ist der Ball in der blauen Box?","Blue","Green","F","affirmation","mismatch","speech","yes","ThumbDown","male","speech-gesture","1536","864","edge-chromium","60.12","Windows 10","21","female","right","Wed Oct 23 2024 09:53:26 GMT+0200 (Mitteleuropäische Sommerzeit)","2","12","0","1729691412468"
"956","j","SpeechGestureMatch","../RequiredFiles/videos/NeinDaumenhoch_f.mp4","Ist der Ball in der grünen Box?","Blue","Green","F","negation","mismatch","speech","no","ThumbUp","female","speech-gesture","1536","864","edge-chromium","60.12","Windows 10","21","female","right","Wed Oct 23 2024 09:53:33 GMT+0200 (Mitteleuropäische Sommerzeit)","2","13","1","1729691412468"
"905","j","SpeechGestureMatch","../RequiredFiles/videos/JaDaumenhoch_f_no_gesture.mp4","Ist der Ball in der grünen Box?","Blue","Green","J","affirmation","na","speech","yes","na","female","speech-gesture","1536","864","edge-chromium","60.12","Windows 10","21","female","right","Wed Oct 23 2024 09:53:39 GMT+0200 (Mitteleuropäische Sommerzeit)","2","14","0","1729691412468"
"935","f","SpeechGestureMatch","../RequiredFiles/videos/JaDaumenrunter_f_no_gesture.mp4","Ist der Ball in der grünen Box?","Green","Blue","F","affirmation","na","speech","yes","na","female","speech-gesture","1536","864","edge-chromium","60.12","Windows 10","21","female","right","Wed Oct 23 2024 09:53:46 GMT+0200 (Mitteleuropäische Sommerzeit)","2","15","0","1729691412468"
"1330","f","SpeechGestureMatch","../RequiredFiles/videos/JaDaumenrunter_f.mp4","Ist der Ball in der blauen Box?","Blue","Green","F","affirmation","mismatch","speech","yes","ThumbDown","female","speech-gesture","1536","864","edge-chromium","60.12","Windows 10","21","female","right","Wed Oct 23 2024 09:53:52 GMT+0200 (Mitteleuropäische Sommerzeit)","2","16","0","1729691412468"
"813","f","SpeechGestureMatch","../RequiredFiles/videos/JaDaumenhoch_m.mp4","Ist der Ball in der grünen Box?","Green","Blue","F","affirmation","match","speech","yes","ThumbUp","male","speech-gesture","1536","864","edge-chromium","60.12","Windows 10","21","female","right","Wed Oct 23 2024 09:53:59 GMT+0200 (Mitteleuropäische Sommerzeit)","2","17","0","1729691412468"
"1104","f","SpeechGestureMatch","../RequiredFiles/videos/NeinDaumenhoch_m.mp4","Ist der Ball in der blauen Box?","Green","Blue","F","negation","mismatch","speech","no","ThumbUp","male","speech-gesture","1536","864","edge-chromium","60.12","Windows 10","21","female","right","Wed Oct 23 2024 09:54:05 GMT+0200 (Mitteleuropäische Sommerzeit)","2","18","0","1729691412468"
"1063","j","SpeechGestureMatch","../RequiredFiles/videos/JaDaumenhoch_f_no_gesture.mp4","Ist der Ball in der grünen Box?","Green","Blue","F","affirmation","na","speech","yes","na","female","speech-gesture","1536","864","edge-chromium","60.12","Windows 10","21","female","right","Wed Oct 23 2024 09:54:12 GMT+0200 (Mitteleuropäische Sommerzeit)","2","19","1","1729691412468"
"1163","f","SpeechGestureMatch","../RequiredFiles/videos/NeinDaumenrunter_m_no_gesture.mp4","Ist der Ball in der blauen Box?","Green","Blue","F","negation","na","speech","no","na","male","speech-gesture","1536","864","edge-chromium","60.12","Windows 10","21","female","right","Wed Oct 23 2024 09:54:19 GMT+0200 (Mitteleuropäische Sommerzeit)","2","20","0","1729691412468"
"1058","f","SpeechGestureMatch","../RequiredFiles/videos/JaDaumenrunter_m_no_gesture.mp4","Ist der Ball in der grünen Box?","Green","Blue","F","affirmation","na","speech","yes","na","male","speech-gesture","1536","864","edge-chromium","60.12","Windows 10","21","female","right","Wed Oct 23 2024 09:54:25 GMT+0200 (Mitteleuropäische Sommerzeit)","2","21","0","1729691412468"
"1179","j","SpeechGestureMatch","../RequiredFiles/videos/NeinDaumenrunter_m.mp4","Ist der Ball in der grünen Box?","Blue","Green","F","negation","match","speech","no","ThumbDown","male","speech-gesture","1536","864","edge-chromium","60.12","Windows 10","21","female","right","Wed Oct 23 2024 09:54:32 GMT+0200 (Mitteleuropäische Sommerzeit)","2","22","1","1729691412468"
"1162","j","SpeechGestureMatch","../RequiredFiles/videos/NeinDaumenrunter_m.mp4","Ist der Ball in der blauen Box?","Blue","Green","J","negation","match","speech","no","ThumbDown","male","speech-gesture","1536","864","edge-chromium","60.12","Windows 10","21","female","right","Wed Oct 23 2024 09:54:39 GMT+0200 (Mitteleuropäische Sommerzeit)","2","23","0","1729691412468"
"1125","f","SpeechGestureMatch","../RequiredFiles/videos/JaDaumenhoch_f_no_gesture.mp4","Ist der Ball in der blauen Box?","Blue","Green","F","affirmation","na","speech","yes","na","female","speech-gesture","1536","864","edge-chromium","60.12","Windows 10","21","female","right","Wed Oct 23 2024 09:54:46 GMT+0200 (Mitteleuropäische Sommerzeit)","2","24","0","1729691412468"
"930","j","SpeechGestureMatch","../RequiredFiles/videos/JaDaumenrunter_m.mp4","Ist der Ball in der grünen Box?","Blue","Green","J","affirmation","mismatch","speech","yes","ThumbDown","male","speech-gesture","1536","864","edge-chromium","60.12","Windows 10","21","female","right","Wed Oct 23 2024 09:54:52 GMT+0200 (Mitteleuropäische Sommerzeit)","2","25","0","1729691412468"
"868","f","SpeechGestureMatch","../RequiredFiles/videos/JaDaumenrunter_m.mp4","Ist der Ball in der grünen Box?","Green","Blue","F","affirmation","mismatch","speech","yes","ThumbDown","male","speech-gesture","1536","864","edge-chromium","60.12","Windows 10","21","female","right","Wed Oct 23 2024 09:54:58 GMT+0200 (Mitteleuropäische Sommerzeit)","2","26","0","1729691412468"
"697","j","SpeechGestureMatch","../RequiredFiles/videos/JaDaumenrunter_m.mp4","Ist der Ball in der grünen Box?","Blue","Green","J","affirmation","mismatch","speech","yes","ThumbDown","male","speech-gesture","1536","864","edge-chromium","60.12","Windows 10","21","female","right","Wed Oct 23 2024 09:55:05 GMT+0200 (Mitteleuropäische Sommerzeit)","2","27","0","1729691412468"
"869","j","SpeechGestureMatch","../RequiredFiles/videos/NeinDaumenrunter_m.mp4","Ist der Ball in der grünen Box?","Green","Blue","J","negation","match","speech","no","ThumbDown","male","speech-gesture","1536","864","edge-chromium","60.12","Windows 10","21","female","right","Wed Oct 23 2024 09:55:11 GMT+0200 (Mitteleuropäische Sommerzeit)","2","28","0","1729691412468"
"1025","f","SpeechGestureMatch","../RequiredFiles/videos/JaDaumenrunter_m.mp4","Ist der Ball in der blauen Box?","Blue","Green","F","affirmation","mismatch","speech","yes","ThumbDown","male","speech-gesture","1536","864","edge-chromium","60.12","Windows 10","21","female","right","Wed Oct 23 2024 09:55:18 GMT+0200 (Mitteleuropäische Sommerzeit)","2","29","0","1729691412468"
"964","j","SpeechGestureMatch","../RequiredFiles/videos/NeinDaumenhoch_m.mp4","Ist der Ball in der grünen Box?","Green","Blue","J","negation","mismatch","speech","no","ThumbUp","male","speech-gesture","1536","864","edge-chromium","60.12","Windows 10","21","female","right","Wed Oct 23 2024 09:55:24 GMT+0200 (Mitteleuropäische Sommerzeit)","2","30","0","1729691412468"
"788","f","SpeechGestureMatch","../RequiredFiles/videos/JaDaumenhoch_m_no_gesture.mp4","Ist der Ball in der grünen Box?","Blue","Green","J","affirmation","na","speech","yes","na","male","speech-gesture","1536","864","edge-chromium","60.12","Windows 10","21","female","right","Wed Oct 23 2024 09:55:31 GMT+0200 (Mitteleuropäische Sommerzeit)","2","31","1","1729691412468"
"932","f","SpeechGestureMatch","../RequiredFiles/videos/JaDaumenhoch_f.mp4","Ist der Ball in der grünen Box?","Green","Blue","F","affirmation","match","speech","yes","ThumbUp","female","speech-gesture","1536","864","edge-chromium","60.12","Windows 10","21","female","right","Wed Oct 23 2024 09:55:37 GMT+0200 (Mitteleuropäische Sommerzeit)","2","32","0","1729691412468"
"1165","j","SpeechGestureMatch","../RequiredFiles/videos/NeinDaumenhoch_f.mp4","Ist der Ball in der blauen Box?","Blue","Green","J","negation","mismatch","speech","no","ThumbUp","female","speech-gesture","1536","864","edge-chromium","60.12","Windows 10","21","female","right","Wed Oct 23 2024 09:55:44 GMT+0200 (Mitteleuropäische Sommerzeit)","2","33","0","1729691412468"
"1019","j","SpeechGestureMatch","../RequiredFiles/videos/NeinDaumenhoch_m_no_gesture.mp4","Ist der Ball in der blauen Box?","Blue","Green","J","negation","na","speech","no","na","male","speech-gesture","1536","864","edge-chromium","60.12","Windows 10","21","female","right","Wed Oct 23 2024 09:55:50 GMT+0200 (Mitteleuropäische Sommerzeit)","2","34","0","1729691412468"
"823","j","SpeechGestureMatch","../RequiredFiles/videos/NeinDaumenhoch_m.mp4","Ist der Ball in der grünen Box?","Green","Blue","J","negation","mismatch","speech","no","ThumbUp","male","speech-gesture","1536","864","edge-chromium","60.12","Windows 10","21","female","right","Wed Oct 23 2024 09:55:57 GMT+0200 (Mitteleuropäische Sommerzeit)","2","35","0","1729691412468"
"919","j","SpeechGestureMatch","../RequiredFiles/videos/NeinDaumenrunter_m.mp4","Ist der Ball in der grünen Box?","Green","Blue","J","negation","match","speech","no","ThumbDown","male","speech-gesture","1536","864","edge-chromium","60.12","Windows 10","21","female","right","Wed Oct 23 2024 09:56:03 GMT+0200 (Mitteleuropäische Sommerzeit)","2","36","0","1729691412468"
"1033","f","SpeechGestureMatch","../RequiredFiles/videos/JaDaumenhoch_f.mp4","Ist der Ball in der grünen Box?","Blue","Green","J","affirmation","match","speech","yes","ThumbUp","female","speech-gesture","1536","864","edge-chromium","60.12","Windows 10","21","female","right","Wed Oct 23 2024 09:56:10 GMT+0200 (Mitteleuropäische Sommerzeit)","2","37","1","1729691412468"
"1591","j","SpeechGestureMatch","../RequiredFiles/videos/NeinDaumenrunter_f.mp4","Ist der Ball in der grünen Box?","Green","Blue","J","negation","match","speech","no","ThumbDown","female","speech-gesture","1536","864","edge-chromium","60.12","Windows 10","21","female","right","Wed Oct 23 2024 09:56:17 GMT+0200 (Mitteleuropäische Sommerzeit)","2","38","0","1729691412468"
"829","f","SpeechGestureMatch","../RequiredFiles/videos/JaDaumenrunter_f.mp4","Ist der Ball in der grünen Box?","Green","Blue","F","affirmation","mismatch","speech","yes","ThumbDown","female","speech-gesture","1536","864","edge-chromium","60.12","Windows 10","21","female","right","Wed Oct 23 2024 09:56:23 GMT+0200 (Mitteleuropäische Sommerzeit)","2","39","0","1729691412468"
"766","j","SpeechGestureMatch","../RequiredFiles/videos/JaDaumenhoch_m.mp4","Ist der Ball in der blauen Box?","Green","Blue","J","affirmation","match","speech","yes","ThumbUp","male","speech-gesture","1536","864","edge-chromium","60.12","Windows 10","21","female","right","Wed Oct 23 2024 09:56:30 GMT+0200 (Mitteleuropäische Sommerzeit)","2","40","0","1729691412468"
"1124","f","SpeechGestureMatch","../RequiredFiles/videos/JaDaumenrunter_f.mp4","Ist der Ball in der blauen Box?","Blue","Green","F","affirmation","mismatch","speech","yes","ThumbDown","female","speech-gesture","1536","864","edge-chromium","60.12","Windows 10","21","female","right","Wed Oct 23 2024 09:56:36 GMT+0200 (Mitteleuropäische Sommerzeit)","2","41","0","1729691412468"
"1004","j","SpeechGestureMatch","../RequiredFiles/videos/JaDaumenhoch_f.mp4","Ist der Ball in der grünen Box?","Blue","Green","J","affirmation","match","speech","yes","ThumbUp","female","speech-gesture","1536","864","edge-chromium","60.12","Windows 10","21","female","right","Wed Oct 23 2024 09:56:43 GMT+0200 (Mitteleuropäische Sommerzeit)","2","42","0","1729691412468"
"1517","f","SpeechGestureMatch","../RequiredFiles/videos/NeinDaumenrunter_f.mp4","Ist der Ball in der blauen Box?","Green","Blue","F","negation","match","speech","no","ThumbDown","female","speech-gesture","1536","864","edge-chromium","60.12","Windows 10","21","female","right","Wed Oct 23 2024 09:56:50 GMT+0200 (Mitteleuropäische Sommerzeit)","2","43","0","1729691412468"
"957","f","SpeechGestureMatch","../RequiredFiles/videos/JaDaumenhoch_m.mp4","Ist der Ball in der blauen Box?","Blue","Green","F","affirmation","match","speech","yes","ThumbUp","male","speech-gesture","1536","864","edge-chromium","60.12","Windows 10","21","female","right","Wed Oct 23 2024 09:56:56 GMT+0200 (Mitteleuropäische Sommerzeit)","2","44","0","1729691412468"
"927","f","SpeechGestureMatch","../RequiredFiles/videos/JaDaumenhoch_f.mp4","Ist der Ball in der blauen Box?","Blue","Green","F","affirmation","match","speech","yes","ThumbUp","female","speech-gesture","1536","864","edge-chromium","60.12","Windows 10","21","female","right","Wed Oct 23 2024 09:57:03 GMT+0200 (Mitteleuropäische Sommerzeit)","2","45","0","1729691412468"
"1078","j","SpeechGestureMatch","../RequiredFiles/videos/JaDaumenrunter_m_no_gesture.mp4","Ist der Ball in der grünen Box?","Blue","Green","J","affirmation","na","speech","yes","na","male","speech-gesture","1536","864","edge-chromium","60.12","Windows 10","21","female","right","Wed Oct 23 2024 09:57:09 GMT+0200 (Mitteleuropäische Sommerzeit)","2","46","0","1729691412468"
"1161","f","SpeechGestureMatch","../RequiredFiles/videos/NeinDaumenhoch_f.mp4","Ist der Ball in der grünen Box?","Blue","Green","F","negation","mismatch","speech","no","ThumbUp","female","speech-gesture","1536","864","edge-chromium","60.12","Windows 10","21","female","right","Wed Oct 23 2024 09:57:16 GMT+0200 (Mitteleuropäische Sommerzeit)","2","47","0","1729691412468"
"742","j","SpeechGestureMatch","../RequiredFiles/videos/JaDaumenhoch_f.mp4","Ist der Ball in der blauen Box?","Green","Blue","J","affirmation","match","speech","yes","ThumbUp","female","speech-gesture","1536","864","edge-chromium","60.12","Windows 10","21","female","right","Wed Oct 23 2024 09:57:22 GMT+0200 (Mitteleuropäische Sommerzeit)","2","48","0","1729691412468"
"806","j","SpeechGestureMatch","../RequiredFiles/videos/JaDaumenhoch_m.mp4","Ist der Ball in der blauen Box?","Green","Blue","J","affirmation","match","speech","yes","ThumbUp","male","speech-gesture","1536","864","edge-chromium","60.12","Windows 10","21","female","right","Wed Oct 23 2024 09:57:29 GMT+0200 (Mitteleuropäische Sommerzeit)","2","49","0","1729691412468"
"762","f","SpeechGestureMatch","../RequiredFiles/videos/JaDaumenhoch_m.mp4","Ist der Ball in der grünen Box?","Green","Blue","F","affirmation","match","speech","yes","ThumbUp","male","speech-gesture","1536","864","edge-chromium","60.12","Windows 10","21","female","right","Wed Oct 23 2024 09:57:35 GMT+0200 (Mitteleuropäische Sommerzeit)","2","50","0","1729691412468"
"980","f","SpeechGestureMatch","../RequiredFiles/videos/NeinDaumenrunter_m.mp4","Ist der Ball in der blauen Box?","Green","Blue","F","negation","match","speech","no","ThumbDown","male","speech-gesture","1536","864","edge-chromium","60.12","Windows 10","21","female","right","Wed Oct 23 2024 09:57:42 GMT+0200 (Mitteleuropäische Sommerzeit)","2","51","0","1729691412468"
"888","j","SpeechGestureMatch","../RequiredFiles/videos/NeinDaumenhoch_f_no_gesture.mp4","Ist der Ball in der blauen Box?","Blue","Green","J","negation","na","speech","no","na","female","speech-gesture","1536","864","edge-chromium","60.12","Windows 10","21","female","right","Wed Oct 23 2024 09:57:48 GMT+0200 (Mitteleuropäische Sommerzeit)","2","52","0","1729691412468"
"966","f","SpeechGestureMatch","../RequiredFiles/videos/NeinDaumenhoch_f_no_gesture.mp4","Ist der Ball in der grünen Box?","Green","Blue","J","negation","na","speech","no","na","female","speech-gesture","1536","864","edge-chromium","60.12","Windows 10","21","female","right","Wed Oct 23 2024 09:57:55 GMT+0200 (Mitteleuropäische Sommerzeit)","2","53","1","1729691412468"
"801","f","SpeechGestureMatch","../RequiredFiles/videos/JaDaumenrunter_f_no_gesture.mp4","Ist der Ball in der blauen Box?","Blue","Green","F","affirmation","na","speech","yes","na","female","speech-gesture","1536","864","edge-chromium","60.12","Windows 10","21","female","right","Wed Oct 23 2024 09:58:01 GMT+0200 (Mitteleuropäische Sommerzeit)","2","54","0","1729691412468"
"1235","j","SpeechGestureMatch","../RequiredFiles/videos/NeinDaumenrunter_m.mp4","Ist der Ball in der blauen Box?","Blue","Green","J","negation","match","speech","no","ThumbDown","male","speech-gesture","1536","864","edge-chromium","60.12","Windows 10","21","female","right","Wed Oct 23 2024 09:58:08 GMT+0200 (Mitteleuropäische Sommerzeit)","2","55","0","1729691412468"
"796","j","SpeechGestureMatch","../RequiredFiles/videos/NeinDaumenrunter_f.mp4","Ist der Ball in der grünen Box?","Blue","Green","F","negation","match","speech","no","ThumbDown","female","speech-gesture","1536","864","edge-chromium","60.12","Windows 10","21","female","right","Wed Oct 23 2024 09:58:14 GMT+0200 (Mitteleuropäische Sommerzeit)","2","56","1","1729691412468"
"820","j","SpeechGestureMatch","../RequiredFiles/videos/JaDaumenhoch_m_no_gesture.mp4","Ist der Ball in der blauen Box?","Green","Blue","J","affirmation","na","speech","yes","na","male","speech-gesture","1536","864","edge-chromium","60.12","Windows 10","21","female","right","Wed Oct 23 2024 09:58:20 GMT+0200 (Mitteleuropäische Sommerzeit)","2","57","0","1729691412468"
"1290","f","SpeechGestureMatch","../RequiredFiles/videos/NeinDaumenrunter_f.mp4","Ist der Ball in der grünen Box?","Blue","Green","F","negation","match","speech","no","ThumbDown","female","speech-gesture","1536","864","edge-chromium","60.12","Windows 10","21","female","right","Wed Oct 23 2024 09:58:27 GMT+0200 (Mitteleuropäische Sommerzeit)","2","58","0","1729691412468"
"947","f","SpeechGestureMatch","../RequiredFiles/videos/JaDaumenrunter_f.mp4","Ist der Ball in der grünen Box?","Green","Blue","F","affirmation","mismatch","speech","yes","ThumbDown","female","speech-gesture","1536","864","edge-chromium","60.12","Windows 10","21","female","right","Wed Oct 23 2024 09:58:34 GMT+0200 (Mitteleuropäische Sommerzeit)","2","59","0","1729691412468"
"841","f","SpeechGestureMatch","../RequiredFiles/videos/NeinDaumenhoch_f.mp4","Ist der Ball in der blauen Box?","Green","Blue","F","negation","mismatch","speech","no","ThumbUp","female","speech-gesture","1536","864","edge-chromium","60.12","Windows 10","21","female","right","Wed Oct 23 2024 09:58:40 GMT+0200 (Mitteleuropäische Sommerzeit)","2","60","0","1729691412468"
"1079","j","SpeechGestureMatch","../RequiredFiles/videos/NeinDaumenrunter_f_no_gesture.mp4","Ist der Ball in der blauen Box?","Blue","Green","J","negation","na","speech","no","na","female","speech-gesture","1536","864","edge-chromium","60.12","Windows 10","21","female","right","Wed Oct 23 2024 09:58:47 GMT+0200 (Mitteleuropäische Sommerzeit)","2","61","0","1729691412468"
"866","j","SpeechGestureMatch","../RequiredFiles/videos/NeinDaumenrunter_m_no_gesture.mp4","Ist der Ball in der blauen Box?","Blue","Green","J","negation","na","speech","no","na","male","speech-gesture","1536","864","edge-chromium","60.12","Windows 10","21","female","right","Wed Oct 23 2024 09:58:53 GMT+0200 (Mitteleuropäische Sommerzeit)","2","62","0","1729691412468"
"1050","f","SpeechGestureMatch","../RequiredFiles/videos/NeinDaumenhoch_m_no_gesture.mp4","Ist der Ball in der grünen Box?","Blue","Green","F","negation","na","speech","no","na","male","speech-gesture","1536","864","edge-chromium","60.12","Windows 10","21","female","right","Wed Oct 23 2024 09:59:00 GMT+0200 (Mitteleuropäische Sommerzeit)","2","63","0","1729691412468"
"738","j","SpeechGestureMatch","../RequiredFiles/videos/NeinDaumenhoch_m.mp4","Ist der Ball in der blauen Box?","Blue","Green","J","negation","mismatch","speech","no","ThumbUp","male","speech-gesture","1536","864","edge-chromium","60.12","Windows 10","21","female","right","Wed Oct 23 2024 09:59:06 GMT+0200 (Mitteleuropäische Sommerzeit)","2","64","0","1729691412468"
"1121","f","SpeechGestureMatch","../RequiredFiles/videos/NeinDaumenhoch_f_no_gesture.mp4","Ist der Ball in der blauen Box?","Green","Blue","F","negation","na","speech","no","na","female","speech-gesture","1536","864","edge-chromium","60.12","Windows 10","21","female","right","Wed Oct 23 2024 09:59:13 GMT+0200 (Mitteleuropäische Sommerzeit)","2","65","0","1729691412468"
"983","j","SpeechGestureMatch","../RequiredFiles/videos/JaDaumenrunter_m_no_gesture.mp4","Ist der Ball in der blauen Box?","Green","Blue","J","affirmation","na","speech","yes","na","male","speech-gesture","1536","864","edge-chromium","60.12","Windows 10","21","female","right","Wed Oct 23 2024 09:59:19 GMT+0200 (Mitteleuropäische Sommerzeit)","2","66","0","1729691412468"
"905","j","SpeechGestureMatch","../RequiredFiles/videos/JaDaumenrunter_f_no_gesture.mp4","Ist der Ball in der grünen Box?","Blue","Green","J","affirmation","na","speech","yes","na","female","speech-gesture","1536","864","edge-chromium","60.12","Windows 10","21","female","right","Wed Oct 23 2024 09:59:26 GMT+0200 (Mitteleuropäische Sommerzeit)","2","67","0","1729691412468"
"1078","f","SpeechGestureMatch","../RequiredFiles/videos/NeinDaumenhoch_f.mp4","Ist der Ball in der grünen Box?","Green","Blue","J","negation","mismatch","speech","no","ThumbUp","female","speech-gesture","1536","864","edge-chromium","60.12","Windows 10","21","female","right","Wed Oct 23 2024 09:59:32 GMT+0200 (Mitteleuropäische Sommerzeit)","2","68","1","1729691412468"
"906","j","SpeechGestureMatch","../RequiredFiles/videos/JaDaumenhoch_f_no_gesture.mp4","Ist der Ball in der blauen Box?","Green","Blue","J","affirmation","na","speech","yes","na","female","speech-gesture","1536","864","edge-chromium","60.12","Windows 10","21","female","right","Wed Oct 23 2024 09:59:39 GMT+0200 (Mitteleuropäische Sommerzeit)","2","69","0","1729691412468"
"1084","j","SpeechGestureMatch","../RequiredFiles/videos/JaDaumenrunter_m.mp4","Ist der Ball in der blauen Box?","Green","Blue","J","affirmation","mismatch","speech","yes","ThumbDown","male","speech-gesture","1536","864","edge-chromium","60.12","Windows 10","21","female","right","Wed Oct 23 2024 09:59:46 GMT+0200 (Mitteleuropäische Sommerzeit)","2","70","0","1729691412468"
"867","f","SpeechGestureMatch","../RequiredFiles/videos/NeinDaumenrunter_m_no_gesture.mp4","Ist der Ball in der grünen Box?","Green","Blue","J","negation","na","speech","no","na","male","speech-gesture","1536","864","edge-chromium","60.12","Windows 10","21","female","right","Wed Oct 23 2024 09:59:52 GMT+0200 (Mitteleuropäische Sommerzeit)","2","71","1","1729691412468"
"821","j","SpeechGestureMatch","../RequiredFiles/videos/JaDaumenrunter_m.mp4","Ist der Ball in der blauen Box?","Green","Blue","J","affirmation","mismatch","speech","yes","ThumbDown","male","speech-gesture","1536","864","edge-chromium","60.12","Windows 10","21","female","right","Wed Oct 23 2024 09:59:58 GMT+0200 (Mitteleuropäische Sommerzeit)","2","72","0","1729691412468"
"971","j","SpeechGestureMatch","../RequiredFiles/videos/JaDaumenhoch_m_no_gesture.mp4","Ist der Ball in der grünen Box?","Green","Blue","F","affirmation","na","speech","yes","na","male","speech-gesture","1536","864","edge-chromium","60.12","Windows 10","21","female","right","Wed Oct 23 2024 10:00:05 GMT+0200 (Mitteleuropäische Sommerzeit)","2","73","1","1729691412468"
"787","j","SpeechGestureMatch","../RequiredFiles/videos/JaDaumenrunter_f.mp4","Ist der Ball in der blauen Box?","Green","Blue","J","affirmation","mismatch","speech","yes","ThumbDown","female","speech-gesture","1536","864","edge-chromium","60.12","Windows 10","21","female","right","Wed Oct 23 2024 10:00:11 GMT+0200 (Mitteleuropäische Sommerzeit)","2","74","0","1729691412468"
"987","f","SpeechGestureMatch","../RequiredFiles/videos/JaDaumenhoch_m.mp4","Ist der Ball in der blauen Box?","Blue","Green","F","affirmation","match","speech","yes","ThumbUp","male","speech-gesture","1536","864","edge-chromium","60.12","Windows 10","21","female","right","Wed Oct 23 2024 10:00:18 GMT+0200 (Mitteleuropäische Sommerzeit)","2","75","0","1729691412468"
"1055","j","SpeechGestureMatch","../RequiredFiles/videos/NeinDaumenrunter_f.mp4","Ist der Ball in der blauen Box?","Blue","Green","J","negation","match","speech","no","ThumbDown","female","speech-gesture","1536","864","edge-chromium","60.12","Windows 10","21","female","right","Wed Oct 23 2024 10:00:24 GMT+0200 (Mitteleuropäische Sommerzeit)","2","76","0","1729691412468"
"965","j","SpeechGestureMatch","../RequiredFiles/videos/NeinDaumenrunter_f.mp4","Ist der Ball in der blauen Box?","Blue","Green","J","negation","match","speech","no","ThumbDown","female","speech-gesture","1536","864","edge-chromium","60.12","Windows 10","21","female","right","Wed Oct 23 2024 10:00:31 GMT+0200 (Mitteleuropäische Sommerzeit)","2","77","0","1729691412468"
"1200","f","SpeechGestureMatch","../RequiredFiles/videos/NeinDaumenrunter_f_no_gesture.mp4","Ist der Ball in der grünen Box?","Blue","Green","F","negation","na","speech","no","na","female","speech-gesture","1536","864","edge-chromium","60.12","Windows 10","21","female","right","Wed Oct 23 2024 10:00:38 GMT+0200 (Mitteleuropäische Sommerzeit)","2","78","0","1729691412468"
"747","j","SpeechGestureMatch","../RequiredFiles/videos/JaDaumenhoch_m.mp4","Ist der Ball in der grünen Box?","Blue","Green","J","affirmation","match","speech","yes","ThumbUp","male","speech-gesture","1536","864","edge-chromium","60.12","Windows 10","21","female","right","Wed Oct 23 2024 10:00:44 GMT+0200 (Mitteleuropäische Sommerzeit)","2","79","0","1729691412468"
"810","f","SpeechGestureMatch","../RequiredFiles/videos/NeinDaumenrunter_m_no_gesture.mp4","Ist der Ball in der grünen Box?","Blue","Green","F","negation","na","speech","no","na","male","speech-gesture","1536","864","edge-chromium","60.12","Windows 10","21","female","right","Wed Oct 23 2024 10:00:50 GMT+0200 (Mitteleuropäische Sommerzeit)","2","80","0","1729691412468"
"843","f","SpeechGestureMatch","../RequiredFiles/videos/NeinDaumenrunter_m.mp4","Ist der Ball in der grünen Box?","Blue","Green","F","negation","match","speech","no","ThumbDown","male","speech-gesture","1536","864","edge-chromium","60.12","Windows 10","21","female","right","Wed Oct 23 2024 10:00:57 GMT+0200 (Mitteleuropäische Sommerzeit)","2","81","0","1729691412468"
"972","f","SpeechGestureMatch","../RequiredFiles/videos/JaDaumenhoch_f.mp4","Ist der Ball in der blauen Box?","Blue","Green","F","affirmation","match","speech","yes","ThumbUp","female","speech-gesture","1536","864","edge-chromium","60.12","Windows 10","21","female","right","Wed Oct 23 2024 10:01:03 GMT+0200 (Mitteleuropäische Sommerzeit)","2","82","0","1729691412468"
"1077","j","SpeechGestureMatch","../RequiredFiles/videos/NeinDaumenrunter_f.mp4","Ist der Ball in der grünen Box?","Green","Blue","J","negation","match","speech","no","ThumbDown","female","speech-gesture","1536","864","edge-chromium","60.12","Windows 10","21","female","right","Wed Oct 23 2024 10:01:10 GMT+0200 (Mitteleuropäische Sommerzeit)","2","83","0","1729691412468"
"979","f","SpeechGestureMatch","../RequiredFiles/videos/NeinDaumenhoch_m.mp4","Ist der Ball in der grünen Box?","Blue","Green","F","negation","mismatch","speech","no","ThumbUp","male","speech-gesture","1536","864","edge-chromium","60.12","Windows 10","21","female","right","Wed Oct 23 2024 10:01:16 GMT+0200 (Mitteleuropäische Sommerzeit)","2","84","0","1729691412468"
"1446","j","SpeechGestureMatch","../RequiredFiles/videos/JaDaumenrunter_m_no_gesture.mp4","Ist der Ball in der blauen Box?","Blue","Green","F","affirmation","na","speech","yes","na","male","speech-gesture","1536","864","edge-chromium","60.12","Windows 10","21","female","right","Wed Oct 23 2024 10:01:23 GMT+0200 (Mitteleuropäische Sommerzeit)","2","85","1","1729691412468"
"1116","j","SpeechGestureMatch","../RequiredFiles/videos/JaDaumenhoch_m.mp4","Ist der Ball in der grünen Box?","Blue","Green","J","affirmation","match","speech","yes","ThumbUp","male","speech-gesture","1536","864","edge-chromium","60.12","Windows 10","21","female","right","Wed Oct 23 2024 10:01:30 GMT+0200 (Mitteleuropäische Sommerzeit)","2","86","0","1729691412468"
"969","j","SpeechGestureMatch","../RequiredFiles/videos/NeinDaumenhoch_m.mp4","Ist der Ball in der blauen Box?","Blue","Green","J","negation","mismatch","speech","no","ThumbUp","male","speech-gesture","1536","864","edge-chromium","60.12","Windows 10","21","female","right","Wed Oct 23 2024 10:01:37 GMT+0200 (Mitteleuropäische Sommerzeit)","2","87","0","1729691412468"
"1005","f","SpeechGestureMatch","../RequiredFiles/videos/NeinDaumenhoch_m.mp4","Ist der Ball in der blauen Box?","Green","Blue","F","negation","mismatch","speech","no","ThumbUp","male","speech-gesture","1536","864","edge-chromium","60.12","Windows 10","21","female","right","Wed Oct 23 2024 10:01:43 GMT+0200 (Mitteleuropäische Sommerzeit)","2","88","0","1729691412468"
"1331","f","SpeechGestureMatch","../RequiredFiles/videos/NeinDaumenhoch_f_no_gesture.mp4","Ist der Ball in der grünen Box?","Blue","Green","F","negation","na","speech","no","na","female","speech-gesture","1536","864","edge-chromium","60.12","Windows 10","21","female","right","Wed Oct 23 2024 10:01:50 GMT+0200 (Mitteleuropäische Sommerzeit)","2","89","0","1729691412468"
"1120","j","SpeechGestureMatch","../RequiredFiles/videos/NeinDaumenhoch_m_no_gesture.mp4","Ist der Ball in der blauen Box?","Green","Blue","F","negation","na","speech","no","na","male","speech-gesture","1536","864","edge-chromium","60.12","Windows 10","21","female","right","Wed Oct 23 2024 10:01:57 GMT+0200 (Mitteleuropäische Sommerzeit)","2","90","1","1729691412468"
"1049","f","SpeechGestureMatch","../RequiredFiles/videos/NeinDaumenrunter_f_no_gesture.mp4","Ist der Ball in der blauen Box?","Green","Blue","F","negation","na","speech","no","na","female","speech-gesture","1536","864","edge-chromium","60.12","Windows 10","21","female","right","Wed Oct 23 2024 10:02:03 GMT+0200 (Mitteleuropäische Sommerzeit)","2","91","0","1729691412468"
"827","j","SpeechGestureMatch","../RequiredFiles/videos/NeinDaumenrunter_f_no_gesture.mp4","Ist der Ball in der grünen Box?","Green","Blue","J","negation","na","speech","no","na","female","speech-gesture","1536","864","edge-chromium","60.12","Windows 10","21","female","right","Wed Oct 23 2024 10:02:10 GMT+0200 (Mitteleuropäische Sommerzeit)","2","92","0","1729691412468"
"2559","j","SpeechGestureMatch","../RequiredFiles/videos/JaDaumenrunter_f_no_gesture.mp4","Ist der Ball in der blauen Box?","Green","Blue","J","affirmation","na","speech","yes","na","female","speech-gesture","1536","864","edge-chromium","60.12","Windows 10","21","female","right","Wed Oct 23 2024 10:02:18 GMT+0200 (Mitteleuropäische Sommerzeit)","2","93","0","1729691412468"
"984","f","SpeechGestureMatch","../RequiredFiles/videos/NeinDaumenhoch_f.mp4","Ist der Ball in der grünen Box?","Green","Blue","J","negation","mismatch","speech","no","ThumbUp","female","speech-gesture","1536","864","edge-chromium","60.12","Windows 10","21","female","right","Wed Oct 23 2024 10:02:24 GMT+0200 (Mitteleuropäische Sommerzeit)","2","94","1","1729691412468"
"965","f","SpeechGestureMatch","../RequiredFiles/videos/JaDaumenrunter_f.mp4","Ist der Ball in der grünen Box?","Blue","Green","J","affirmation","mismatch","speech","yes","ThumbDown","female","speech-gesture","1536","864","edge-chromium","60.12","Windows 10","21","female","right","Wed Oct 23 2024 10:02:31 GMT+0200 (Mitteleuropäische Sommerzeit)","2","95","1","1729691412468"
"1352","f","SpeechGestureMatch","../RequiredFiles/videos/JaDaumenhoch_f.mp4","Ist der Ball in der grünen Box?","Green","Blue","F","affirmation","match","speech","yes","ThumbUp","female","speech-gesture","1536","864","edge-chromium","60.12","Windows 10","21","female","right","Wed Oct 23 2024 10:02:38 GMT+0200 (Mitteleuropäische Sommerzeit)","2","96","0","1729691412468"
"1287","j","SpeechGestureMatch","../RequiredFiles/videos/NeinDaumenhoch_m_no_sound.mp4","Ist der Ball in der blauen Box?","Green","Blue","J","affirmation","na","gesture","na","ThumbUp","male","speech-gesture","1536","864","edge-chromium","60.12","Windows 10","21","female","right","Wed Oct 23 2024 15:28:49 GMT+0200 (Mitteleuropäische Sommerzeit)","3","1","0","1729691412468"
"1560","j","SpeechGestureMatch","../RequiredFiles/videos/JaDaumenhoch_m_no_sound.mp4","Ist der Ball in der grünen Box?","Green","Blue","F","affirmation","na","gesture","na","ThumbUp","male","speech-gesture","1536","864","edge-chromium","60.12","Windows 10","21","female","right","Wed Oct 23 2024 15:28:56 GMT+0200 (Mitteleuropäische Sommerzeit)","3","2","1","1729691412468"
"1665","j","SpeechGestureMatch","../RequiredFiles/videos/JaDaumenhoch_m.mp4","Ist der Ball in der grünen Box?","Blue","Green","J","affirmation","match","gesture","yes","ThumbUp","male","speech-gesture","1536","864","edge-chromium","60.12","Windows 10","21","female","right","Wed Oct 23 2024 15:29:03 GMT+0200 (Mitteleuropäische Sommerzeit)","3","3","0","1729691412468"
"1435","f","SpeechGestureMatch","../RequiredFiles/videos/JaDaumenhoch_m.mp4","Ist der Ball in der grünen Box?","Green","Blue","F","affirmation","match","gesture","yes","ThumbUp","male","speech-gesture","1536","864","edge-chromium","60.12","Windows 10","21","female","right","Wed Oct 23 2024 15:29:10 GMT+0200 (Mitteleuropäische Sommerzeit)","3","4","0","1729691412468"
"1177","f","SpeechGestureMatch","../RequiredFiles/videos/JaDaumenhoch_m_no_sound.mp4","Ist der Ball in der blauen Box?","Green","Blue","J","affirmation","na","gesture","na","ThumbUp","male","speech-gesture","1536","864","edge-chromium","60.12","Windows 10","21","female","right","Wed Oct 23 2024 15:29:17 GMT+0200 (Mitteleuropäische Sommerzeit)","3","5","1","1729691412468"
"818","j","SpeechGestureMatch","../RequiredFiles/videos/JaDaumenhoch_f_no_sound.mp4","Ist der Ball in der blauen Box?","Green","Blue","J","affirmation","na","gesture","na","ThumbUp","female","speech-gesture","1536","864","edge-chromium","60.12","Windows 10","21","female","right","Wed Oct 23 2024 15:29:23 GMT+0200 (Mitteleuropäische Sommerzeit)","3","6","0","1729691412468"
"1434","j","SpeechGestureMatch","../RequiredFiles/videos/JaDaumenrunter_m_no_sound.mp4","Ist der Ball in der grünen Box?","Green","Blue","J","negation","na","gesture","na","ThumbDown","male","speech-gesture","1536","864","edge-chromium","60.12","Windows 10","21","female","right","Wed Oct 23 2024 15:29:30 GMT+0200 (Mitteleuropäische Sommerzeit)","3","7","0","1729691412468"
"1257","f","SpeechGestureMatch","../RequiredFiles/videos/JaDaumenrunter_f.mp4","Ist der Ball in der blauen Box?","Green","Blue","F","negation","mismatch","gesture","yes","ThumbDown","female","speech-gesture","1536","864","edge-chromium","60.12","Windows 10","21","female","right","Wed Oct 23 2024 15:29:37 GMT+0200 (Mitteleuropäische Sommerzeit)","3","8","0","1729691412468"
"1157","f","SpeechGestureMatch","../RequiredFiles/videos/NeinDaumenhoch_m_no_sound.mp4","Ist der Ball in der blauen Box?","Blue","Green","F","affirmation","na","gesture","na","ThumbUp","male","speech-gesture","1536","864","edge-chromium","60.12","Windows 10","21","female","right","Wed Oct 23 2024 15:29:43 GMT+0200 (Mitteleuropäische Sommerzeit)","3","9","0","1729691412468"
"1040","j","SpeechGestureMatch","../RequiredFiles/videos/NeinDaumenrunter_m_no_sound.mp4","Ist der Ball in der blauen Box?","Blue","Green","J","negation","na","gesture","na","ThumbDown","male","speech-gesture","1536","864","edge-chromium","60.12","Windows 10","21","female","right","Wed Oct 23 2024 15:29:50 GMT+0200 (Mitteleuropäische Sommerzeit)","3","10","0","1729691412468"
"1305","f","SpeechGestureMatch","../RequiredFiles/videos/JaDaumenhoch_f.mp4","Ist der Ball in der blauen Box?","Blue","Green","F","affirmation","match","gesture","yes","ThumbUp","female","speech-gesture","1536","864","edge-chromium","60.12","Windows 10","21","female","right","Wed Oct 23 2024 15:29:57 GMT+0200 (Mitteleuropäische Sommerzeit)","3","11","0","1729691412468"
"2203","f","SpeechGestureMatch","../RequiredFiles/videos/JaDaumenrunter_m.mp4","Ist der Ball in der blauen Box?","Green","Blue","F","negation","mismatch","gesture","yes","ThumbDown","male","speech-gesture","1536","864","edge-chromium","60.12","Windows 10","21","female","right","Wed Oct 23 2024 15:30:05 GMT+0200 (Mitteleuropäische Sommerzeit)","3","12","0","1729691412468"
"2331","j","SpeechGestureMatch","../RequiredFiles/videos/JaDaumenhoch_m_no_sound.mp4","Ist der Ball in der grünen Box?","Blue","Green","J","affirmation","na","gesture","na","ThumbUp","male","speech-gesture","1536","864","edge-chromium","60.12","Windows 10","21","female","right","Wed Oct 23 2024 15:30:13 GMT+0200 (Mitteleuropäische Sommerzeit)","3","13","0","1729691412468"
"1308","j","SpeechGestureMatch","../RequiredFiles/videos/JaDaumenhoch_f.mp4","Ist der Ball in der grünen Box?","Blue","Green","J","affirmation","match","gesture","yes","ThumbUp","female","speech-gesture","1536","864","edge-chromium","60.12","Windows 10","21","female","right","Wed Oct 23 2024 15:30:19 GMT+0200 (Mitteleuropäische Sommerzeit)","3","14","0","1729691412468"
"1588","f","SpeechGestureMatch","../RequiredFiles/videos/NeinDaumenhoch_f.mp4","Ist der Ball in der blauen Box?","Blue","Green","F","affirmation","mismatch","gesture","no","ThumbUp","female","speech-gesture","1536","864","edge-chromium","60.12","Windows 10","21","female","right","Wed Oct 23 2024 15:30:27 GMT+0200 (Mitteleuropäische Sommerzeit)","3","15","0","1729691412468"
"1557","j","SpeechGestureMatch","../RequiredFiles/videos/JaDaumenrunter_f.mp4","Ist der Ball in der grünen Box?","Green","Blue","J","negation","mismatch","gesture","yes","ThumbDown","female","speech-gesture","1536","864","edge-chromium","60.12","Windows 10","21","female","right","Wed Oct 23 2024 15:30:34 GMT+0200 (Mitteleuropäische Sommerzeit)","3","16","0","1729691412468"
"879","f","SpeechGestureMatch","../RequiredFiles/videos/JaDaumenhoch_m_no_sound.mp4","Ist der Ball in der blauen Box?","Blue","Green","F","affirmation","na","gesture","na","ThumbUp","male","speech-gesture","1536","864","edge-chromium","60.12","Windows 10","21","female","right","Wed Oct 23 2024 15:30:40 GMT+0200 (Mitteleuropäische Sommerzeit)","3","17","0","1729691412468"
"1151","j","SpeechGestureMatch","../RequiredFiles/videos/JaDaumenrunter_m_no_sound.mp4","Ist der Ball in der blauen Box?","Blue","Green","J","negation","na","gesture","na","ThumbDown","male","speech-gesture","1536","864","edge-chromium","60.12","Windows 10","21","female","right","Wed Oct 23 2024 15:30:47 GMT+0200 (Mitteleuropäische Sommerzeit)","3","18","0","1729691412468"
"1435","j","SpeechGestureMatch","../RequiredFiles/videos/NeinDaumenrunter_f.mp4","Ist der Ball in der blauen Box?","Blue","Green","J","negation","match","gesture","no","ThumbDown","female","speech-gesture","1536","864","edge-chromium","60.12","Windows 10","21","female","right","Wed Oct 23 2024 15:30:54 GMT+0200 (Mitteleuropäische Sommerzeit)","3","19","0","1729691412468"
"1306","j","SpeechGestureMatch","../RequiredFiles/videos/NeinDaumenhoch_f.mp4","Ist der Ball in der blauen Box?","Green","Blue","J","affirmation","mismatch","gesture","no","ThumbUp","female","speech-gesture","1536","864","edge-chromium","60.12","Windows 10","21","female","right","Wed Oct 23 2024 15:31:01 GMT+0200 (Mitteleuropäische Sommerzeit)","3","20","0","1729691412468"
"795","f","SpeechGestureMatch","../RequiredFiles/videos/NeinDaumenhoch_f.mp4","Ist der Ball in der grünen Box?","Green","Blue","F","affirmation","mismatch","gesture","no","ThumbUp","female","speech-gesture","1536","864","edge-chromium","60.12","Windows 10","21","female","right","Wed Oct 23 2024 15:31:07 GMT+0200 (Mitteleuropäische Sommerzeit)","3","21","0","1729691412468"
"1243","f","SpeechGestureMatch","../RequiredFiles/videos/NeinDaumenrunter_f_no_sound.mp4","Ist der Ball in der blauen Box?","Green","Blue","F","negation","na","gesture","na","ThumbDown","female","speech-gesture","1536","864","edge-chromium","60.12","Windows 10","21","female","right","Wed Oct 23 2024 15:31:14 GMT+0200 (Mitteleuropäische Sommerzeit)","3","22","0","1729691412468"
"1209","f","SpeechGestureMatch","../RequiredFiles/videos/NeinDaumenhoch_m.mp4","Ist der Ball in der grünen Box?","Green","Blue","F","affirmation","mismatch","gesture","no","ThumbUp","male","speech-gesture","1536","864","edge-chromium","60.12","Windows 10","21","female","right","Wed Oct 23 2024 15:31:21 GMT+0200 (Mitteleuropäische Sommerzeit)","3","23","0","1729691412468"
"1087","f","SpeechGestureMatch","../RequiredFiles/videos/JaDaumenrunter_m.mp4","Ist der Ball in der grünen Box?","Blue","Green","F","negation","mismatch","gesture","yes","ThumbDown","male","speech-gesture","1536","864","edge-chromium","60.12","Windows 10","21","female","right","Wed Oct 23 2024 15:31:27 GMT+0200 (Mitteleuropäische Sommerzeit)","3","24","0","1729691412468"
"1283","j","SpeechGestureMatch","../RequiredFiles/videos/JaDaumenrunter_f_no_sound.mp4","Ist der Ball in der grünen Box?","Green","Blue","J","negation","na","gesture","na","ThumbDown","female","speech-gesture","1536","864","edge-chromium","60.12","Windows 10","21","female","right","Wed Oct 23 2024 15:31:34 GMT+0200 (Mitteleuropäische Sommerzeit)","3","25","0","1729691412468"
"1476","f","SpeechGestureMatch","../RequiredFiles/videos/NeinDaumenrunter_m.mp4","Ist der Ball in der grünen Box?","Blue","Green","F","negation","match","gesture","no","ThumbDown","male","speech-gesture","1536","864","edge-chromium","60.12","Windows 10","21","female","right","Wed Oct 23 2024 15:31:41 GMT+0200 (Mitteleuropäische Sommerzeit)","3","26","0","1729691412468"
"1296","j","SpeechGestureMatch","../RequiredFiles/videos/NeinDaumenrunter_f.mp4","Ist der Ball in der blauen Box?","Blue","Green","J","negation","match","gesture","no","ThumbDown","female","speech-gesture","1536","864","edge-chromium","60.12","Windows 10","21","female","right","Wed Oct 23 2024 15:31:48 GMT+0200 (Mitteleuropäische Sommerzeit)","3","27","0","1729691412468"
"1019","j","SpeechGestureMatch","../RequiredFiles/videos/NeinDaumenhoch_m.mp4","Ist der Ball in der grünen Box?","Blue","Green","J","affirmation","mismatch","gesture","no","ThumbUp","male","speech-gesture","1536","864","edge-chromium","60.12","Windows 10","21","female","right","Wed Oct 23 2024 15:31:54 GMT+0200 (Mitteleuropäische Sommerzeit)","3","28","0","1729691412468"
"1044","f","SpeechGestureMatch","../RequiredFiles/videos/JaDaumenhoch_m.mp4","Ist der Ball in der grünen Box?","Green","Blue","F","affirmation","match","gesture","yes","ThumbUp","male","speech-gesture","1536","864","edge-chromium","60.12","Windows 10","21","female","right","Wed Oct 23 2024 15:32:01 GMT+0200 (Mitteleuropäische Sommerzeit)","3","29","0","1729691412468"
"1191","f","SpeechGestureMatch","../RequiredFiles/videos/NeinDaumenhoch_f.mp4","Ist der Ball in der blauen Box?","Blue","Green","F","affirmation","mismatch","gesture","no","ThumbUp","female","speech-gesture","1536","864","edge-chromium","60.12","Windows 10","21","female","right","Wed Oct 23 2024 15:32:08 GMT+0200 (Mitteleuropäische Sommerzeit)","3","30","0","1729691412468"
"1098","f","SpeechGestureMatch","../RequiredFiles/videos/JaDaumenrunter_f.mp4","Ist der Ball in der blauen Box?","Blue","Green","J","negation","mismatch","gesture","yes","ThumbDown","female","speech-gesture","1536","864","edge-chromium","60.12","Windows 10","21","female","right","Wed Oct 23 2024 15:32:14 GMT+0200 (Mitteleuropäische Sommerzeit)","3","31","1","1729691412468"
"987","f","SpeechGestureMatch","../RequiredFiles/videos/NeinDaumenrunter_m_no_sound.mp4","Ist der Ball in der grünen Box?","Green","Blue","J","negation","na","gesture","na","ThumbDown","male","speech-gesture","1536","864","edge-chromium","60.12","Windows 10","21","female","right","Wed Oct 23 2024 15:32:21 GMT+0200 (Mitteleuropäische Sommerzeit)","3","32","1","1729691412468"
"1375","f","SpeechGestureMatch","../RequiredFiles/videos/JaDaumenhoch_f.mp4","Ist der Ball in der grünen Box?","Green","Blue","F","affirmation","match","gesture","yes","ThumbUp","female","speech-gesture","1536","864","edge-chromium","60.12","Windows 10","21","female","right","Wed Oct 23 2024 15:32:28 GMT+0200 (Mitteleuropäische Sommerzeit)","3","33","0","1729691412468"
"1838","j","SpeechGestureMatch","../RequiredFiles/videos/NeinDaumenhoch_f.mp4","Ist der Ball in der grünen Box?","Blue","Green","J","affirmation","mismatch","gesture","no","ThumbUp","female","speech-gesture","1536","864","edge-chromium","60.12","Windows 10","21","female","right","Wed Oct 23 2024 15:32:35 GMT+0200 (Mitteleuropäische Sommerzeit)","3","34","0","1729691412468"
"1028","f","SpeechGestureMatch","../RequiredFiles/videos/NeinDaumenrunter_m.mp4","Ist der Ball in der blauen Box?","Green","Blue","F","negation","match","gesture","no","ThumbDown","male","speech-gesture","1536","864","edge-chromium","60.12","Windows 10","21","female","right","Wed Oct 23 2024 15:32:42 GMT+0200 (Mitteleuropäische Sommerzeit)","3","35","0","1729691412468"
"896","f","SpeechGestureMatch","../RequiredFiles/videos/JaDaumenrunter_m_no_sound.mp4","Ist der Ball in der blauen Box?","Green","Blue","F","negation","na","gesture","na","ThumbDown","male","speech-gesture","1536","864","edge-chromium","60.12","Windows 10","21","female","right","Wed Oct 23 2024 15:32:48 GMT+0200 (Mitteleuropäische Sommerzeit)","3","36","0","1729691412468"
"1078","j","SpeechGestureMatch","../RequiredFiles/videos/JaDaumenhoch_f.mp4","Ist der Ball in der blauen Box?","Green","Blue","J","affirmation","match","gesture","yes","ThumbUp","female","speech-gesture","1536","864","edge-chromium","60.12","Windows 10","21","female","right","Wed Oct 23 2024 15:32:55 GMT+0200 (Mitteleuropäische Sommerzeit)","3","37","0","1729691412468"
"999","f","SpeechGestureMatch","../RequiredFiles/videos/NeinDaumenhoch_f.mp4","Ist der Ball in der blauen Box?","Green","Blue","J","affirmation","mismatch","gesture","no","ThumbUp","female","speech-gesture","1536","864","edge-chromium","60.12","Windows 10","21","female","right","Wed Oct 23 2024 15:33:01 GMT+0200 (Mitteleuropäische Sommerzeit)","3","38","1","1729691412468"
"916","f","SpeechGestureMatch","../RequiredFiles/videos/NeinDaumenrunter_m_no_sound.mp4","Ist der Ball in der blauen Box?","Green","Blue","F","negation","na","gesture","na","ThumbDown","male","speech-gesture","1536","864","edge-chromium","60.12","Windows 10","21","female","right","Wed Oct 23 2024 15:33:08 GMT+0200 (Mitteleuropäische Sommerzeit)","3","39","0","1729691412468"
"1055","f","SpeechGestureMatch","../RequiredFiles/videos/NeinDaumenhoch_m.mp4","Ist der Ball in der blauen Box?","Blue","Green","F","affirmation","mismatch","gesture","no","ThumbUp","male","speech-gesture","1536","864","edge-chromium","60.12","Windows 10","21","female","right","Wed Oct 23 2024 15:33:14 GMT+0200 (Mitteleuropäische Sommerzeit)","3","40","0","1729691412468"
"1391","j","SpeechGestureMatch","../RequiredFiles/videos/JaDaumenrunter_m.mp4","Ist der Ball in der grünen Box?","Green","Blue","J","negation","mismatch","gesture","yes","ThumbDown","male","speech-gesture","1536","864","edge-chromium","60.12","Windows 10","21","female","right","Wed Oct 23 2024 15:33:21 GMT+0200 (Mitteleuropäische Sommerzeit)","3","41","0","1729691412468"
"1454","j","SpeechGestureMatch","../RequiredFiles/videos/JaDaumenrunter_f_no_sound.mp4","Ist der Ball in der blauen Box?","Blue","Green","J","negation","na","gesture","na","ThumbDown","female","speech-gesture","1536","864","edge-chromium","60.12","Windows 10","21","female","right","Wed Oct 23 2024 15:33:28 GMT+0200 (Mitteleuropäische Sommerzeit)","3","42","0","1729691412468"
"1561","f","SpeechGestureMatch","../RequiredFiles/videos/JaDaumenrunter_m.mp4","Ist der Ball in der grünen Box?","Blue","Green","F","negation","mismatch","gesture","yes","ThumbDown","male","speech-gesture","1536","864","edge-chromium","60.12","Windows 10","21","female","right","Wed Oct 23 2024 15:33:35 GMT+0200 (Mitteleuropäische Sommerzeit)","3","43","0","1729691412468"
"1211","j","SpeechGestureMatch","../RequiredFiles/videos/JaDaumenrunter_m.mp4","Ist der Ball in der grünen Box?","Green","Blue","J","negation","mismatch","gesture","yes","ThumbDown","male","speech-gesture","1536","864","edge-chromium","60.12","Windows 10","21","female","right","Wed Oct 23 2024 15:33:42 GMT+0200 (Mitteleuropäische Sommerzeit)","3","44","0","1729691412468"
"1215","f","SpeechGestureMatch","../RequiredFiles/videos/NeinDaumenrunter_m_no_sound.mp4","Ist der Ball in der grünen Box?","Blue","Green","F","negation","na","gesture","na","ThumbDown","male","speech-gesture","1536","864","edge-chromium","60.12","Windows 10","21","female","right","Wed Oct 23 2024 15:33:49 GMT+0200 (Mitteleuropäische Sommerzeit)","3","45","0","1729691412468"
"1200","j","SpeechGestureMatch","../RequiredFiles/videos/JaDaumenrunter_m.mp4","Ist der Ball in der blauen Box?","Blue","Green","J","negation","mismatch","gesture","yes","ThumbDown","male","speech-gesture","1536","864","edge-chromium","60.12","Windows 10","21","female","right","Wed Oct 23 2024 15:33:56 GMT+0200 (Mitteleuropäische Sommerzeit)","3","46","0","1729691412468"
"1083","f","SpeechGestureMatch","../RequiredFiles/videos/JaDaumenhoch_f_no_sound.mp4","Ist der Ball in der grünen Box?","Green","Blue","F","affirmation","na","gesture","na","ThumbUp","female","speech-gesture","1536","864","edge-chromium","60.12","Windows 10","21","female","right","Wed Oct 23 2024 15:34:02 GMT+0200 (Mitteleuropäische Sommerzeit)","3","47","0","1729691412468"
"1154","j","SpeechGestureMatch","../RequiredFiles/videos/NeinDaumenhoch_m.mp4","Ist der Ball in der grünen Box?","Green","Blue","F","affirmation","mismatch","gesture","no","ThumbUp","male","speech-gesture","1536","864","edge-chromium","60.12","Windows 10","21","female","right","Wed Oct 23 2024 15:34:09 GMT+0200 (Mitteleuropäische Sommerzeit)","3","48","1","1729691412468"
"1244","f","SpeechGestureMatch","../RequiredFiles/videos/JaDaumenrunter_m_no_sound.mp4","Ist der Ball in der grünen Box?","Blue","Green","F","negation","na","gesture","na","ThumbDown","male","speech-gesture","1536","864","edge-chromium","60.12","Windows 10","21","female","right","Wed Oct 23 2024 15:34:16 GMT+0200 (Mitteleuropäische Sommerzeit)","3","49","0","1729691412468"
"1071","f","SpeechGestureMatch","../RequiredFiles/videos/NeinDaumenrunter_f_no_sound.mp4","Ist der Ball in der grünen Box?","Blue","Green","F","negation","na","gesture","na","ThumbDown","female","speech-gesture","1536","864","edge-chromium","60.12","Windows 10","21","female","right","Wed Oct 23 2024 15:34:23 GMT+0200 (Mitteleuropäische Sommerzeit)","3","50","0","1729691412468"
"1408","f","SpeechGestureMatch","../RequiredFiles/videos/NeinDaumenhoch_f.mp4","Ist der Ball in der grünen Box?","Green","Blue","F","affirmation","mismatch","gesture","no","ThumbUp","female","speech-gesture","1536","864","edge-chromium","60.12","Windows 10","21","female","right","Wed Oct 23 2024 15:34:30 GMT+0200 (Mitteleuropäische Sommerzeit)","3","51","0","1729691412468"
"884","j","SpeechGestureMatch","../RequiredFiles/videos/NeinDaumenhoch_m_no_sound.mp4","Ist der Ball in der grünen Box?","Blue","Green","J","affirmation","na","gesture","na","ThumbUp","male","speech-gesture","1536","864","edge-chromium","60.12","Windows 10","21","female","right","Wed Oct 23 2024 15:34:36 GMT+0200 (Mitteleuropäische Sommerzeit)","3","52","0","1729691412468"
"1111","f","SpeechGestureMatch","../RequiredFiles/videos/JaDaumenhoch_m.mp4","Ist der Ball in der blauen Box?","Blue","Green","F","affirmation","match","gesture","yes","ThumbUp","male","speech-gesture","1536","864","edge-chromium","60.12","Windows 10","21","female","right","Wed Oct 23 2024 15:34:43 GMT+0200 (Mitteleuropäische Sommerzeit)","3","53","0","1729691412468"
"765","j","SpeechGestureMatch","../RequiredFiles/videos/JaDaumenhoch_m.mp4","Ist der Ball in der grünen Box?","Blue","Green","J","affirmation","match","gesture","yes","ThumbUp","male","speech-gesture","1536","864","edge-chromium","60.12","Windows 10","21","female","right","Wed Oct 23 2024 15:34:49 GMT+0200 (Mitteleuropäische Sommerzeit)","3","54","0","1729691412468"
"1282","j","SpeechGestureMatch","../RequiredFiles/videos/NeinDaumenrunter_f.mp4","Ist der Ball in der grünen Box?","Green","Blue","J","negation","match","gesture","no","ThumbDown","female","speech-gesture","1536","864","edge-chromium","60.12","Windows 10","21","female","right","Wed Oct 23 2024 15:34:56 GMT+0200 (Mitteleuropäische Sommerzeit)","3","55","0","1729691412468"
"1072","j","SpeechGestureMatch","../RequiredFiles/videos/NeinDaumenhoch_m.mp4","Ist der Ball in der blauen Box?","Green","Blue","J","affirmation","mismatch","gesture","no","ThumbUp","male","speech-gesture","1536","864","edge-chromium","60.12","Windows 10","21","female","right","Wed Oct 23 2024 15:35:02 GMT+0200 (Mitteleuropäische Sommerzeit)","3","56","0","1729691412468"
"1000","j","SpeechGestureMatch","../RequiredFiles/videos/NeinDaumenhoch_m.mp4","Ist der Ball in der grünen Box?","Blue","Green","J","affirmation","mismatch","gesture","no","ThumbUp","male","speech-gesture","1536","864","edge-chromium","60.12","Windows 10","21","female","right","Wed Oct 23 2024 15:35:09 GMT+0200 (Mitteleuropäische Sommerzeit)","3","57","0","1729691412468"
"923","f","SpeechGestureMatch","../RequiredFiles/videos/NeinDaumenrunter_f.mp4","Ist der Ball in der blauen Box?","Green","Blue","F","negation","match","gesture","no","ThumbDown","female","speech-gesture","1536","864","edge-chromium","60.12","Windows 10","21","female","right","Wed Oct 23 2024 15:35:15 GMT+0200 (Mitteleuropäische Sommerzeit)","3","58","0","1729691412468"
"771","j","SpeechGestureMatch","../RequiredFiles/videos/JaDaumenhoch_f.mp4","Ist der Ball in der blauen Box?","Green","Blue","J","affirmation","match","gesture","yes","ThumbUp","female","speech-gesture","1536","864","edge-chromium","60.12","Windows 10","21","female","right","Wed Oct 23 2024 15:35:22 GMT+0200 (Mitteleuropäische Sommerzeit)","3","59","0","1729691412468"
"945","j","SpeechGestureMatch","../RequiredFiles/videos/NeinDaumenhoch_f.mp4","Ist der Ball in der grünen Box?","Blue","Green","J","affirmation","mismatch","gesture","no","ThumbUp","female","speech-gesture","1536","864","edge-chromium","60.12","Windows 10","21","female","right","Wed Oct 23 2024 15:35:28 GMT+0200 (Mitteleuropäische Sommerzeit)","3","60","0","1729691412468"
"835","f","SpeechGestureMatch","../RequiredFiles/videos/NeinDaumenrunter_m.mp4","Ist der Ball in der blauen Box?","Blue","Green","J","negation","match","gesture","no","ThumbDown","male","speech-gesture","1536","864","edge-chromium","60.12","Windows 10","21","female","right","Wed Oct 23 2024 15:35:35 GMT+0200 (Mitteleuropäische Sommerzeit)","3","61","1","1729691412468"
"1086","j","SpeechGestureMatch","../RequiredFiles/videos/NeinDaumenrunter_m.mp4","Ist der Ball in der grünen Box?","Green","Blue","J","negation","match","gesture","no","ThumbDown","male","speech-gesture","1536","864","edge-chromium","60.12","Windows 10","21","female","right","Wed Oct 23 2024 15:35:41 GMT+0200 (Mitteleuropäische Sommerzeit)","3","62","0","1729691412468"
"966","j","SpeechGestureMatch","../RequiredFiles/videos/JaDaumenrunter_f.mp4","Ist der Ball in der grünen Box?","Green","Blue","J","negation","mismatch","gesture","yes","ThumbDown","female","speech-gesture","1536","864","edge-chromium","60.12","Windows 10","21","female","right","Wed Oct 23 2024 15:35:48 GMT+0200 (Mitteleuropäische Sommerzeit)","3","63","0","1729691412468"
"1019","f","SpeechGestureMatch","../RequiredFiles/videos/JaDaumenhoch_f_no_sound.mp4","Ist der Ball in der blauen Box?","Blue","Green","F","affirmation","na","gesture","na","ThumbUp","female","speech-gesture","1536","864","edge-chromium","60.12","Windows 10","21","female","right","Wed Oct 23 2024 15:35:54 GMT+0200 (Mitteleuropäische Sommerzeit)","3","64","0","1729691412468"
"858","f","SpeechGestureMatch","../RequiredFiles/videos/NeinDaumenhoch_m_no_sound.mp4","Ist der Ball in der grünen Box?","Green","Blue","F","affirmation","na","gesture","na","ThumbUp","male","speech-gesture","1536","864","edge-chromium","60.12","Windows 10","21","female","right","Wed Oct 23 2024 15:36:01 GMT+0200 (Mitteleuropäische Sommerzeit)","3","65","0","1729691412468"
"1180","f","SpeechGestureMatch","../RequiredFiles/videos/JaDaumenhoch_m.mp4","Ist der Ball in der blauen Box?","Blue","Green","F","affirmation","match","gesture","yes","ThumbUp","male","speech-gesture","1536","864","edge-chromium","60.12","Windows 10","21","female","right","Wed Oct 23 2024 15:36:07 GMT+0200 (Mitteleuropäische Sommerzeit)","3","66","0","1729691412468"
"865","j","SpeechGestureMatch","../RequiredFiles/videos/JaDaumenrunter_m.mp4","Ist der Ball in der blauen Box?","Blue","Green","J","negation","mismatch","gesture","yes","ThumbDown","male","speech-gesture","1536","864","edge-chromium","60.12","Windows 10","21","female","right","Wed Oct 23 2024 15:36:14 GMT+0200 (Mitteleuropäische Sommerzeit)","3","67","0","1729691412468"
"1189","j","SpeechGestureMatch","../RequiredFiles/videos/NeinDaumenrunter_m.mp4","Ist der Ball in der grünen Box?","Green","Blue","J","negation","match","gesture","no","ThumbDown","male","speech-gesture","1536","864","edge-chromium","60.12","Windows 10","21","female","right","Wed Oct 23 2024 15:36:21 GMT+0200 (Mitteleuropäische Sommerzeit)","3","68","0","1729691412468"
"710","j","SpeechGestureMatch","../RequiredFiles/videos/JaDaumenrunter_f_no_sound.mp4","Ist der Ball in der blauen Box?","Green","Blue","F","negation","na","gesture","na","ThumbDown","female","speech-gesture","1536","864","edge-chromium","60.12","Windows 10","21","female","right","Wed Oct 23 2024 15:36:27 GMT+0200 (Mitteleuropäische Sommerzeit)","3","69","1","1729691412468"
"1444","f","SpeechGestureMatch","../RequiredFiles/videos/JaDaumenrunter_f.mp4","Ist der Ball in der grünen Box?","Blue","Green","F","negation","mismatch","gesture","yes","ThumbDown","female","speech-gesture","1536","864","edge-chromium","60.12","Windows 10","21","female","right","Wed Oct 23 2024 15:36:34 GMT+0200 (Mitteleuropäische Sommerzeit)","3","70","0","1729691412468"
"781","f","SpeechGestureMatch","../RequiredFiles/videos/JaDaumenrunter_m.mp4","Ist der Ball in der blauen Box?","Green","Blue","F","negation","mismatch","gesture","yes","ThumbDown","male","speech-gesture","1536","864","edge-chromium","60.12","Windows 10","21","female","right","Wed Oct 23 2024 15:36:40 GMT+0200 (Mitteleuropäische Sommerzeit)","3","71","0","1729691412468"
"954","j","SpeechGestureMatch","../RequiredFiles/videos/NeinDaumenhoch_f_no_sound.mp4","Ist der Ball in der grünen Box?","Blue","Green","J","affirmation","na","gesture","na","ThumbUp","female","speech-gesture","1536","864","edge-chromium","60.12","Windows 10","21","female","right","Wed Oct 23 2024 15:36:47 GMT+0200 (Mitteleuropäische Sommerzeit)","3","72","0","1729691412468"
"1114","j","SpeechGestureMatch","../RequiredFiles/videos/NeinDaumenrunter_f.mp4","Ist der Ball in der grünen Box?","Green","Blue","J","negation","match","gesture","no","ThumbDown","female","speech-gesture","1536","864","edge-chromium","60.12","Windows 10","21","female","right","Wed Oct 23 2024 15:36:53 GMT+0200 (Mitteleuropäische Sommerzeit)","3","73","0","1729691412468"
"1286","f","SpeechGestureMatch","../RequiredFiles/videos/JaDaumenhoch_f.mp4","Ist der Ball in der blauen Box?","Blue","Green","F","affirmation","match","gesture","yes","ThumbUp","female","speech-gesture","1536","864","edge-chromium","60.12","Windows 10","21","female","right","Wed Oct 23 2024 15:37:00 GMT+0200 (Mitteleuropäische Sommerzeit)","3","74","0","1729691412468"
