"rt","response","stim","video","question","box_colour_left","box_colour_right","correct_key","polarity","matching","modality","verbal","gesture","speaker","order","width","height","browser","vsync_rate","os","age","gender","handedness","date","blockNum","trialNum","error","vpNum"
"951","f","SpeechGestureMatch","../RequiredFiles/videos/JaKopfNein_m_no_gesture.mp4","Ist der Ball in der grünen Box?","Green","Blue","F","affirmation","na","speech","yes","na","male","speech-gesture","1500","1000","edge-chromium","60.93","Windows 10","22","female","right","Wed Oct 23 2024 20:53:01 GMT+0200 (Mitteleuropäische Sommerzeit)","1","1","0","1729713158175"
"993","j","SpeechGestureMatch","../RequiredFiles/videos/JaKopfNein_m.mp4","Ist der Ball in der grünen Box?","Blue","Green","J","affirmation","mismatch","speech","yes","HeadShake","male","speech-gesture","1500","1000","edge-chromium","60.93","Windows 10","22","female","right","Wed Oct 23 2024 20:53:08 GMT+0200 (Mitteleuropäische Sommerzeit)","1","2","0","1729713158175"
"899","j","SpeechGestureMatch","../RequiredFiles/videos/JaKopfJa_m.mp4","Ist der Ball in der blauen Box?","Green","Blue","J","affirmation","match","speech","yes","HeadNod","male","speech-gesture","1500","1000","edge-chromium","60.93","Windows 10","22","female","right","Wed Oct 23 2024 20:53:14 GMT+0200 (Mitteleuropäische Sommerzeit)","1","3","0","1729713158175"
"988","j","SpeechGestureMatch","../RequiredFiles/videos/NeinKopfJa_m.mp4","Ist der Ball in der grünen Box?","Blue","Green","F","negation","mismatch","speech","no","HeadNod","male","speech-gesture","1500","1000","edge-chromium","60.93","Windows 10","22","female","right","Wed Oct 23 2024 20:53:21 GMT+0200 (Mitteleuropäische Sommerzeit)","1","4","1","1729713158175"
"874","f","SpeechGestureMatch","../RequiredFiles/videos/NeinKopfNein_f.mp4","Ist der Ball in der grünen Box?","Blue","Green","F","negation","match","speech","no","HeadShake","female","speech-gesture","1500","1000","edge-chromium","60.93","Windows 10","22","female","right","Wed Oct 23 2024 20:53:27 GMT+0200 (Mitteleuropäische Sommerzeit)","1","5","0","1729713158175"
"1299","j","SpeechGestureMatch","../RequiredFiles/videos/NeinKopfNein_f_no_gesture.mp4","Ist der Ball in der grünen Box?","Green","Blue","J","negation","na","speech","no","na","female","speech-gesture","1500","1000","edge-chromium","60.93","Windows 10","22","female","right","Wed Oct 23 2024 20:53:34 GMT+0200 (Mitteleuropäische Sommerzeit)","1","6","0","1729713158175"
"779","j","SpeechGestureMatch","../RequiredFiles/videos/NeinKopfNein_f.mp4","Ist der Ball in der blauen Box?","Blue","Green","J","negation","match","speech","no","HeadShake","female","speech-gesture","1500","1000","edge-chromium","60.93","Windows 10","22","female","right","Wed Oct 23 2024 20:53:40 GMT+0200 (Mitteleuropäische Sommerzeit)","1","7","0","1729713158175"
"933","f","SpeechGestureMatch","../RequiredFiles/videos/JaKopfJa_m.mp4","Ist der Ball in der grünen Box?","Green","Blue","F","affirmation","match","speech","yes","HeadNod","male","speech-gesture","1500","1000","edge-chromium","60.93","Windows 10","22","female","right","Wed Oct 23 2024 20:53:47 GMT+0200 (Mitteleuropäische Sommerzeit)","1","8","0","1729713158175"
"1680","f","SpeechGestureMatch","../RequiredFiles/videos/JaKopfNein_f.mp4","Ist der Ball in der grünen Box?","Green","Blue","F","affirmation","mismatch","speech","yes","HeadShake","female","speech-gesture","1500","1000","edge-chromium","60.93","Windows 10","22","female","right","Wed Oct 23 2024 20:53:54 GMT+0200 (Mitteleuropäische Sommerzeit)","1","9","0","1729713158175"
"982","f","SpeechGestureMatch","../RequiredFiles/videos/JaKopfJa_m_no_gesture.mp4","Ist der Ball in der grünen Box?","Green","Blue","F","affirmation","na","speech","yes","na","male","speech-gesture","1500","1000","edge-chromium","60.93","Windows 10","22","female","right","Wed Oct 23 2024 20:54:01 GMT+0200 (Mitteleuropäische Sommerzeit)","1","10","0","1729713158175"
"1185","j","SpeechGestureMatch","../RequiredFiles/videos/NeinKopfNein_m_no_gesture.mp4","Ist der Ball in der blauen Box?","Green","Blue","F","negation","na","speech","no","na","male","speech-gesture","1500","1000","edge-chromium","60.93","Windows 10","22","female","right","Wed Oct 23 2024 20:54:07 GMT+0200 (Mitteleuropäische Sommerzeit)","1","11","1","1729713158175"
"887","j","SpeechGestureMatch","../RequiredFiles/videos/JaKopfJa_f_no_gesture.mp4","Ist der Ball in der grünen Box?","Blue","Green","J","affirmation","na","speech","yes","na","female","speech-gesture","1500","1000","edge-chromium","60.93","Windows 10","22","female","right","Wed Oct 23 2024 20:54:14 GMT+0200 (Mitteleuropäische Sommerzeit)","1","12","0","1729713158175"
"900","f","SpeechGestureMatch","../RequiredFiles/videos/JaKopfJa_m_no_gesture.mp4","Ist der Ball in der blauen Box?","Blue","Green","F","affirmation","na","speech","yes","na","male","speech-gesture","1500","1000","edge-chromium","60.93","Windows 10","22","female","right","Wed Oct 23 2024 20:54:20 GMT+0200 (Mitteleuropäische Sommerzeit)","1","13","0","1729713158175"
"860","f","SpeechGestureMatch","../RequiredFiles/videos/JaKopfJa_m.mp4","Ist der Ball in der blauen Box?","Blue","Green","F","affirmation","match","speech","yes","HeadNod","male","speech-gesture","1500","1000","edge-chromium","60.93","Windows 10","22","female","right","Wed Oct 23 2024 20:54:27 GMT+0200 (Mitteleuropäische Sommerzeit)","1","14","0","1729713158175"
"1724","j","SpeechGestureMatch","../RequiredFiles/videos/JaKopfNein_m.mp4","Ist der Ball in der blauen Box?","Green","Blue","J","affirmation","mismatch","speech","yes","HeadShake","male","speech-gesture","1500","1000","edge-chromium","60.93","Windows 10","22","female","right","Wed Oct 23 2024 20:54:34 GMT+0200 (Mitteleuropäische Sommerzeit)","1","15","0","1729713158175"
"1035","j","SpeechGestureMatch","../RequiredFiles/videos/NeinKopfNein_m.mp4","Ist der Ball in der blauen Box?","Blue","Green","J","negation","match","speech","no","HeadShake","male","speech-gesture","1500","1000","edge-chromium","60.93","Windows 10","22","female","right","Wed Oct 23 2024 20:54:41 GMT+0200 (Mitteleuropäische Sommerzeit)","1","16","0","1729713158175"
"1023","j","SpeechGestureMatch","../RequiredFiles/videos/JaKopfNein_f.mp4","Ist der Ball in der grünen Box?","Blue","Green","J","affirmation","mismatch","speech","yes","HeadShake","female","speech-gesture","1500","1000","edge-chromium","60.93","Windows 10","22","female","right","Wed Oct 23 2024 20:54:47 GMT+0200 (Mitteleuropäische Sommerzeit)","1","17","0","1729713158175"
"1352","j","SpeechGestureMatch","../RequiredFiles/videos/NeinKopfJa_f.mp4","Ist der Ball in der grünen Box?","Green","Blue","J","negation","mismatch","speech","no","HeadNod","female","speech-gesture","1500","1000","edge-chromium","60.93","Windows 10","22","female","right","Wed Oct 23 2024 20:54:54 GMT+0200 (Mitteleuropäische Sommerzeit)","1","18","0","1729713158175"
"1617","f","SpeechGestureMatch","../RequiredFiles/videos/NeinKopfJa_m_no_gesture.mp4","Ist der Ball in der grünen Box?","Blue","Green","F","negation","na","speech","no","na","male","speech-gesture","1500","1000","edge-chromium","60.93","Windows 10","22","female","right","Wed Oct 23 2024 20:55:01 GMT+0200 (Mitteleuropäische Sommerzeit)","1","19","0","1729713158175"
"1044","f","SpeechGestureMatch","../RequiredFiles/videos/JaKopfNein_m.mp4","Ist der Ball in der blauen Box?","Blue","Green","F","affirmation","mismatch","speech","yes","HeadShake","male","speech-gesture","1500","1000","edge-chromium","60.93","Windows 10","22","female","right","Wed Oct 23 2024 20:55:08 GMT+0200 (Mitteleuropäische Sommerzeit)","1","20","0","1729713158175"
"1220","j","SpeechGestureMatch","../RequiredFiles/videos/NeinKopfNein_m.mp4","Ist der Ball in der grünen Box?","Green","Blue","J","negation","match","speech","no","HeadShake","male","speech-gesture","1500","1000","edge-chromium","60.93","Windows 10","22","female","right","Wed Oct 23 2024 20:55:15 GMT+0200 (Mitteleuropäische Sommerzeit)","1","21","0","1729713158175"
"1110","f","SpeechGestureMatch","../RequiredFiles/videos/NeinKopfNein_f_no_gesture.mp4","Ist der Ball in der grünen Box?","Blue","Green","F","negation","na","speech","no","na","female","speech-gesture","1500","1000","edge-chromium","60.93","Windows 10","22","female","right","Wed Oct 23 2024 20:55:21 GMT+0200 (Mitteleuropäische Sommerzeit)","1","22","0","1729713158175"
"1078","f","SpeechGestureMatch","../RequiredFiles/videos/NeinKopfJa_m_no_gesture.mp4","Ist der Ball in der blauen Box?","Green","Blue","F","negation","na","speech","no","na","male","speech-gesture","1500","1000","edge-chromium","60.93","Windows 10","22","female","right","Wed Oct 23 2024 20:55:28 GMT+0200 (Mitteleuropäische Sommerzeit)","1","23","0","1729713158175"
"1550","j","SpeechGestureMatch","../RequiredFiles/videos/JaKopfNein_f.mp4","Ist der Ball in der blauen Box?","Green","Blue","J","affirmation","mismatch","speech","yes","HeadShake","female","speech-gesture","1500","1000","edge-chromium","60.93","Windows 10","22","female","right","Wed Oct 23 2024 20:55:35 GMT+0200 (Mitteleuropäische Sommerzeit)","1","24","0","1729713158175"
"1061","f","SpeechGestureMatch","../RequiredFiles/videos/NeinKopfNein_f_no_gesture.mp4","Ist der Ball in der blauen Box?","Green","Blue","F","negation","na","speech","no","na","female","speech-gesture","1500","1000","edge-chromium","60.93","Windows 10","22","female","right","Wed Oct 23 2024 20:55:42 GMT+0200 (Mitteleuropäische Sommerzeit)","1","25","0","1729713158175"
"942","j","SpeechGestureMatch","../RequiredFiles/videos/NeinKopfJa_m.mp4","Ist der Ball in der blauen Box?","Blue","Green","J","negation","mismatch","speech","no","HeadNod","male","speech-gesture","1500","1000","edge-chromium","60.93","Windows 10","22","female","right","Wed Oct 23 2024 20:55:48 GMT+0200 (Mitteleuropäische Sommerzeit)","1","26","0","1729713158175"
"920","f","SpeechGestureMatch","../RequiredFiles/videos/JaKopfNein_f.mp4","Ist der Ball in der grünen Box?","Green","Blue","F","affirmation","mismatch","speech","yes","HeadShake","female","speech-gesture","1500","1000","edge-chromium","60.93","Windows 10","22","female","right","Wed Oct 23 2024 20:55:55 GMT+0200 (Mitteleuropäische Sommerzeit)","1","27","0","1729713158175"
"869","f","SpeechGestureMatch","../RequiredFiles/videos/NeinKopfNein_m.mp4","Ist der Ball in der grünen Box?","Blue","Green","F","negation","match","speech","no","HeadShake","male","speech-gesture","1500","1000","edge-chromium","60.93","Windows 10","22","female","right","Wed Oct 23 2024 20:56:01 GMT+0200 (Mitteleuropäische Sommerzeit)","1","28","0","1729713158175"
"1098","j","SpeechGestureMatch","../RequiredFiles/videos/JaKopfNein_f_no_gesture.mp4","Ist der Ball in der blauen Box?","Green","Blue","J","affirmation","na","speech","yes","na","female","speech-gesture","1500","1000","edge-chromium","60.93","Windows 10","22","female","right","Wed Oct 23 2024 20:56:08 GMT+0200 (Mitteleuropäische Sommerzeit)","1","29","0","1729713158175"
"759","j","SpeechGestureMatch","../RequiredFiles/videos/JaKopfJa_f.mp4","Ist der Ball in der blauen Box?","Green","Blue","J","affirmation","match","speech","yes","HeadNod","female","speech-gesture","1500","1000","edge-chromium","60.93","Windows 10","22","female","right","Wed Oct 23 2024 20:56:14 GMT+0200 (Mitteleuropäische Sommerzeit)","1","30","0","1729713158175"
"751","j","SpeechGestureMatch","../RequiredFiles/videos/JaKopfJa_f.mp4","Ist der Ball in der grünen Box?","Blue","Green","J","affirmation","match","speech","yes","HeadNod","female","speech-gesture","1500","1000","edge-chromium","60.93","Windows 10","22","female","right","Wed Oct 23 2024 20:56:20 GMT+0200 (Mitteleuropäische Sommerzeit)","1","31","0","1729713158175"
"885","f","SpeechGestureMatch","../RequiredFiles/videos/JaKopfJa_f.mp4","Ist der Ball in der blauen Box?","Blue","Green","F","affirmation","match","speech","yes","HeadNod","female","speech-gesture","1500","1000","edge-chromium","60.93","Windows 10","22","female","right","Wed Oct 23 2024 20:56:27 GMT+0200 (Mitteleuropäische Sommerzeit)","1","32","0","1729713158175"
"694","f","SpeechGestureMatch","../RequiredFiles/videos/NeinKopfNein_m.mp4","Ist der Ball in der grünen Box?","Blue","Green","F","negation","match","speech","no","HeadShake","male","speech-gesture","1500","1000","edge-chromium","60.93","Windows 10","22","female","right","Wed Oct 23 2024 20:56:33 GMT+0200 (Mitteleuropäische Sommerzeit)","1","33","0","1729713158175"
"1049","j","SpeechGestureMatch","../RequiredFiles/videos/JaKopfNein_m_no_gesture.mp4","Ist der Ball in der grünen Box?","Blue","Green","J","affirmation","na","speech","yes","na","male","speech-gesture","1500","1000","edge-chromium","60.93","Windows 10","22","female","right","Wed Oct 23 2024 20:56:40 GMT+0200 (Mitteleuropäische Sommerzeit)","1","34","0","1729713158175"
"766","f","SpeechGestureMatch","../RequiredFiles/videos/NeinKopfNein_m.mp4","Ist der Ball in der blauen Box?","Blue","Green","J","negation","match","speech","no","HeadShake","male","speech-gesture","1500","1000","edge-chromium","60.93","Windows 10","22","female","right","Wed Oct 23 2024 20:56:46 GMT+0200 (Mitteleuropäische Sommerzeit)","1","35","1","1729713158175"
"1411","f","SpeechGestureMatch","../RequiredFiles/videos/JaKopfJa_m.mp4","Ist der Ball in der blauen Box?","Blue","Green","F","affirmation","match","speech","yes","HeadNod","male","speech-gesture","1500","1000","edge-chromium","60.93","Windows 10","22","female","right","Wed Oct 23 2024 20:56:53 GMT+0200 (Mitteleuropäische Sommerzeit)","1","36","0","1729713158175"
"715","j","SpeechGestureMatch","../RequiredFiles/videos/JaKopfNein_f.mp4","Ist der Ball in der blauen Box?","Blue","Green","F","affirmation","mismatch","speech","yes","HeadShake","female","speech-gesture","1500","1000","edge-chromium","60.93","Windows 10","22","female","right","Wed Oct 23 2024 20:56:59 GMT+0200 (Mitteleuropäische Sommerzeit)","1","37","1","1729713158175"
"1394","j","SpeechGestureMatch","../RequiredFiles/videos/NeinKopfJa_f.mp4","Ist der Ball in der blauen Box?","Blue","Green","J","negation","mismatch","speech","no","HeadNod","female","speech-gesture","1500","1000","edge-chromium","60.93","Windows 10","22","female","right","Wed Oct 23 2024 20:57:06 GMT+0200 (Mitteleuropäische Sommerzeit)","1","38","0","1729713158175"
"912","j","SpeechGestureMatch","../RequiredFiles/videos/NeinKopfJa_m_no_gesture.mp4","Ist der Ball in der grünen Box?","Green","Blue","J","negation","na","speech","no","na","male","speech-gesture","1500","1000","edge-chromium","60.93","Windows 10","22","female","right","Wed Oct 23 2024 20:57:12 GMT+0200 (Mitteleuropäische Sommerzeit)","1","39","0","1729713158175"
"1254","f","SpeechGestureMatch","../RequiredFiles/videos/JaKopfNein_f.mp4","Ist der Ball in der blauen Box?","Blue","Green","F","affirmation","mismatch","speech","yes","HeadShake","female","speech-gesture","1500","1000","edge-chromium","60.93","Windows 10","22","female","right","Wed Oct 23 2024 20:57:19 GMT+0200 (Mitteleuropäische Sommerzeit)","1","40","0","1729713158175"
"891","f","SpeechGestureMatch","../RequiredFiles/videos/JaKopfJa_f.mp4","Ist der Ball in der grünen Box?","Green","Blue","F","affirmation","match","speech","yes","HeadNod","female","speech-gesture","1500","1000","edge-chromium","60.93","Windows 10","22","female","right","Wed Oct 23 2024 20:57:26 GMT+0200 (Mitteleuropäische Sommerzeit)","1","41","0","1729713158175"
"953","f","SpeechGestureMatch","../RequiredFiles/videos/JaKopfNein_m.mp4","Ist der Ball in der grünen Box?","Green","Blue","F","affirmation","mismatch","speech","yes","HeadShake","male","speech-gesture","1500","1000","edge-chromium","60.93","Windows 10","22","female","right","Wed Oct 23 2024 20:57:32 GMT+0200 (Mitteleuropäische Sommerzeit)","1","42","0","1729713158175"
"963","j","SpeechGestureMatch","../RequiredFiles/videos/JaKopfJa_m.mp4","Ist der Ball in der grünen Box?","Blue","Green","J","affirmation","match","speech","yes","HeadNod","male","speech-gesture","1500","1000","edge-chromium","60.93","Windows 10","22","female","right","Wed Oct 23 2024 20:57:39 GMT+0200 (Mitteleuropäische Sommerzeit)","1","43","0","1729713158175"
"837","j","SpeechGestureMatch","../RequiredFiles/videos/JaKopfJa_m_no_gesture.mp4","Ist der Ball in der blauen Box?","Green","Blue","J","affirmation","na","speech","yes","na","male","speech-gesture","1500","1000","edge-chromium","60.93","Windows 10","22","female","right","Wed Oct 23 2024 20:57:45 GMT+0200 (Mitteleuropäische Sommerzeit)","1","44","0","1729713158175"
"886","f","SpeechGestureMatch","../RequiredFiles/videos/NeinKopfJa_m.mp4","Ist der Ball in der blauen Box?","Blue","Green","J","negation","mismatch","speech","no","HeadNod","male","speech-gesture","1500","1000","edge-chromium","60.93","Windows 10","22","female","right","Wed Oct 23 2024 20:57:52 GMT+0200 (Mitteleuropäische Sommerzeit)","1","45","1","1729713158175"
"1049","f","SpeechGestureMatch","../RequiredFiles/videos/NeinKopfJa_f_no_gesture.mp4","Ist der Ball in der blauen Box?","Green","Blue","F","negation","na","speech","no","na","female","speech-gesture","1500","1000","edge-chromium","60.93","Windows 10","22","female","right","Wed Oct 23 2024 20:57:58 GMT+0200 (Mitteleuropäische Sommerzeit)","1","46","0","1729713158175"
"937","j","SpeechGestureMatch","../RequiredFiles/videos/NeinKopfJa_m.mp4","Ist der Ball in der grünen Box?","Green","Blue","J","negation","mismatch","speech","no","HeadNod","male","speech-gesture","1500","1000","edge-chromium","60.93","Windows 10","22","female","right","Wed Oct 23 2024 20:58:05 GMT+0200 (Mitteleuropäische Sommerzeit)","1","47","0","1729713158175"
"750","j","SpeechGestureMatch","../RequiredFiles/videos/NeinKopfNein_m_no_gesture.mp4","Ist der Ball in der grünen Box?","Green","Blue","J","negation","na","speech","no","na","male","speech-gesture","1500","1000","edge-chromium","60.93","Windows 10","22","female","right","Wed Oct 23 2024 20:58:11 GMT+0200 (Mitteleuropäische Sommerzeit)","1","48","0","1729713158175"
"842","f","SpeechGestureMatch","../RequiredFiles/videos/NeinKopfNein_m.mp4","Ist der Ball in der blauen Box?","Green","Blue","F","negation","match","speech","no","HeadShake","male","speech-gesture","1500","1000","edge-chromium","60.93","Windows 10","22","female","right","Wed Oct 23 2024 20:58:17 GMT+0200 (Mitteleuropäische Sommerzeit)","1","49","0","1729713158175"
"1070","f","SpeechGestureMatch","../RequiredFiles/videos/JaKopfNein_m.mp4","Ist der Ball in der grünen Box?","Green","Blue","F","affirmation","mismatch","speech","yes","HeadShake","male","speech-gesture","1500","1000","edge-chromium","60.93","Windows 10","22","female","right","Wed Oct 23 2024 20:58:24 GMT+0200 (Mitteleuropäische Sommerzeit)","1","50","0","1729713158175"
"916","f","SpeechGestureMatch","../RequiredFiles/videos/JaKopfNein_m.mp4","Ist der Ball in der blauen Box?","Blue","Green","F","affirmation","mismatch","speech","yes","HeadShake","male","speech-gesture","1500","1000","edge-chromium","60.93","Windows 10","22","female","right","Wed Oct 23 2024 20:58:30 GMT+0200 (Mitteleuropäische Sommerzeit)","1","51","0","1729713158175"
"794","f","SpeechGestureMatch","../RequiredFiles/videos/JaKopfJa_f.mp4","Ist der Ball in der grünen Box?","Green","Blue","F","affirmation","match","speech","yes","HeadNod","female","speech-gesture","1500","1000","edge-chromium","60.93","Windows 10","22","female","right","Wed Oct 23 2024 20:58:37 GMT+0200 (Mitteleuropäische Sommerzeit)","1","52","0","1729713158175"
"1057","j","SpeechGestureMatch","../RequiredFiles/videos/NeinKopfJa_m.mp4","Ist der Ball in der grünen Box?","Green","Blue","J","negation","mismatch","speech","no","HeadNod","male","speech-gesture","1500","1000","edge-chromium","60.93","Windows 10","22","female","right","Wed Oct 23 2024 20:58:43 GMT+0200 (Mitteleuropäische Sommerzeit)","1","53","0","1729713158175"
"1067","f","SpeechGestureMatch","../RequiredFiles/videos/NeinKopfJa_f.mp4","Ist der Ball in der blauen Box?","Green","Blue","F","negation","mismatch","speech","no","HeadNod","female","speech-gesture","1500","1000","edge-chromium","60.93","Windows 10","22","female","right","Wed Oct 23 2024 20:58:50 GMT+0200 (Mitteleuropäische Sommerzeit)","1","54","0","1729713158175"
"732","f","SpeechGestureMatch","../RequiredFiles/videos/NeinKopfNein_m.mp4","Ist der Ball in der blauen Box?","Green","Blue","F","negation","match","speech","no","HeadShake","male","speech-gesture","1500","1000","edge-chromium","60.93","Windows 10","22","female","right","Wed Oct 23 2024 20:58:56 GMT+0200 (Mitteleuropäische Sommerzeit)","1","55","0","1729713158175"
"1177","j","SpeechGestureMatch","../RequiredFiles/videos/JaKopfNein_m.mp4","Ist der Ball in der blauen Box?","Green","Blue","J","affirmation","mismatch","speech","yes","HeadShake","male","speech-gesture","1500","1000","edge-chromium","60.93","Windows 10","22","female","right","Wed Oct 23 2024 20:59:03 GMT+0200 (Mitteleuropäische Sommerzeit)","1","56","0","1729713158175"
"1050","f","SpeechGestureMatch","../RequiredFiles/videos/JaKopfNein_f_no_gesture.mp4","Ist der Ball in der blauen Box?","Blue","Green","F","affirmation","na","speech","yes","na","female","speech-gesture","1500","1000","edge-chromium","60.93","Windows 10","22","female","right","Wed Oct 23 2024 20:59:10 GMT+0200 (Mitteleuropäische Sommerzeit)","1","57","0","1729713158175"
"1129","f","SpeechGestureMatch","../RequiredFiles/videos/JaKopfNein_f_no_gesture.mp4","Ist der Ball in der grünen Box?","Blue","Green","J","affirmation","na","speech","yes","na","female","speech-gesture","1500","1000","edge-chromium","60.93","Windows 10","22","female","right","Wed Oct 23 2024 20:59:16 GMT+0200 (Mitteleuropäische Sommerzeit)","1","58","1","1729713158175"
"855","f","SpeechGestureMatch","../RequiredFiles/videos/NeinKopfJa_f_no_gesture.mp4","Ist der Ball in der grünen Box?","Blue","Green","F","negation","na","speech","no","na","female","speech-gesture","1500","1000","edge-chromium","60.93","Windows 10","22","female","right","Wed Oct 23 2024 20:59:23 GMT+0200 (Mitteleuropäische Sommerzeit)","1","59","0","1729713158175"
"1134","f","SpeechGestureMatch","../RequiredFiles/videos/NeinKopfNein_f.mp4","Ist der Ball in der blauen Box?","Green","Blue","F","negation","match","speech","no","HeadShake","female","speech-gesture","1500","1000","edge-chromium","60.93","Windows 10","22","female","right","Wed Oct 23 2024 20:59:29 GMT+0200 (Mitteleuropäische Sommerzeit)","1","60","0","1729713158175"
"1167","j","SpeechGestureMatch","../RequiredFiles/videos/JaKopfJa_m.mp4","Ist der Ball in der blauen Box?","Green","Blue","J","affirmation","match","speech","yes","HeadNod","male","speech-gesture","1500","1000","edge-chromium","60.93","Windows 10","22","female","right","Wed Oct 23 2024 20:59:36 GMT+0200 (Mitteleuropäische Sommerzeit)","1","61","0","1729713158175"
"919","j","SpeechGestureMatch","../RequiredFiles/videos/JaKopfJa_f.mp4","Ist der Ball in der blauen Box?","Green","Blue","J","affirmation","match","speech","yes","HeadNod","female","speech-gesture","1500","1000","edge-chromium","60.93","Windows 10","22","female","right","Wed Oct 23 2024 20:59:43 GMT+0200 (Mitteleuropäische Sommerzeit)","1","62","0","1729713158175"
"814","f","SpeechGestureMatch","../RequiredFiles/videos/JaKopfNein_m_no_gesture.mp4","Ist der Ball in der blauen Box?","Blue","Green","F","affirmation","na","speech","yes","na","male","speech-gesture","1500","1000","edge-chromium","60.93","Windows 10","22","female","right","Wed Oct 23 2024 20:59:49 GMT+0200 (Mitteleuropäische Sommerzeit)","1","63","0","1729713158175"
"917","f","SpeechGestureMatch","../RequiredFiles/videos/NeinKopfJa_m.mp4","Ist der Ball in der blauen Box?","Green","Blue","F","negation","mismatch","speech","no","HeadNod","male","speech-gesture","1500","1000","edge-chromium","60.93","Windows 10","22","female","right","Wed Oct 23 2024 20:59:55 GMT+0200 (Mitteleuropäische Sommerzeit)","1","64","0","1729713158175"
"807","f","SpeechGestureMatch","../RequiredFiles/videos/JaKopfJa_f.mp4","Ist der Ball in der blauen Box?","Blue","Green","F","affirmation","match","speech","yes","HeadNod","female","speech-gesture","1500","1000","edge-chromium","60.93","Windows 10","22","female","right","Wed Oct 23 2024 21:00:02 GMT+0200 (Mitteleuropäische Sommerzeit)","1","65","0","1729713158175"
"1232","f","SpeechGestureMatch","../RequiredFiles/videos/NeinKopfJa_m.mp4","Ist der Ball in der grünen Box?","Blue","Green","F","negation","mismatch","speech","no","HeadNod","male","speech-gesture","1500","1000","edge-chromium","60.93","Windows 10","22","female","right","Wed Oct 23 2024 21:00:08 GMT+0200 (Mitteleuropäische Sommerzeit)","1","66","0","1729713158175"
"777","f","SpeechGestureMatch","../RequiredFiles/videos/NeinKopfNein_m_no_gesture.mp4","Ist der Ball in der grünen Box?","Blue","Green","F","negation","na","speech","no","na","male","speech-gesture","1500","1000","edge-chromium","60.93","Windows 10","22","female","right","Wed Oct 23 2024 21:00:15 GMT+0200 (Mitteleuropäische Sommerzeit)","1","67","0","1729713158175"
"980","j","SpeechGestureMatch","../RequiredFiles/videos/JaKopfNein_m_no_gesture.mp4","Ist der Ball in der blauen Box?","Green","Blue","J","affirmation","na","speech","yes","na","male","speech-gesture","1500","1000","edge-chromium","60.93","Windows 10","22","female","right","Wed Oct 23 2024 21:00:21 GMT+0200 (Mitteleuropäische Sommerzeit)","1","68","0","1729713158175"
"1297","f","SpeechGestureMatch","../RequiredFiles/videos/NeinKopfNein_f.mp4","Ist der Ball in der grünen Box?","Green","Blue","J","negation","match","speech","no","HeadShake","female","speech-gesture","1500","1000","edge-chromium","60.93","Windows 10","22","female","right","Wed Oct 23 2024 21:00:28 GMT+0200 (Mitteleuropäische Sommerzeit)","1","69","1","1729713158175"
"954","j","SpeechGestureMatch","../RequiredFiles/videos/JaKopfJa_m.mp4","Ist der Ball in der grünen Box?","Blue","Green","J","affirmation","match","speech","yes","HeadNod","male","speech-gesture","1500","1000","edge-chromium","60.93","Windows 10","22","female","right","Wed Oct 23 2024 21:00:35 GMT+0200 (Mitteleuropäische Sommerzeit)","1","70","0","1729713158175"
"1009","f","SpeechGestureMatch","../RequiredFiles/videos/NeinKopfNein_f.mp4","Ist der Ball in der blauen Box?","Blue","Green","J","negation","match","speech","no","HeadShake","female","speech-gesture","1500","1000","edge-chromium","60.93","Windows 10","22","female","right","Wed Oct 23 2024 21:00:41 GMT+0200 (Mitteleuropäische Sommerzeit)","1","71","1","1729713158175"
"1037","j","SpeechGestureMatch","../RequiredFiles/videos/NeinKopfNein_m_no_gesture.mp4","Ist der Ball in der blauen Box?","Blue","Green","J","negation","na","speech","no","na","male","speech-gesture","1500","1000","edge-chromium","60.93","Windows 10","22","female","right","Wed Oct 23 2024 21:00:48 GMT+0200 (Mitteleuropäische Sommerzeit)","1","72","0","1729713158175"
"863","f","SpeechGestureMatch","../RequiredFiles/videos/NeinKopfNein_f.mp4","Ist der Ball in der grünen Box?","Blue","Green","F","negation","match","speech","no","HeadShake","female","speech-gesture","1500","1000","edge-chromium","60.93","Windows 10","22","female","right","Wed Oct 23 2024 21:00:54 GMT+0200 (Mitteleuropäische Sommerzeit)","1","73","0","1729713158175"
"1017","f","SpeechGestureMatch","../RequiredFiles/videos/JaKopfJa_f_no_gesture.mp4","Ist der Ball in der blauen Box?","Blue","Green","F","affirmation","na","speech","yes","na","female","speech-gesture","1500","1000","edge-chromium","60.93","Windows 10","22","female","right","Wed Oct 23 2024 21:01:01 GMT+0200 (Mitteleuropäische Sommerzeit)","1","74","0","1729713158175"
"876","j","SpeechGestureMatch","../RequiredFiles/videos/NeinKopfNein_m.mp4","Ist der Ball in der grünen Box?","Green","Blue","J","negation","match","speech","no","HeadShake","male","speech-gesture","1500","1000","edge-chromium","60.93","Windows 10","22","female","right","Wed Oct 23 2024 21:01:07 GMT+0200 (Mitteleuropäische Sommerzeit)","1","75","0","1729713158175"
"851","j","SpeechGestureMatch","../RequiredFiles/videos/JaKopfJa_f.mp4","Ist der Ball in der grünen Box?","Blue","Green","J","affirmation","match","speech","yes","HeadNod","female","speech-gesture","1500","1000","edge-chromium","60.93","Windows 10","22","female","right","Wed Oct 23 2024 21:01:14 GMT+0200 (Mitteleuropäische Sommerzeit)","1","76","0","1729713158175"
"961","f","SpeechGestureMatch","../RequiredFiles/videos/NeinKopfJa_f.mp4","Ist der Ball in der grünen Box?","Blue","Green","F","negation","mismatch","speech","no","HeadNod","female","speech-gesture","1500","1000","edge-chromium","60.93","Windows 10","22","female","right","Wed Oct 23 2024 21:01:20 GMT+0200 (Mitteleuropäische Sommerzeit)","1","77","0","1729713158175"
"770","f","SpeechGestureMatch","../RequiredFiles/videos/JaKopfJa_m.mp4","Ist der Ball in der grünen Box?","Green","Blue","F","affirmation","match","speech","yes","HeadNod","male","speech-gesture","1500","1000","edge-chromium","60.93","Windows 10","22","female","right","Wed Oct 23 2024 21:01:26 GMT+0200 (Mitteleuropäische Sommerzeit)","1","78","0","1729713158175"
"1106","j","SpeechGestureMatch","../RequiredFiles/videos/JaKopfNein_m.mp4","Ist der Ball in der grünen Box?","Blue","Green","J","affirmation","mismatch","speech","yes","HeadShake","male","speech-gesture","1500","1000","edge-chromium","60.93","Windows 10","22","female","right","Wed Oct 23 2024 21:01:33 GMT+0200 (Mitteleuropäische Sommerzeit)","1","79","0","1729713158175"
"1271","j","SpeechGestureMatch","../RequiredFiles/videos/NeinKopfJa_f.mp4","Ist der Ball in der grünen Box?","Green","Blue","J","negation","mismatch","speech","no","HeadNod","female","speech-gesture","1500","1000","edge-chromium","60.93","Windows 10","22","female","right","Wed Oct 23 2024 21:01:40 GMT+0200 (Mitteleuropäische Sommerzeit)","1","80","0","1729713158175"
"856","j","SpeechGestureMatch","../RequiredFiles/videos/NeinKopfJa_m_no_gesture.mp4","Ist der Ball in der blauen Box?","Blue","Green","J","negation","na","speech","no","na","male","speech-gesture","1500","1000","edge-chromium","60.93","Windows 10","22","female","right","Wed Oct 23 2024 21:01:46 GMT+0200 (Mitteleuropäische Sommerzeit)","1","81","0","1729713158175"
"932","j","SpeechGestureMatch","../RequiredFiles/videos/NeinKopfJa_f.mp4","Ist der Ball in der blauen Box?","Blue","Green","J","negation","mismatch","speech","no","HeadNod","female","speech-gesture","1500","1000","edge-chromium","60.93","Windows 10","22","female","right","Wed Oct 23 2024 21:01:53 GMT+0200 (Mitteleuropäische Sommerzeit)","1","82","0","1729713158175"
"1291","j","SpeechGestureMatch","../RequiredFiles/videos/JaKopfNein_f.mp4","Ist der Ball in der blauen Box?","Green","Blue","J","affirmation","mismatch","speech","yes","HeadShake","female","speech-gesture","1500","1000","edge-chromium","60.93","Windows 10","22","female","right","Wed Oct 23 2024 21:02:00 GMT+0200 (Mitteleuropäische Sommerzeit)","1","83","0","1729713158175"
"694","j","SpeechGestureMatch","../RequiredFiles/videos/JaKopfNein_f.mp4","Ist der Ball in der grünen Box?","Blue","Green","J","affirmation","mismatch","speech","yes","HeadShake","female","speech-gesture","1500","1000","edge-chromium","60.93","Windows 10","22","female","right","Wed Oct 23 2024 21:02:06 GMT+0200 (Mitteleuropäische Sommerzeit)","1","84","0","1729713158175"
"911","j","SpeechGestureMatch","../RequiredFiles/videos/JaKopfJa_m_no_gesture.mp4","Ist der Ball in der grünen Box?","Blue","Green","J","affirmation","na","speech","yes","na","male","speech-gesture","1500","1000","edge-chromium","60.93","Windows 10","22","female","right","Wed Oct 23 2024 21:02:12 GMT+0200 (Mitteleuropäische Sommerzeit)","1","85","0","1729713158175"
"760","f","SpeechGestureMatch","../RequiredFiles/videos/NeinKopfJa_f_no_gesture.mp4","Ist der Ball in der blauen Box?","Blue","Green","J","negation","na","speech","no","na","female","speech-gesture","1500","1000","edge-chromium","60.93","Windows 10","22","female","right","Wed Oct 23 2024 21:02:19 GMT+0200 (Mitteleuropäische Sommerzeit)","1","86","1","1729713158175"
"935","f","SpeechGestureMatch","../RequiredFiles/videos/JaKopfJa_f_no_gesture.mp4","Ist der Ball in der grünen Box?","Green","Blue","F","affirmation","na","speech","yes","na","female","speech-gesture","1500","1000","edge-chromium","60.93","Windows 10","22","female","right","Wed Oct 23 2024 21:02:25 GMT+0200 (Mitteleuropäische Sommerzeit)","1","87","0","1729713158175"
"952","j","SpeechGestureMatch","../RequiredFiles/videos/NeinKopfNein_f_no_gesture.mp4","Ist der Ball in der blauen Box?","Blue","Green","J","negation","na","speech","no","na","female","speech-gesture","1500","1000","edge-chromium","60.93","Windows 10","22","female","right","Wed Oct 23 2024 21:02:32 GMT+0200 (Mitteleuropäische Sommerzeit)","1","88","0","1729713158175"
"801","f","SpeechGestureMatch","../RequiredFiles/videos/NeinKopfNein_f.mp4","Ist der Ball in der blauen Box?","Green","Blue","F","negation","match","speech","no","HeadShake","female","speech-gesture","1500","1000","edge-chromium","60.93","Windows 10","22","female","right","Wed Oct 23 2024 21:02:38 GMT+0200 (Mitteleuropäische Sommerzeit)","1","89","0","1729713158175"
"1111","j","SpeechGestureMatch","../RequiredFiles/videos/NeinKopfJa_m.mp4","Ist der Ball in der blauen Box?","Green","Blue","F","negation","mismatch","speech","no","HeadNod","male","speech-gesture","1500","1000","edge-chromium","60.93","Windows 10","22","female","right","Wed Oct 23 2024 21:02:45 GMT+0200 (Mitteleuropäische Sommerzeit)","1","90","1","1729713158175"
"980","j","SpeechGestureMatch","../RequiredFiles/videos/NeinKopfNein_f.mp4","Ist der Ball in der grünen Box?","Green","Blue","J","negation","match","speech","no","HeadShake","female","speech-gesture","1500","1000","edge-chromium","60.93","Windows 10","22","female","right","Wed Oct 23 2024 21:02:51 GMT+0200 (Mitteleuropäische Sommerzeit)","1","91","0","1729713158175"
"927","j","SpeechGestureMatch","../RequiredFiles/videos/JaKopfJa_f_no_gesture.mp4","Ist der Ball in der blauen Box?","Green","Blue","J","affirmation","na","speech","yes","na","female","speech-gesture","1500","1000","edge-chromium","60.93","Windows 10","22","female","right","Wed Oct 23 2024 21:02:58 GMT+0200 (Mitteleuropäische Sommerzeit)","1","92","0","1729713158175"
"925","f","SpeechGestureMatch","../RequiredFiles/videos/NeinKopfJa_f.mp4","Ist der Ball in der blauen Box?","Green","Blue","F","negation","mismatch","speech","no","HeadNod","female","speech-gesture","1500","1000","edge-chromium","60.93","Windows 10","22","female","right","Wed Oct 23 2024 21:03:04 GMT+0200 (Mitteleuropäische Sommerzeit)","1","93","0","1729713158175"
"1019","j","SpeechGestureMatch","../RequiredFiles/videos/NeinKopfJa_f_no_gesture.mp4","Ist der Ball in der grünen Box?","Green","Blue","J","negation","na","speech","no","na","female","speech-gesture","1500","1000","edge-chromium","60.93","Windows 10","22","female","right","Wed Oct 23 2024 21:03:11 GMT+0200 (Mitteleuropäische Sommerzeit)","1","94","0","1729713158175"
"818","f","SpeechGestureMatch","../RequiredFiles/videos/JaKopfNein_f_no_gesture.mp4","Ist der Ball in der grünen Box?","Green","Blue","F","affirmation","na","speech","yes","na","female","speech-gesture","1500","1000","edge-chromium","60.93","Windows 10","22","female","right","Wed Oct 23 2024 21:03:17 GMT+0200 (Mitteleuropäische Sommerzeit)","1","95","0","1729713158175"
"886","f","SpeechGestureMatch","../RequiredFiles/videos/NeinKopfJa_f.mp4","Ist der Ball in der grünen Box?","Blue","Green","F","negation","mismatch","speech","no","HeadNod","female","speech-gesture","1500","1000","edge-chromium","60.93","Windows 10","22","female","right","Wed Oct 23 2024 21:03:24 GMT+0200 (Mitteleuropäische Sommerzeit)","1","96","0","1729713158175"
"1203","j","SpeechGestureMatch","../RequiredFiles/videos/JaKopfNein_m.mp4","Ist der Ball in der grünen Box?","Blue","Green","J","affirmation","mismatch","speech","yes","HeadShake","male","speech-gesture","1500","1000","edge-chromium","60.93","Windows 10","22","female","right","Wed Oct 23 2024 21:07:09 GMT+0200 (Mitteleuropäische Sommerzeit)","2","1","0","1729713158175"
"826","j","SpeechGestureMatch","../RequiredFiles/videos/NeinKopfNein_f_no_gesture.mp4","Ist der Ball in der blauen Box?","Blue","Green","J","negation","na","speech","no","na","female","speech-gesture","1500","1000","edge-chromium","60.93","Windows 10","22","female","right","Wed Oct 23 2024 21:07:16 GMT+0200 (Mitteleuropäische Sommerzeit)","2","2","0","1729713158175"
"941","f","SpeechGestureMatch","../RequiredFiles/videos/JaKopfNein_m.mp4","Ist der Ball in der grünen Box?","Green","Blue","F","affirmation","mismatch","speech","yes","HeadShake","male","speech-gesture","1500","1000","edge-chromium","60.93","Windows 10","22","female","right","Wed Oct 23 2024 21:07:22 GMT+0200 (Mitteleuropäische Sommerzeit)","2","3","0","1729713158175"
"838","j","SpeechGestureMatch","../RequiredFiles/videos/NeinKopfNein_m_no_gesture.mp4","Ist der Ball in der blauen Box?","Blue","Green","J","negation","na","speech","no","na","male","speech-gesture","1500","1000","edge-chromium","60.93","Windows 10","22","female","right","Wed Oct 23 2024 21:07:29 GMT+0200 (Mitteleuropäische Sommerzeit)","2","4","0","1729713158175"
"923","j","SpeechGestureMatch","../RequiredFiles/videos/JaKopfJa_f.mp4","Ist der Ball in der blauen Box?","Green","Blue","J","affirmation","match","speech","yes","HeadNod","female","speech-gesture","1500","1000","edge-chromium","60.93","Windows 10","22","female","right","Wed Oct 23 2024 21:07:35 GMT+0200 (Mitteleuropäische Sommerzeit)","2","5","0","1729713158175"
"875","f","SpeechGestureMatch","../RequiredFiles/videos/JaKopfJa_f_no_gesture.mp4","Ist der Ball in der grünen Box?","Green","Blue","F","affirmation","na","speech","yes","na","female","speech-gesture","1500","1000","edge-chromium","60.93","Windows 10","22","female","right","Wed Oct 23 2024 21:07:41 GMT+0200 (Mitteleuropäische Sommerzeit)","2","6","0","1729713158175"
"807","f","SpeechGestureMatch","../RequiredFiles/videos/JaKopfNein_f_no_gesture.mp4","Ist der Ball in der blauen Box?","Blue","Green","F","affirmation","na","speech","yes","na","female","speech-gesture","1500","1000","edge-chromium","60.93","Windows 10","22","female","right","Wed Oct 23 2024 21:07:48 GMT+0200 (Mitteleuropäische Sommerzeit)","2","7","0","1729713158175"
"677","f","SpeechGestureMatch","../RequiredFiles/videos/NeinKopfJa_f.mp4","Ist der Ball in der blauen Box?","Blue","Green","J","negation","mismatch","speech","no","HeadNod","female","speech-gesture","1500","1000","edge-chromium","60.93","Windows 10","22","female","right","Wed Oct 23 2024 21:07:54 GMT+0200 (Mitteleuropäische Sommerzeit)","2","8","1","1729713158175"
"906","j","SpeechGestureMatch","../RequiredFiles/videos/NeinKopfJa_f_no_gesture.mp4","Ist der Ball in der grünen Box?","Green","Blue","J","negation","na","speech","no","na","female","speech-gesture","1500","1000","edge-chromium","60.93","Windows 10","22","female","right","Wed Oct 23 2024 21:08:01 GMT+0200 (Mitteleuropäische Sommerzeit)","2","9","0","1729713158175"
"732","f","SpeechGestureMatch","../RequiredFiles/videos/JaKopfJa_m_no_gesture.mp4","Ist der Ball in der blauen Box?","Blue","Green","F","affirmation","na","speech","yes","na","male","speech-gesture","1500","1000","edge-chromium","60.93","Windows 10","22","female","right","Wed Oct 23 2024 21:08:07 GMT+0200 (Mitteleuropäische Sommerzeit)","2","10","0","1729713158175"
"871","j","SpeechGestureMatch","../RequiredFiles/videos/JaKopfNein_m.mp4","Ist der Ball in der blauen Box?","Green","Blue","J","affirmation","mismatch","speech","yes","HeadShake","male","speech-gesture","1500","1000","edge-chromium","60.93","Windows 10","22","female","right","Wed Oct 23 2024 21:08:13 GMT+0200 (Mitteleuropäische Sommerzeit)","2","11","0","1729713158175"
"1524","j","SpeechGestureMatch","../RequiredFiles/videos/JaKopfNein_f.mp4","Ist der Ball in der blauen Box?","Green","Blue","J","affirmation","mismatch","speech","yes","HeadShake","female","speech-gesture","1500","1000","edge-chromium","60.93","Windows 10","22","female","right","Wed Oct 23 2024 21:08:20 GMT+0200 (Mitteleuropäische Sommerzeit)","2","12","0","1729713158175"
"849","j","SpeechGestureMatch","../RequiredFiles/videos/JaKopfJa_f.mp4","Ist der Ball in der grünen Box?","Blue","Green","J","affirmation","match","speech","yes","HeadNod","female","speech-gesture","1500","1000","edge-chromium","60.93","Windows 10","22","female","right","Wed Oct 23 2024 21:08:27 GMT+0200 (Mitteleuropäische Sommerzeit)","2","13","0","1729713158175"
"985","f","SpeechGestureMatch","../RequiredFiles/videos/NeinKopfNein_f_no_gesture.mp4","Ist der Ball in der blauen Box?","Green","Blue","F","negation","na","speech","no","na","female","speech-gesture","1500","1000","edge-chromium","60.93","Windows 10","22","female","right","Wed Oct 23 2024 21:08:33 GMT+0200 (Mitteleuropäische Sommerzeit)","2","14","0","1729713158175"
"889","j","SpeechGestureMatch","../RequiredFiles/videos/NeinKopfNein_m.mp4","Ist der Ball in der blauen Box?","Blue","Green","J","negation","match","speech","no","HeadShake","male","speech-gesture","1500","1000","edge-chromium","60.93","Windows 10","22","female","right","Wed Oct 23 2024 21:08:40 GMT+0200 (Mitteleuropäische Sommerzeit)","2","15","0","1729713158175"
"834","j","SpeechGestureMatch","../RequiredFiles/videos/JaKopfNein_f.mp4","Ist der Ball in der blauen Box?","Green","Blue","J","affirmation","mismatch","speech","yes","HeadShake","female","speech-gesture","1500","1000","edge-chromium","60.93","Windows 10","22","female","right","Wed Oct 23 2024 21:08:46 GMT+0200 (Mitteleuropäische Sommerzeit)","2","16","0","1729713158175"
"1052","f","SpeechGestureMatch","../RequiredFiles/videos/NeinKopfJa_f.mp4","Ist der Ball in der blauen Box?","Green","Blue","F","negation","mismatch","speech","no","HeadNod","female","speech-gesture","1500","1000","edge-chromium","60.93","Windows 10","22","female","right","Wed Oct 23 2024 21:08:53 GMT+0200 (Mitteleuropäische Sommerzeit)","2","17","0","1729713158175"
"1115","j","SpeechGestureMatch","../RequiredFiles/videos/NeinKopfNein_f.mp4","Ist der Ball in der blauen Box?","Blue","Green","J","negation","match","speech","no","HeadShake","female","speech-gesture","1500","1000","edge-chromium","60.93","Windows 10","22","female","right","Wed Oct 23 2024 21:08:59 GMT+0200 (Mitteleuropäische Sommerzeit)","2","18","0","1729713158175"
"1028","f","SpeechGestureMatch","../RequiredFiles/videos/JaKopfJa_m.mp4","Ist der Ball in der grünen Box?","Green","Blue","F","affirmation","match","speech","yes","HeadNod","male","speech-gesture","1500","1000","edge-chromium","60.93","Windows 10","22","female","right","Wed Oct 23 2024 21:09:06 GMT+0200 (Mitteleuropäische Sommerzeit)","2","19","0","1729713158175"
"781","f","SpeechGestureMatch","../RequiredFiles/videos/NeinKopfJa_m_no_gesture.mp4","Ist der Ball in der grünen Box?","Green","Blue","J","negation","na","speech","no","na","male","speech-gesture","1500","1000","edge-chromium","60.93","Windows 10","22","female","right","Wed Oct 23 2024 21:09:12 GMT+0200 (Mitteleuropäische Sommerzeit)","2","20","1","1729713158175"
"788","f","SpeechGestureMatch","../RequiredFiles/videos/JaKopfNein_f.mp4","Ist der Ball in der blauen Box?","Blue","Green","F","affirmation","mismatch","speech","yes","HeadShake","female","speech-gesture","1500","1000","edge-chromium","60.93","Windows 10","22","female","right","Wed Oct 23 2024 21:09:19 GMT+0200 (Mitteleuropäische Sommerzeit)","2","21","0","1729713158175"
"833","j","SpeechGestureMatch","../RequiredFiles/videos/NeinKopfJa_f.mp4","Ist der Ball in der grünen Box?","Green","Blue","J","negation","mismatch","speech","no","HeadNod","female","speech-gesture","1500","1000","edge-chromium","60.93","Windows 10","22","female","right","Wed Oct 23 2024 21:09:25 GMT+0200 (Mitteleuropäische Sommerzeit)","2","22","0","1729713158175"
"812","j","SpeechGestureMatch","../RequiredFiles/videos/JaKopfJa_m.mp4","Ist der Ball in der blauen Box?","Green","Blue","J","affirmation","match","speech","yes","HeadNod","male","speech-gesture","1500","1000","edge-chromium","60.93","Windows 10","22","female","right","Wed Oct 23 2024 21:09:31 GMT+0200 (Mitteleuropäische Sommerzeit)","2","23","0","1729713158175"
"1005","f","SpeechGestureMatch","../RequiredFiles/videos/NeinKopfNein_f.mp4","Ist der Ball in der grünen Box?","Blue","Green","F","negation","match","speech","no","HeadShake","female","speech-gesture","1500","1000","edge-chromium","60.93","Windows 10","22","female","right","Wed Oct 23 2024 21:09:38 GMT+0200 (Mitteleuropäische Sommerzeit)","2","24","0","1729713158175"
"1241","j","SpeechGestureMatch","../RequiredFiles/videos/JaKopfJa_f_no_gesture.mp4","Ist der Ball in der grünen Box?","Blue","Green","J","affirmation","na","speech","yes","na","female","speech-gesture","1500","1000","edge-chromium","60.93","Windows 10","22","female","right","Wed Oct 23 2024 21:09:45 GMT+0200 (Mitteleuropäische Sommerzeit)","2","25","0","1729713158175"
"1121","j","SpeechGestureMatch","../RequiredFiles/videos/JaKopfNein_f.mp4","Ist der Ball in der grünen Box?","Blue","Green","J","affirmation","mismatch","speech","yes","HeadShake","female","speech-gesture","1500","1000","edge-chromium","60.93","Windows 10","22","female","right","Wed Oct 23 2024 21:09:51 GMT+0200 (Mitteleuropäische Sommerzeit)","2","26","0","1729713158175"
"738","j","SpeechGestureMatch","../RequiredFiles/videos/JaKopfJa_f.mp4","Ist der Ball in der blauen Box?","Green","Blue","J","affirmation","match","speech","yes","HeadNod","female","speech-gesture","1500","1000","edge-chromium","60.93","Windows 10","22","female","right","Wed Oct 23 2024 21:09:58 GMT+0200 (Mitteleuropäische Sommerzeit)","2","27","0","1729713158175"
"1010","f","SpeechGestureMatch","../RequiredFiles/videos/JaKopfNein_f.mp4","Ist der Ball in der blauen Box?","Blue","Green","F","affirmation","mismatch","speech","yes","HeadShake","female","speech-gesture","1500","1000","edge-chromium","60.93","Windows 10","22","female","right","Wed Oct 23 2024 21:10:04 GMT+0200 (Mitteleuropäische Sommerzeit)","2","28","0","1729713158175"
"1468","j","SpeechGestureMatch","../RequiredFiles/videos/JaKopfJa_m_no_gesture.mp4","Ist der Ball in der blauen Box?","Green","Blue","J","affirmation","na","speech","yes","na","male","speech-gesture","1500","1000","edge-chromium","60.93","Windows 10","22","female","right","Wed Oct 23 2024 21:10:11 GMT+0200 (Mitteleuropäische Sommerzeit)","2","29","0","1729713158175"
"844","j","SpeechGestureMatch","../RequiredFiles/videos/NeinKopfNein_m_no_gesture.mp4","Ist der Ball in der grünen Box?","Green","Blue","J","negation","na","speech","no","na","male","speech-gesture","1500","1000","edge-chromium","60.93","Windows 10","22","female","right","Wed Oct 23 2024 21:10:17 GMT+0200 (Mitteleuropäische Sommerzeit)","2","30","0","1729713158175"
"732","j","SpeechGestureMatch","../RequiredFiles/videos/JaKopfJa_f.mp4","Ist der Ball in der grünen Box?","Blue","Green","J","affirmation","match","speech","yes","HeadNod","female","speech-gesture","1500","1000","edge-chromium","60.93","Windows 10","22","female","right","Wed Oct 23 2024 21:10:24 GMT+0200 (Mitteleuropäische Sommerzeit)","2","31","0","1729713158175"
"772","f","SpeechGestureMatch","../RequiredFiles/videos/JaKopfNein_m_no_gesture.mp4","Ist der Ball in der blauen Box?","Blue","Green","F","affirmation","na","speech","yes","na","male","speech-gesture","1500","1000","edge-chromium","60.93","Windows 10","22","female","right","Wed Oct 23 2024 21:10:30 GMT+0200 (Mitteleuropäische Sommerzeit)","2","32","0","1729713158175"
"1442","f","SpeechGestureMatch","../RequiredFiles/videos/JaKopfNein_m.mp4","Ist der Ball in der blauen Box?","Blue","Green","F","affirmation","mismatch","speech","yes","HeadShake","male","speech-gesture","1500","1000","edge-chromium","60.93","Windows 10","22","female","right","Wed Oct 23 2024 21:10:37 GMT+0200 (Mitteleuropäische Sommerzeit)","2","33","0","1729713158175"
"910","f","SpeechGestureMatch","../RequiredFiles/videos/NeinKopfJa_f.mp4","Ist der Ball in der grünen Box?","Blue","Green","F","negation","mismatch","speech","no","HeadNod","female","speech-gesture","1500","1000","edge-chromium","60.93","Windows 10","22","female","right","Wed Oct 23 2024 21:10:44 GMT+0200 (Mitteleuropäische Sommerzeit)","2","34","0","1729713158175"
"979","f","SpeechGestureMatch","../RequiredFiles/videos/JaKopfNein_m.mp4","Ist der Ball in der blauen Box?","Blue","Green","F","affirmation","mismatch","speech","yes","HeadShake","male","speech-gesture","1500","1000","edge-chromium","60.93","Windows 10","22","female","right","Wed Oct 23 2024 21:10:50 GMT+0200 (Mitteleuropäische Sommerzeit)","2","35","0","1729713158175"
"947","j","SpeechGestureMatch","../RequiredFiles/videos/NeinKopfNein_m.mp4","Ist der Ball in der grünen Box?","Blue","Green","F","negation","match","speech","no","HeadShake","male","speech-gesture","1500","1000","edge-chromium","60.93","Windows 10","22","female","right","Wed Oct 23 2024 21:10:57 GMT+0200 (Mitteleuropäische Sommerzeit)","2","36","1","1729713158175"
"1163","f","SpeechGestureMatch","../RequiredFiles/videos/NeinKopfJa_m.mp4","Ist der Ball in der blauen Box?","Green","Blue","F","negation","mismatch","speech","no","HeadNod","male","speech-gesture","1500","1000","edge-chromium","60.93","Windows 10","22","female","right","Wed Oct 23 2024 21:11:03 GMT+0200 (Mitteleuropäische Sommerzeit)","2","37","0","1729713158175"
"1082","f","SpeechGestureMatch","../RequiredFiles/videos/NeinKopfNein_m.mp4","Ist der Ball in der blauen Box?","Green","Blue","F","negation","match","speech","no","HeadShake","male","speech-gesture","1500","1000","edge-chromium","60.93","Windows 10","22","female","right","Wed Oct 23 2024 21:11:10 GMT+0200 (Mitteleuropäische Sommerzeit)","2","38","0","1729713158175"
"1087","j","SpeechGestureMatch","../RequiredFiles/videos/JaKopfJa_m.mp4","Ist der Ball in der blauen Box?","Green","Blue","J","affirmation","match","speech","yes","HeadNod","male","speech-gesture","1500","1000","edge-chromium","60.93","Windows 10","22","female","right","Wed Oct 23 2024 21:11:16 GMT+0200 (Mitteleuropäische Sommerzeit)","2","39","0","1729713158175"
"1234","f","SpeechGestureMatch","../RequiredFiles/videos/NeinKopfJa_f.mp4","Ist der Ball in der blauen Box?","Green","Blue","F","negation","mismatch","speech","no","HeadNod","female","speech-gesture","1500","1000","edge-chromium","60.93","Windows 10","22","female","right","Wed Oct 23 2024 21:11:23 GMT+0200 (Mitteleuropäische Sommerzeit)","2","40","0","1729713158175"
"1055","f","SpeechGestureMatch","../RequiredFiles/videos/NeinKopfJa_m.mp4","Ist der Ball in der grünen Box?","Blue","Green","F","negation","mismatch","speech","no","HeadNod","male","speech-gesture","1500","1000","edge-chromium","60.93","Windows 10","22","female","right","Wed Oct 23 2024 21:11:30 GMT+0200 (Mitteleuropäische Sommerzeit)","2","41","0","1729713158175"
"911","j","SpeechGestureMatch","../RequiredFiles/videos/JaKopfNein_f_no_gesture.mp4","Ist der Ball in der grünen Box?","Green","Blue","F","affirmation","na","speech","yes","na","female","speech-gesture","1500","1000","edge-chromium","60.93","Windows 10","22","female","right","Wed Oct 23 2024 21:11:36 GMT+0200 (Mitteleuropäische Sommerzeit)","2","42","1","1729713158175"
"1340","j","SpeechGestureMatch","../RequiredFiles/videos/JaKopfNein_f.mp4","Ist der Ball in der grünen Box?","Blue","Green","J","affirmation","mismatch","speech","yes","HeadShake","female","speech-gesture","1500","1000","edge-chromium","60.93","Windows 10","22","female","right","Wed Oct 23 2024 21:11:43 GMT+0200 (Mitteleuropäische Sommerzeit)","2","43","0","1729713158175"
"749","f","SpeechGestureMatch","../RequiredFiles/videos/NeinKopfNein_m.mp4","Ist der Ball in der blauen Box?","Green","Blue","F","negation","match","speech","no","HeadShake","male","speech-gesture","1500","1000","edge-chromium","60.93","Windows 10","22","female","right","Wed Oct 23 2024 21:11:50 GMT+0200 (Mitteleuropäische Sommerzeit)","2","44","0","1729713158175"
"735","f","SpeechGestureMatch","../RequiredFiles/videos/JaKopfNein_f.mp4","Ist der Ball in der grünen Box?","Green","Blue","F","affirmation","mismatch","speech","yes","HeadShake","female","speech-gesture","1500","1000","edge-chromium","60.93","Windows 10","22","female","right","Wed Oct 23 2024 21:11:56 GMT+0200 (Mitteleuropäische Sommerzeit)","2","45","0","1729713158175"
"759","j","SpeechGestureMatch","../RequiredFiles/videos/NeinKopfNein_m.mp4","Ist der Ball in der blauen Box?","Blue","Green","J","negation","match","speech","no","HeadShake","male","speech-gesture","1500","1000","edge-chromium","60.93","Windows 10","22","female","right","Wed Oct 23 2024 21:12:02 GMT+0200 (Mitteleuropäische Sommerzeit)","2","46","0","1729713158175"
"824","f","SpeechGestureMatch","../RequiredFiles/videos/JaKopfJa_f.mp4","Ist der Ball in der blauen Box?","Blue","Green","F","affirmation","match","speech","yes","HeadNod","female","speech-gesture","1500","1000","edge-chromium","60.93","Windows 10","22","female","right","Wed Oct 23 2024 21:12:08 GMT+0200 (Mitteleuropäische Sommerzeit)","2","47","0","1729713158175"
"689","j","SpeechGestureMatch","../RequiredFiles/videos/NeinKopfJa_f.mp4","Ist der Ball in der grünen Box?","Blue","Green","F","negation","mismatch","speech","no","HeadNod","female","speech-gesture","1500","1000","edge-chromium","60.93","Windows 10","22","female","right","Wed Oct 23 2024 21:12:15 GMT+0200 (Mitteleuropäische Sommerzeit)","2","48","1","1729713158175"
"780","j","SpeechGestureMatch","../RequiredFiles/videos/NeinKopfNein_f.mp4","Ist der Ball in der blauen Box?","Blue","Green","J","negation","match","speech","no","HeadShake","female","speech-gesture","1500","1000","edge-chromium","60.93","Windows 10","22","female","right","Wed Oct 23 2024 21:12:21 GMT+0200 (Mitteleuropäische Sommerzeit)","2","49","0","1729713158175"
"926","f","SpeechGestureMatch","../RequiredFiles/videos/JaKopfNein_m.mp4","Ist der Ball in der grünen Box?","Green","Blue","F","affirmation","mismatch","speech","yes","HeadShake","male","speech-gesture","1500","1000","edge-chromium","60.93","Windows 10","22","female","right","Wed Oct 23 2024 21:12:28 GMT+0200 (Mitteleuropäische Sommerzeit)","2","50","0","1729713158175"
"1120","j","SpeechGestureMatch","../RequiredFiles/videos/NeinKopfJa_m.mp4","Ist der Ball in der grünen Box?","Green","Blue","J","negation","mismatch","speech","no","HeadNod","male","speech-gesture","1500","1000","edge-chromium","60.93","Windows 10","22","female","right","Wed Oct 23 2024 21:12:34 GMT+0200 (Mitteleuropäische Sommerzeit)","2","51","0","1729713158175"
"933","j","SpeechGestureMatch","../RequiredFiles/videos/NeinKopfJa_m_no_gesture.mp4","Ist der Ball in der grünen Box?","Blue","Green","F","negation","na","speech","no","na","male","speech-gesture","1500","1000","edge-chromium","60.93","Windows 10","22","female","right","Wed Oct 23 2024 21:12:41 GMT+0200 (Mitteleuropäische Sommerzeit)","2","52","1","1729713158175"
"918","f","SpeechGestureMatch","../RequiredFiles/videos/JaKopfNein_m_no_gesture.mp4","Ist der Ball in der grünen Box?","Green","Blue","F","affirmation","na","speech","yes","na","male","speech-gesture","1500","1000","edge-chromium","60.93","Windows 10","22","female","right","Wed Oct 23 2024 21:12:47 GMT+0200 (Mitteleuropäische Sommerzeit)","2","53","0","1729713158175"
"731","f","SpeechGestureMatch","../RequiredFiles/videos/JaKopfJa_f.mp4","Ist der Ball in der grünen Box?","Green","Blue","F","affirmation","match","speech","yes","HeadNod","female","speech-gesture","1500","1000","edge-chromium","60.93","Windows 10","22","female","right","Wed Oct 23 2024 21:12:53 GMT+0200 (Mitteleuropäische Sommerzeit)","2","54","0","1729713158175"
"982","j","SpeechGestureMatch","../RequiredFiles/videos/JaKopfNein_f_no_gesture.mp4","Ist der Ball in der grünen Box?","Blue","Green","J","affirmation","na","speech","yes","na","female","speech-gesture","1500","1000","edge-chromium","60.93","Windows 10","22","female","right","Wed Oct 23 2024 21:13:00 GMT+0200 (Mitteleuropäische Sommerzeit)","2","55","0","1729713158175"
"1132","j","SpeechGestureMatch","../RequiredFiles/videos/NeinKopfJa_f.mp4","Ist der Ball in der blauen Box?","Blue","Green","J","negation","mismatch","speech","no","HeadNod","female","speech-gesture","1500","1000","edge-chromium","60.93","Windows 10","22","female","right","Wed Oct 23 2024 21:13:07 GMT+0200 (Mitteleuropäische Sommerzeit)","2","56","0","1729713158175"
"1016","j","SpeechGestureMatch","../RequiredFiles/videos/NeinKopfNein_m.mp4","Ist der Ball in der grünen Box?","Green","Blue","J","negation","match","speech","no","HeadShake","male","speech-gesture","1500","1000","edge-chromium","60.93","Windows 10","22","female","right","Wed Oct 23 2024 21:13:13 GMT+0200 (Mitteleuropäische Sommerzeit)","2","57","0","1729713158175"
"799","f","SpeechGestureMatch","../RequiredFiles/videos/JaKopfJa_m_no_gesture.mp4","Ist der Ball in der grünen Box?","Green","Blue","F","affirmation","na","speech","yes","na","male","speech-gesture","1500","1000","edge-chromium","60.93","Windows 10","22","female","right","Wed Oct 23 2024 21:13:20 GMT+0200 (Mitteleuropäische Sommerzeit)","2","58","0","1729713158175"
"999","j","SpeechGestureMatch","../RequiredFiles/videos/NeinKopfJa_m.mp4","Ist der Ball in der blauen Box?","Green","Blue","F","negation","mismatch","speech","no","HeadNod","male","speech-gesture","1500","1000","edge-chromium","60.93","Windows 10","22","female","right","Wed Oct 23 2024 21:13:26 GMT+0200 (Mitteleuropäische Sommerzeit)","2","59","1","1729713158175"
"996","j","SpeechGestureMatch","../RequiredFiles/videos/JaKopfNein_f_no_gesture.mp4","Ist der Ball in der blauen Box?","Green","Blue","J","affirmation","na","speech","yes","na","female","speech-gesture","1500","1000","edge-chromium","60.93","Windows 10","22","female","right","Wed Oct 23 2024 21:13:33 GMT+0200 (Mitteleuropäische Sommerzeit)","2","60","0","1729713158175"
"874","j","SpeechGestureMatch","../RequiredFiles/videos/NeinKopfJa_m.mp4","Ist der Ball in der grünen Box?","Green","Blue","J","negation","mismatch","speech","no","HeadNod","male","speech-gesture","1500","1000","edge-chromium","60.93","Windows 10","22","female","right","Wed Oct 23 2024 21:13:39 GMT+0200 (Mitteleuropäische Sommerzeit)","2","61","0","1729713158175"
"1017","f","SpeechGestureMatch","../RequiredFiles/videos/JaKopfJa_m.mp4","Ist der Ball in der blauen Box?","Blue","Green","F","affirmation","match","speech","yes","HeadNod","male","speech-gesture","1500","1000","edge-chromium","60.93","Windows 10","22","female","right","Wed Oct 23 2024 21:13:46 GMT+0200 (Mitteleuropäische Sommerzeit)","2","62","0","1729713158175"
"932","j","SpeechGestureMatch","../RequiredFiles/videos/NeinKopfJa_m_no_gesture.mp4","Ist der Ball in der blauen Box?","Blue","Green","J","negation","na","speech","no","na","male","speech-gesture","1500","1000","edge-chromium","60.93","Windows 10","22","female","right","Wed Oct 23 2024 21:13:52 GMT+0200 (Mitteleuropäische Sommerzeit)","2","63","0","1729713158175"
"961","j","SpeechGestureMatch","../RequiredFiles/videos/NeinKopfNein_f_no_gesture.mp4","Ist der Ball in der grünen Box?","Green","Blue","J","negation","na","speech","no","na","female","speech-gesture","1500","1000","edge-chromium","60.93","Windows 10","22","female","right","Wed Oct 23 2024 21:13:59 GMT+0200 (Mitteleuropäische Sommerzeit)","2","64","0","1729713158175"
"899","j","SpeechGestureMatch","../RequiredFiles/videos/NeinKopfNein_m.mp4","Ist der Ball in der grünen Box?","Green","Blue","J","negation","match","speech","no","HeadShake","male","speech-gesture","1500","1000","edge-chromium","60.93","Windows 10","22","female","right","Wed Oct 23 2024 21:14:05 GMT+0200 (Mitteleuropäische Sommerzeit)","2","65","0","1729713158175"
"818","f","SpeechGestureMatch","../RequiredFiles/videos/JaKopfNein_m.mp4","Ist der Ball in der blauen Box?","Green","Blue","J","affirmation","mismatch","speech","yes","HeadShake","male","speech-gesture","1500","1000","edge-chromium","60.93","Windows 10","22","female","right","Wed Oct 23 2024 21:14:11 GMT+0200 (Mitteleuropäische Sommerzeit)","2","66","1","1729713158175"
"918","f","SpeechGestureMatch","../RequiredFiles/videos/JaKopfNein_f.mp4","Ist der Ball in der grünen Box?","Green","Blue","F","affirmation","mismatch","speech","yes","HeadShake","female","speech-gesture","1500","1000","edge-chromium","60.93","Windows 10","22","female","right","Wed Oct 23 2024 21:14:18 GMT+0200 (Mitteleuropäische Sommerzeit)","2","67","0","1729713158175"
"844","f","SpeechGestureMatch","../RequiredFiles/videos/JaKopfJa_f_no_gesture.mp4","Ist der Ball in der blauen Box?","Blue","Green","F","affirmation","na","speech","yes","na","female","speech-gesture","1500","1000","edge-chromium","60.93","Windows 10","22","female","right","Wed Oct 23 2024 21:14:24 GMT+0200 (Mitteleuropäische Sommerzeit)","2","68","0","1729713158175"
"751","f","SpeechGestureMatch","../RequiredFiles/videos/JaKopfJa_m.mp4","Ist der Ball in der grünen Box?","Green","Blue","F","affirmation","match","speech","yes","HeadNod","male","speech-gesture","1500","1000","edge-chromium","60.93","Windows 10","22","female","right","Wed Oct 23 2024 21:14:31 GMT+0200 (Mitteleuropäische Sommerzeit)","2","69","0","1729713158175"
"1048","f","SpeechGestureMatch","../RequiredFiles/videos/NeinKopfJa_m.mp4","Ist der Ball in der grünen Box?","Blue","Green","F","negation","mismatch","speech","no","HeadNod","male","speech-gesture","1500","1000","edge-chromium","60.93","Windows 10","22","female","right","Wed Oct 23 2024 21:14:37 GMT+0200 (Mitteleuropäische Sommerzeit)","2","70","0","1729713158175"
"1300","f","SpeechGestureMatch","../RequiredFiles/videos/JaKopfJa_f.mp4","Ist der Ball in der blauen Box?","Blue","Green","F","affirmation","match","speech","yes","HeadNod","female","speech-gesture","1500","1000","edge-chromium","60.93","Windows 10","22","female","right","Wed Oct 23 2024 21:14:44 GMT+0200 (Mitteleuropäische Sommerzeit)","2","71","0","1729713158175"
"949","f","SpeechGestureMatch","../RequiredFiles/videos/NeinKopfNein_f.mp4","Ist der Ball in der blauen Box?","Green","Blue","F","negation","match","speech","no","HeadShake","female","speech-gesture","1500","1000","edge-chromium","60.93","Windows 10","22","female","right","Wed Oct 23 2024 21:14:51 GMT+0200 (Mitteleuropäische Sommerzeit)","2","72","0","1729713158175"
"940","j","SpeechGestureMatch","../RequiredFiles/videos/NeinKopfNein_f.mp4","Ist der Ball in der grünen Box?","Green","Blue","J","negation","match","speech","no","HeadShake","female","speech-gesture","1500","1000","edge-chromium","60.93","Windows 10","22","female","right","Wed Oct 23 2024 21:14:57 GMT+0200 (Mitteleuropäische Sommerzeit)","2","73","0","1729713158175"
"900","f","SpeechGestureMatch","../RequiredFiles/videos/JaKopfNein_m_no_gesture.mp4","Ist der Ball in der grünen Box?","Blue","Green","J","affirmation","na","speech","yes","na","male","speech-gesture","1500","1000","edge-chromium","60.93","Windows 10","22","female","right","Wed Oct 23 2024 21:15:04 GMT+0200 (Mitteleuropäische Sommerzeit)","2","74","1","1729713158175"
"962","j","SpeechGestureMatch","../RequiredFiles/videos/NeinKopfJa_m.mp4","Ist der Ball in der blauen Box?","Blue","Green","J","negation","mismatch","speech","no","HeadNod","male","speech-gesture","1500","1000","edge-chromium","60.93","Windows 10","22","female","right","Wed Oct 23 2024 21:15:10 GMT+0200 (Mitteleuropäische Sommerzeit)","2","75","0","1729713158175"
"940","f","SpeechGestureMatch","../RequiredFiles/videos/NeinKopfJa_m_no_gesture.mp4","Ist der Ball in der blauen Box?","Green","Blue","F","negation","na","speech","no","na","male","speech-gesture","1500","1000","edge-chromium","60.93","Windows 10","22","female","right","Wed Oct 23 2024 21:15:17 GMT+0200 (Mitteleuropäische Sommerzeit)","2","76","0","1729713158175"
"1078","j","SpeechGestureMatch","../RequiredFiles/videos/NeinKopfJa_f.mp4","Ist der Ball in der grünen Box?","Green","Blue","J","negation","mismatch","speech","no","HeadNod","female","speech-gesture","1500","1000","edge-chromium","60.93","Windows 10","22","female","right","Wed Oct 23 2024 21:15:23 GMT+0200 (Mitteleuropäische Sommerzeit)","2","77","0","1729713158175"
"871","f","SpeechGestureMatch","../RequiredFiles/videos/NeinKopfJa_f_no_gesture.mp4","Ist der Ball in der grünen Box?","Blue","Green","F","negation","na","speech","no","na","female","speech-gesture","1500","1000","edge-chromium","60.93","Windows 10","22","female","right","Wed Oct 23 2024 21:15:30 GMT+0200 (Mitteleuropäische Sommerzeit)","2","78","0","1729713158175"
"916","j","SpeechGestureMatch","../RequiredFiles/videos/JaKopfNein_m_no_gesture.mp4","Ist der Ball in der blauen Box?","Green","Blue","J","affirmation","na","speech","yes","na","male","speech-gesture","1500","1000","edge-chromium","60.93","Windows 10","22","female","right","Wed Oct 23 2024 21:15:36 GMT+0200 (Mitteleuropäische Sommerzeit)","2","79","0","1729713158175"
"836","f","SpeechGestureMatch","../RequiredFiles/videos/NeinKopfNein_f.mp4","Ist der Ball in der blauen Box?","Green","Blue","F","negation","match","speech","no","HeadShake","female","speech-gesture","1500","1000","edge-chromium","60.93","Windows 10","22","female","right","Wed Oct 23 2024 21:15:42 GMT+0200 (Mitteleuropäische Sommerzeit)","2","80","0","1729713158175"
"913","j","SpeechGestureMatch","../RequiredFiles/videos/NeinKopfNein_f.mp4","Ist der Ball in der grünen Box?","Green","Blue","J","negation","match","speech","no","HeadShake","female","speech-gesture","1500","1000","edge-chromium","60.93","Windows 10","22","female","right","Wed Oct 23 2024 21:15:49 GMT+0200 (Mitteleuropäische Sommerzeit)","2","81","0","1729713158175"
"859","j","SpeechGestureMatch","../RequiredFiles/videos/NeinKopfJa_m.mp4","Ist der Ball in der blauen Box?","Blue","Green","J","negation","mismatch","speech","no","HeadNod","male","speech-gesture","1500","1000","edge-chromium","60.93","Windows 10","22","female","right","Wed Oct 23 2024 21:15:55 GMT+0200 (Mitteleuropäische Sommerzeit)","2","82","0","1729713158175"
"859","j","SpeechGestureMatch","../RequiredFiles/videos/JaKopfJa_f.mp4","Ist der Ball in der grünen Box?","Green","Blue","F","affirmation","match","speech","yes","HeadNod","female","speech-gesture","1500","1000","edge-chromium","60.93","Windows 10","22","female","right","Wed Oct 23 2024 21:16:02 GMT+0200 (Mitteleuropäische Sommerzeit)","2","83","1","1729713158175"
"855","j","SpeechGestureMatch","../RequiredFiles/videos/JaKopfNein_m.mp4","Ist der Ball in der grünen Box?","Blue","Green","J","affirmation","mismatch","speech","yes","HeadShake","male","speech-gesture","1500","1000","edge-chromium","60.93","Windows 10","22","female","right","Wed Oct 23 2024 21:16:08 GMT+0200 (Mitteleuropäische Sommerzeit)","2","84","0","1729713158175"
"758","f","SpeechGestureMatch","../RequiredFiles/videos/NeinKopfNein_m_no_gesture.mp4","Ist der Ball in der grünen Box?","Blue","Green","F","negation","na","speech","no","na","male","speech-gesture","1500","1000","edge-chromium","60.93","Windows 10","22","female","right","Wed Oct 23 2024 21:16:14 GMT+0200 (Mitteleuropäische Sommerzeit)","2","85","0","1729713158175"
"1042","f","SpeechGestureMatch","../RequiredFiles/videos/NeinKopfNein_f_no_gesture.mp4","Ist der Ball in der grünen Box?","Blue","Green","F","negation","na","speech","no","na","female","speech-gesture","1500","1000","edge-chromium","60.93","Windows 10","22","female","right","Wed Oct 23 2024 21:16:21 GMT+0200 (Mitteleuropäische Sommerzeit)","2","86","0","1729713158175"
"732","j","SpeechGestureMatch","../RequiredFiles/videos/JaKopfJa_f_no_gesture.mp4","Ist der Ball in der blauen Box?","Green","Blue","J","affirmation","na","speech","yes","na","female","speech-gesture","1500","1000","edge-chromium","60.93","Windows 10","22","female","right","Wed Oct 23 2024 21:16:27 GMT+0200 (Mitteleuropäische Sommerzeit)","2","87","0","1729713158175"
"799","j","SpeechGestureMatch","../RequiredFiles/videos/JaKopfJa_m_no_gesture.mp4","Ist der Ball in der grünen Box?","Blue","Green","J","affirmation","na","speech","yes","na","male","speech-gesture","1500","1000","edge-chromium","60.93","Windows 10","22","female","right","Wed Oct 23 2024 21:16:34 GMT+0200 (Mitteleuropäische Sommerzeit)","2","88","0","1729713158175"
"947","f","SpeechGestureMatch","../RequiredFiles/videos/NeinKopfJa_f_no_gesture.mp4","Ist der Ball in der blauen Box?","Green","Blue","F","negation","na","speech","no","na","female","speech-gesture","1500","1000","edge-chromium","60.93","Windows 10","22","female","right","Wed Oct 23 2024 21:16:40 GMT+0200 (Mitteleuropäische Sommerzeit)","2","89","0","1729713158175"
"1023","j","SpeechGestureMatch","../RequiredFiles/videos/JaKopfJa_m.mp4","Ist der Ball in der grünen Box?","Blue","Green","J","affirmation","match","speech","yes","HeadNod","male","speech-gesture","1500","1000","edge-chromium","60.93","Windows 10","22","female","right","Wed Oct 23 2024 21:16:47 GMT+0200 (Mitteleuropäische Sommerzeit)","2","90","0","1729713158175"
"702","j","SpeechGestureMatch","../RequiredFiles/videos/JaKopfJa_m.mp4","Ist der Ball in der grünen Box?","Blue","Green","J","affirmation","match","speech","yes","HeadNod","male","speech-gesture","1500","1000","edge-chromium","60.93","Windows 10","22","female","right","Wed Oct 23 2024 21:16:53 GMT+0200 (Mitteleuropäische Sommerzeit)","2","91","0","1729713158175"
"818","f","SpeechGestureMatch","../RequiredFiles/videos/JaKopfJa_m.mp4","Ist der Ball in der blauen Box?","Blue","Green","F","affirmation","match","speech","yes","HeadNod","male","speech-gesture","1500","1000","edge-chromium","60.93","Windows 10","22","female","right","Wed Oct 23 2024 21:16:59 GMT+0200 (Mitteleuropäische Sommerzeit)","2","92","0","1729713158175"
"982","j","SpeechGestureMatch","../RequiredFiles/videos/NeinKopfJa_f_no_gesture.mp4","Ist der Ball in der blauen Box?","Blue","Green","J","negation","na","speech","no","na","female","speech-gesture","1500","1000","edge-chromium","60.93","Windows 10","22","female","right","Wed Oct 23 2024 21:17:06 GMT+0200 (Mitteleuropäische Sommerzeit)","2","93","0","1729713158175"
"1070","f","SpeechGestureMatch","../RequiredFiles/videos/NeinKopfNein_f.mp4","Ist der Ball in der grünen Box?","Blue","Green","F","negation","match","speech","no","HeadShake","female","speech-gesture","1500","1000","edge-chromium","60.93","Windows 10","22","female","right","Wed Oct 23 2024 21:17:12 GMT+0200 (Mitteleuropäische Sommerzeit)","2","94","0","1729713158175"
"804","j","SpeechGestureMatch","../RequiredFiles/videos/NeinKopfNein_m_no_gesture.mp4","Ist der Ball in der blauen Box?","Green","Blue","F","negation","na","speech","no","na","male","speech-gesture","1500","1000","edge-chromium","60.93","Windows 10","22","female","right","Wed Oct 23 2024 21:17:19 GMT+0200 (Mitteleuropäische Sommerzeit)","2","95","1","1729713158175"
"834","f","SpeechGestureMatch","../RequiredFiles/videos/NeinKopfNein_m.mp4","Ist der Ball in der grünen Box?","Blue","Green","F","negation","match","speech","no","HeadShake","male","speech-gesture","1500","1000","edge-chromium","60.93","Windows 10","22","female","right","Wed Oct 23 2024 21:17:25 GMT+0200 (Mitteleuropäische Sommerzeit)","2","96","0","1729713158175"
"1079","f","SpeechGestureMatch","../RequiredFiles/videos/NeinKopfNein_f_no_sound.mp4","Ist der Ball in der grünen Box?","Green","Blue","J","negation","na","gesture","na","HeadShake","female","speech-gesture","1500","1000","edge-chromium","60.93","Windows 10","22","female","right","Wed Oct 23 2024 21:25:08 GMT+0200 (Mitteleuropäische Sommerzeit)","3","1","1","1729713158175"
"1117","j","SpeechGestureMatch","../RequiredFiles/videos/NeinKopfNein_f.mp4","Ist der Ball in der blauen Box?","Blue","Green","J","negation","match","gesture","no","HeadShake","female","speech-gesture","1500","1000","edge-chromium","60.93","Windows 10","22","female","right","Wed Oct 23 2024 21:25:15 GMT+0200 (Mitteleuropäische Sommerzeit)","3","2","0","1729713158175"
"799","f","SpeechGestureMatch","../RequiredFiles/videos/NeinKopfJa_m_no_sound.mp4","Ist der Ball in der grünen Box?","Green","Blue","F","affirmation","na","gesture","na","HeadNod","male","speech-gesture","1500","1000","edge-chromium","60.93","Windows 10","22","female","right","Wed Oct 23 2024 21:25:21 GMT+0200 (Mitteleuropäische Sommerzeit)","3","3","0","1729713158175"
"1436","j","SpeechGestureMatch","../RequiredFiles/videos/JaKopfNein_m.mp4","Ist der Ball in der blauen Box?","Blue","Green","J","negation","mismatch","gesture","yes","HeadShake","male","speech-gesture","1500","1000","edge-chromium","60.93","Windows 10","22","female","right","Wed Oct 23 2024 21:25:28 GMT+0200 (Mitteleuropäische Sommerzeit)","3","4","0","1729713158175"
"1178","f","SpeechGestureMatch","../RequiredFiles/videos/NeinKopfJa_m.mp4","Ist der Ball in der blauen Box?","Blue","Green","F","affirmation","mismatch","gesture","no","HeadNod","male","speech-gesture","1500","1000","edge-chromium","60.93","Windows 10","22","female","right","Wed Oct 23 2024 21:25:35 GMT+0200 (Mitteleuropäische Sommerzeit)","3","5","0","1729713158175"
"1789","f","SpeechGestureMatch","../RequiredFiles/videos/NeinKopfNein_m.mp4","Ist der Ball in der grünen Box?","Blue","Green","F","negation","match","gesture","no","HeadShake","male","speech-gesture","1500","1000","edge-chromium","60.93","Windows 10","22","female","right","Wed Oct 23 2024 21:25:42 GMT+0200 (Mitteleuropäische Sommerzeit)","3","6","0","1729713158175"
"810","j","SpeechGestureMatch","../RequiredFiles/videos/JaKopfJa_f.mp4","Ist der Ball in der blauen Box?","Green","Blue","J","affirmation","match","gesture","yes","HeadNod","female","speech-gesture","1500","1000","edge-chromium","60.93","Windows 10","22","female","right","Wed Oct 23 2024 21:25:48 GMT+0200 (Mitteleuropäische Sommerzeit)","3","7","0","1729713158175"
"926","f","SpeechGestureMatch","../RequiredFiles/videos/JaKopfJa_m.mp4","Ist der Ball in der blauen Box?","Blue","Green","F","affirmation","match","gesture","yes","HeadNod","male","speech-gesture","1500","1000","edge-chromium","60.93","Windows 10","22","female","right","Wed Oct 23 2024 21:25:55 GMT+0200 (Mitteleuropäische Sommerzeit)","3","8","0","1729713158175"
"749","f","SpeechGestureMatch","../RequiredFiles/videos/JaKopfJa_f.mp4","Ist der Ball in der blauen Box?","Blue","Green","F","affirmation","match","gesture","yes","HeadNod","female","speech-gesture","1500","1000","edge-chromium","60.93","Windows 10","22","female","right","Wed Oct 23 2024 21:26:01 GMT+0200 (Mitteleuropäische Sommerzeit)","3","9","0","1729713158175"
"927","j","SpeechGestureMatch","../RequiredFiles/videos/JaKopfNein_f.mp4","Ist der Ball in der blauen Box?","Blue","Green","J","negation","mismatch","gesture","yes","HeadShake","female","speech-gesture","1500","1000","edge-chromium","60.93","Windows 10","22","female","right","Wed Oct 23 2024 21:26:08 GMT+0200 (Mitteleuropäische Sommerzeit)","3","10","0","1729713158175"
"848","f","SpeechGestureMatch","../RequiredFiles/videos/JaKopfJa_m.mp4","Ist der Ball in der grünen Box?","Green","Blue","F","affirmation","match","gesture","yes","HeadNod","male","speech-gesture","1500","1000","edge-chromium","60.93","Windows 10","22","female","right","Wed Oct 23 2024 21:26:14 GMT+0200 (Mitteleuropäische Sommerzeit)","3","11","0","1729713158175"
"735","j","SpeechGestureMatch","../RequiredFiles/videos/JaKopfJa_f_no_sound.mp4","Ist der Ball in der grünen Box?","Blue","Green","J","affirmation","na","gesture","na","HeadNod","female","speech-gesture","1500","1000","edge-chromium","60.93","Windows 10","22","female","right","Wed Oct 23 2024 21:26:20 GMT+0200 (Mitteleuropäische Sommerzeit)","3","12","0","1729713158175"
"905","f","SpeechGestureMatch","../RequiredFiles/videos/JaKopfJa_f.mp4","Ist der Ball in der grünen Box?","Green","Blue","F","affirmation","match","gesture","yes","HeadNod","female","speech-gesture","1500","1000","edge-chromium","60.93","Windows 10","22","female","right","Wed Oct 23 2024 21:26:27 GMT+0200 (Mitteleuropäische Sommerzeit)","3","13","0","1729713158175"
"794","j","SpeechGestureMatch","../RequiredFiles/videos/JaKopfNein_m.mp4","Ist der Ball in der blauen Box?","Blue","Green","J","negation","mismatch","gesture","yes","HeadShake","male","speech-gesture","1500","1000","edge-chromium","60.93","Windows 10","22","female","right","Wed Oct 23 2024 21:26:33 GMT+0200 (Mitteleuropäische Sommerzeit)","3","14","0","1729713158175"
"1786","f","SpeechGestureMatch","../RequiredFiles/videos/JaKopfNein_m.mp4","Ist der Ball in der blauen Box?","Green","Blue","F","negation","mismatch","gesture","yes","HeadShake","male","speech-gesture","1500","1000","edge-chromium","60.93","Windows 10","22","female","right","Wed Oct 23 2024 21:26:40 GMT+0200 (Mitteleuropäische Sommerzeit)","3","15","0","1729713158175"
"904","f","SpeechGestureMatch","../RequiredFiles/videos/NeinKopfNein_f.mp4","Ist der Ball in der blauen Box?","Green","Blue","F","negation","match","gesture","no","HeadShake","female","speech-gesture","1500","1000","edge-chromium","60.93","Windows 10","22","female","right","Wed Oct 23 2024 21:26:47 GMT+0200 (Mitteleuropäische Sommerzeit)","3","16","0","1729713158175"
"824","j","SpeechGestureMatch","../RequiredFiles/videos/JaKopfJa_m_no_sound.mp4","Ist der Ball in der grünen Box?","Blue","Green","J","affirmation","na","gesture","na","HeadNod","male","speech-gesture","1500","1000","edge-chromium","60.93","Windows 10","22","female","right","Wed Oct 23 2024 21:26:53 GMT+0200 (Mitteleuropäische Sommerzeit)","3","17","0","1729713158175"
"728","f","SpeechGestureMatch","../RequiredFiles/videos/JaKopfJa_f_no_sound.mp4","Ist der Ball in der grünen Box?","Green","Blue","F","affirmation","na","gesture","na","HeadNod","female","speech-gesture","1500","1000","edge-chromium","60.93","Windows 10","22","female","right","Wed Oct 23 2024 21:26:59 GMT+0200 (Mitteleuropäische Sommerzeit)","3","18","0","1729713158175"
"858","f","SpeechGestureMatch","../RequiredFiles/videos/JaKopfJa_f_no_sound.mp4","Ist der Ball in der blauen Box?","Blue","Green","F","affirmation","na","gesture","na","HeadNod","female","speech-gesture","1500","1000","edge-chromium","60.93","Windows 10","22","female","right","Wed Oct 23 2024 21:27:06 GMT+0200 (Mitteleuropäische Sommerzeit)","3","19","0","1729713158175"
"1382","j","SpeechGestureMatch","../RequiredFiles/videos/NeinKopfJa_f.mp4","Ist der Ball in der blauen Box?","Green","Blue","J","affirmation","mismatch","gesture","no","HeadNod","female","speech-gesture","1500","1000","edge-chromium","60.93","Windows 10","22","female","right","Wed Oct 23 2024 21:27:13 GMT+0200 (Mitteleuropäische Sommerzeit)","3","20","0","1729713158175"
"712","f","SpeechGestureMatch","../RequiredFiles/videos/NeinKopfJa_m_no_sound.mp4","Ist der Ball in der blauen Box?","Blue","Green","F","affirmation","na","gesture","na","HeadNod","male","speech-gesture","1500","1000","edge-chromium","60.93","Windows 10","22","female","right","Wed Oct 23 2024 21:27:19 GMT+0200 (Mitteleuropäische Sommerzeit)","3","21","0","1729713158175"
"762","j","SpeechGestureMatch","../RequiredFiles/videos/JaKopfJa_m_no_sound.mp4","Ist der Ball in der blauen Box?","Green","Blue","J","affirmation","na","gesture","na","HeadNod","male","speech-gesture","1500","1000","edge-chromium","60.93","Windows 10","22","female","right","Wed Oct 23 2024 21:27:25 GMT+0200 (Mitteleuropäische Sommerzeit)","3","22","0","1729713158175"
"1120","j","SpeechGestureMatch","../RequiredFiles/videos/JaKopfNein_f.mp4","Ist der Ball in der grünen Box?","Green","Blue","J","negation","mismatch","gesture","yes","HeadShake","female","speech-gesture","1500","1000","edge-chromium","60.93","Windows 10","22","female","right","Wed Oct 23 2024 21:27:32 GMT+0200 (Mitteleuropäische Sommerzeit)","3","23","0","1729713158175"
"815","j","SpeechGestureMatch","../RequiredFiles/videos/JaKopfJa_f.mp4","Ist der Ball in der grünen Box?","Blue","Green","J","affirmation","match","gesture","yes","HeadNod","female","speech-gesture","1500","1000","edge-chromium","60.93","Windows 10","22","female","right","Wed Oct 23 2024 21:27:38 GMT+0200 (Mitteleuropäische Sommerzeit)","3","24","0","1729713158175"
"852","f","SpeechGestureMatch","../RequiredFiles/videos/JaKopfJa_f.mp4","Ist der Ball in der grünen Box?","Green","Blue","F","affirmation","match","gesture","yes","HeadNod","female","speech-gesture","1500","1000","edge-chromium","60.93","Windows 10","22","female","right","Wed Oct 23 2024 21:27:45 GMT+0200 (Mitteleuropäische Sommerzeit)","3","25","0","1729713158175"
"899","j","SpeechGestureMatch","../RequiredFiles/videos/NeinKopfNein_f_no_sound.mp4","Ist der Ball in der blauen Box?","Blue","Green","J","negation","na","gesture","na","HeadShake","female","speech-gesture","1500","1000","edge-chromium","60.93","Windows 10","22","female","right","Wed Oct 23 2024 21:27:51 GMT+0200 (Mitteleuropäische Sommerzeit)","3","26","0","1729713158175"
"1057","j","SpeechGestureMatch","../RequiredFiles/videos/NeinKopfJa_m.mp4","Ist der Ball in der grünen Box?","Blue","Green","J","affirmation","mismatch","gesture","no","HeadNod","male","speech-gesture","1500","1000","edge-chromium","60.93","Windows 10","22","female","right","Wed Oct 23 2024 21:27:58 GMT+0200 (Mitteleuropäische Sommerzeit)","3","27","0","1729713158175"
"866","f","SpeechGestureMatch","../RequiredFiles/videos/NeinKopfNein_m.mp4","Ist der Ball in der grünen Box?","Blue","Green","F","negation","match","gesture","no","HeadShake","male","speech-gesture","1500","1000","edge-chromium","60.93","Windows 10","22","female","right","Wed Oct 23 2024 21:28:04 GMT+0200 (Mitteleuropäische Sommerzeit)","3","28","0","1729713158175"
"1132","j","SpeechGestureMatch","../RequiredFiles/videos/NeinKopfNein_f.mp4","Ist der Ball in der grünen Box?","Green","Blue","J","negation","match","gesture","no","HeadShake","female","speech-gesture","1500","1000","edge-chromium","60.93","Windows 10","22","female","right","Wed Oct 23 2024 21:28:11 GMT+0200 (Mitteleuropäische Sommerzeit)","3","29","0","1729713158175"
"834","f","SpeechGestureMatch","../RequiredFiles/videos/JaKopfNein_m.mp4","Ist der Ball in der grünen Box?","Blue","Green","F","negation","mismatch","gesture","yes","HeadShake","male","speech-gesture","1500","1000","edge-chromium","60.93","Windows 10","22","female","right","Wed Oct 23 2024 21:28:17 GMT+0200 (Mitteleuropäische Sommerzeit)","3","30","0","1729713158175"
"868","f","SpeechGestureMatch","../RequiredFiles/videos/NeinKopfNein_f.mp4","Ist der Ball in der grünen Box?","Blue","Green","F","negation","match","gesture","no","HeadShake","female","speech-gesture","1500","1000","edge-chromium","60.93","Windows 10","22","female","right","Wed Oct 23 2024 21:28:24 GMT+0200 (Mitteleuropäische Sommerzeit)","3","31","0","1729713158175"
"693","j","SpeechGestureMatch","../RequiredFiles/videos/NeinKopfJa_m_no_sound.mp4","Ist der Ball in der grünen Box?","Blue","Green","J","affirmation","na","gesture","na","HeadNod","male","speech-gesture","1500","1000","edge-chromium","60.93","Windows 10","22","female","right","Wed Oct 23 2024 21:28:30 GMT+0200 (Mitteleuropäische Sommerzeit)","3","32","0","1729713158175"
"845","j","SpeechGestureMatch","../RequiredFiles/videos/NeinKopfNein_m.mp4","Ist der Ball in der blauen Box?","Green","Blue","F","negation","match","gesture","no","HeadShake","male","speech-gesture","1500","1000","edge-chromium","60.93","Windows 10","22","female","right","Wed Oct 23 2024 21:28:36 GMT+0200 (Mitteleuropäische Sommerzeit)","3","33","1","1729713158175"
"954","j","SpeechGestureMatch","../RequiredFiles/videos/NeinKopfJa_m_no_sound.mp4","Ist der Ball in der blauen Box?","Green","Blue","J","affirmation","na","gesture","na","HeadNod","male","speech-gesture","1500","1000","edge-chromium","60.93","Windows 10","22","female","right","Wed Oct 23 2024 21:28:43 GMT+0200 (Mitteleuropäische Sommerzeit)","3","34","0","1729713158175"
"831","f","SpeechGestureMatch","../RequiredFiles/videos/NeinKopfJa_m.mp4","Ist der Ball in der blauen Box?","Blue","Green","F","affirmation","mismatch","gesture","no","HeadNod","male","speech-gesture","1500","1000","edge-chromium","60.93","Windows 10","22","female","right","Wed Oct 23 2024 21:28:49 GMT+0200 (Mitteleuropäische Sommerzeit)","3","35","0","1729713158175"
"764","j","SpeechGestureMatch","../RequiredFiles/videos/JaKopfNein_m_no_sound.mp4","Ist der Ball in der blauen Box?","Green","Blue","F","negation","na","gesture","na","HeadShake","male","speech-gesture","1500","1000","edge-chromium","60.93","Windows 10","22","female","right","Wed Oct 23 2024 21:28:56 GMT+0200 (Mitteleuropäische Sommerzeit)","3","36","1","1729713158175"
"955","f","SpeechGestureMatch","../RequiredFiles/videos/JaKopfNein_f.mp4","Ist der Ball in der blauen Box?","Green","Blue","F","negation","mismatch","gesture","yes","HeadShake","female","speech-gesture","1500","1000","edge-chromium","60.93","Windows 10","22","female","right","Wed Oct 23 2024 21:29:02 GMT+0200 (Mitteleuropäische Sommerzeit)","3","37","0","1729713158175"
"1015","j","SpeechGestureMatch","../RequiredFiles/videos/JaKopfJa_m.mp4","Ist der Ball in der blauen Box?","Green","Blue","J","affirmation","match","gesture","yes","HeadNod","male","speech-gesture","1500","1000","edge-chromium","60.93","Windows 10","22","female","right","Wed Oct 23 2024 21:29:09 GMT+0200 (Mitteleuropäische Sommerzeit)","3","38","0","1729713158175"
"873","j","SpeechGestureMatch","../RequiredFiles/videos/NeinKopfNein_f.mp4","Ist der Ball in der blauen Box?","Blue","Green","J","negation","match","gesture","no","HeadShake","female","speech-gesture","1500","1000","edge-chromium","60.93","Windows 10","22","female","right","Wed Oct 23 2024 21:29:15 GMT+0200 (Mitteleuropäische Sommerzeit)","3","39","0","1729713158175"
"904","j","SpeechGestureMatch","../RequiredFiles/videos/JaKopfNein_m.mp4","Ist der Ball in der grünen Box?","Green","Blue","J","negation","mismatch","gesture","yes","HeadShake","male","speech-gesture","1500","1000","edge-chromium","60.93","Windows 10","22","female","right","Wed Oct 23 2024 21:29:22 GMT+0200 (Mitteleuropäische Sommerzeit)","3","40","0","1729713158175"
"696","f","SpeechGestureMatch","../RequiredFiles/videos/JaKopfJa_m.mp4","Ist der Ball in der grünen Box?","Green","Blue","F","affirmation","match","gesture","yes","HeadNod","male","speech-gesture","1500","1000","edge-chromium","60.93","Windows 10","22","female","right","Wed Oct 23 2024 21:29:28 GMT+0200 (Mitteleuropäische Sommerzeit)","3","41","0","1729713158175"
"1274","f","SpeechGestureMatch","../RequiredFiles/videos/NeinKopfNein_f_no_sound.mp4","Ist der Ball in der grünen Box?","Blue","Green","F","negation","na","gesture","na","HeadShake","female","speech-gesture","1500","1000","edge-chromium","60.93","Windows 10","22","female","right","Wed Oct 23 2024 21:29:35 GMT+0200 (Mitteleuropäische Sommerzeit)","3","42","0","1729713158175"
"713","f","SpeechGestureMatch","../RequiredFiles/videos/NeinKopfNein_m.mp4","Ist der Ball in der grünen Box?","Green","Blue","J","negation","match","gesture","no","HeadShake","male","speech-gesture","1500","1000","edge-chromium","60.93","Windows 10","22","female","right","Wed Oct 23 2024 21:29:41 GMT+0200 (Mitteleuropäische Sommerzeit)","3","43","1","1729713158175"
"1064","j","SpeechGestureMatch","../RequiredFiles/videos/NeinKopfNein_f.mp4","Ist der Ball in der grünen Box?","Green","Blue","J","negation","match","gesture","no","HeadShake","female","speech-gesture","1500","1000","edge-chromium","60.93","Windows 10","22","female","right","Wed Oct 23 2024 21:29:48 GMT+0200 (Mitteleuropäische Sommerzeit)","3","44","0","1729713158175"
"830","f","SpeechGestureMatch","../RequiredFiles/videos/JaKopfNein_m.mp4","Ist der Ball in der blauen Box?","Green","Blue","F","negation","mismatch","gesture","yes","HeadShake","male","speech-gesture","1500","1000","edge-chromium","60.93","Windows 10","22","female","right","Wed Oct 23 2024 21:29:54 GMT+0200 (Mitteleuropäische Sommerzeit)","3","45","0","1729713158175"
"1009","j","SpeechGestureMatch","../RequiredFiles/videos/NeinKopfNein_m.mp4","Ist der Ball in der blauen Box?","Blue","Green","J","negation","match","gesture","no","HeadShake","male","speech-gesture","1500","1000","edge-chromium","60.93","Windows 10","22","female","right","Wed Oct 23 2024 21:30:01 GMT+0200 (Mitteleuropäische Sommerzeit)","3","46","0","1729713158175"
"706","j","SpeechGestureMatch","../RequiredFiles/videos/JaKopfNein_f.mp4","Ist der Ball in der grünen Box?","Green","Blue","J","negation","mismatch","gesture","yes","HeadShake","female","speech-gesture","1500","1000","edge-chromium","60.93","Windows 10","22","female","right","Wed Oct 23 2024 21:30:07 GMT+0200 (Mitteleuropäische Sommerzeit)","3","47","0","1729713158175"
"1064","f","SpeechGestureMatch","../RequiredFiles/videos/NeinKopfJa_f.mp4","Ist der Ball in der grünen Box?","Blue","Green","J","affirmation","mismatch","gesture","no","HeadNod","female","speech-gesture","1500","1000","edge-chromium","60.93","Windows 10","22","female","right","Wed Oct 23 2024 21:30:13 GMT+0200 (Mitteleuropäische Sommerzeit)","3","48","1","1729713158175"
"897","f","SpeechGestureMatch","../RequiredFiles/videos/JaKopfJa_f.mp4","Ist der Ball in der blauen Box?","Blue","Green","F","affirmation","match","gesture","yes","HeadNod","female","speech-gesture","1500","1000","edge-chromium","60.93","Windows 10","22","female","right","Wed Oct 23 2024 21:30:20 GMT+0200 (Mitteleuropäische Sommerzeit)","3","49","0","1729713158175"
"708","j","SpeechGestureMatch","../RequiredFiles/videos/JaKopfJa_f_no_sound.mp4","Ist der Ball in der blauen Box?","Green","Blue","J","affirmation","na","gesture","na","HeadNod","female","speech-gesture","1500","1000","edge-chromium","60.93","Windows 10","22","female","right","Wed Oct 23 2024 21:30:26 GMT+0200 (Mitteleuropäische Sommerzeit)","3","50","0","1729713158175"
"1227","j","SpeechGestureMatch","../RequiredFiles/videos/JaKopfNein_f.mp4","Ist der Ball in der blauen Box?","Blue","Green","J","negation","mismatch","gesture","yes","HeadShake","female","speech-gesture","1500","1000","edge-chromium","60.93","Windows 10","22","female","right","Wed Oct 23 2024 21:30:33 GMT+0200 (Mitteleuropäische Sommerzeit)","3","51","0","1729713158175"
"793","f","SpeechGestureMatch","../RequiredFiles/videos/NeinKopfJa_m.mp4","Ist der Ball in der grünen Box?","Blue","Green","J","affirmation","mismatch","gesture","no","HeadNod","male","speech-gesture","1500","1000","edge-chromium","60.93","Windows 10","22","female","right","Wed Oct 23 2024 21:30:39 GMT+0200 (Mitteleuropäische Sommerzeit)","3","52","1","1729713158175"
"796","j","SpeechGestureMatch","../RequiredFiles/videos/JaKopfJa_f.mp4","Ist der Ball in der blauen Box?","Green","Blue","J","affirmation","match","gesture","yes","HeadNod","female","speech-gesture","1500","1000","edge-chromium","60.93","Windows 10","22","female","right","Wed Oct 23 2024 21:30:46 GMT+0200 (Mitteleuropäische Sommerzeit)","3","53","0","1729713158175"
"870","j","SpeechGestureMatch","../RequiredFiles/videos/JaKopfNein_f_no_sound.mp4","Ist der Ball in der grünen Box?","Blue","Green","F","negation","na","gesture","na","HeadShake","female","speech-gesture","1500","1000","edge-chromium","60.93","Windows 10","22","female","right","Wed Oct 23 2024 21:30:52 GMT+0200 (Mitteleuropäische Sommerzeit)","3","54","1","1729713158175"
"990","j","SpeechGestureMatch","../RequiredFiles/videos/JaKopfNein_f_no_sound.mp4","Ist der Ball in der grünen Box?","Green","Blue","J","negation","na","gesture","na","HeadShake","female","speech-gesture","1500","1000","edge-chromium","60.93","Windows 10","22","female","right","Wed Oct 23 2024 21:30:59 GMT+0200 (Mitteleuropäische Sommerzeit)","3","55","0","1729713158175"
"1135","f","SpeechGestureMatch","../RequiredFiles/videos/JaKopfJa_m.mp4","Ist der Ball in der blauen Box?","Blue","Green","F","affirmation","match","gesture","yes","HeadNod","male","speech-gesture","1500","1000","edge-chromium","60.93","Windows 10","22","female","right","Wed Oct 23 2024 21:31:05 GMT+0200 (Mitteleuropäische Sommerzeit)","3","56","0","1729713158175"
"874","j","SpeechGestureMatch","../RequiredFiles/videos/NeinKopfNein_m_no_sound.mp4","Ist der Ball in der grünen Box?","Green","Blue","J","negation","na","gesture","na","HeadShake","male","speech-gesture","1500","1000","edge-chromium","60.93","Windows 10","22","female","right","Wed Oct 23 2024 21:31:12 GMT+0200 (Mitteleuropäische Sommerzeit)","3","57","0","1729713158175"
"1027","f","SpeechGestureMatch","../RequiredFiles/videos/NeinKopfNein_f.mp4","Ist der Ball in der blauen Box?","Green","Blue","F","negation","match","gesture","no","HeadShake","female","speech-gesture","1500","1000","edge-chromium","60.93","Windows 10","22","female","right","Wed Oct 23 2024 21:31:18 GMT+0200 (Mitteleuropäische Sommerzeit)","3","58","0","1729713158175"
"1046","j","SpeechGestureMatch","../RequiredFiles/videos/JaKopfJa_f.mp4","Ist der Ball in der grünen Box?","Blue","Green","J","affirmation","match","gesture","yes","HeadNod","female","speech-gesture","1500","1000","edge-chromium","60.93","Windows 10","22","female","right","Wed Oct 23 2024 21:31:25 GMT+0200 (Mitteleuropäische Sommerzeit)","3","59","0","1729713158175"
"866","j","SpeechGestureMatch","../RequiredFiles/videos/NeinKopfJa_f_no_sound.mp4","Ist der Ball in der grünen Box?","Blue","Green","J","affirmation","na","gesture","na","HeadNod","female","speech-gesture","1500","1000","edge-chromium","60.93","Windows 10","22","female","right","Wed Oct 23 2024 21:31:31 GMT+0200 (Mitteleuropäische Sommerzeit)","3","60","0","1729713158175"
"1389","j","SpeechGestureMatch","../RequiredFiles/videos/JaKopfNein_m.mp4","Ist der Ball in der grünen Box?","Green","Blue","J","negation","mismatch","gesture","yes","HeadShake","male","speech-gesture","1500","1000","edge-chromium","60.93","Windows 10","22","female","right","Wed Oct 23 2024 21:31:38 GMT+0200 (Mitteleuropäische Sommerzeit)","3","61","0","1729713158175"
"953","f","SpeechGestureMatch","../RequiredFiles/videos/JaKopfNein_f.mp4","Ist der Ball in der blauen Box?","Green","Blue","F","negation","mismatch","gesture","yes","HeadShake","female","speech-gesture","1500","1000","edge-chromium","60.93","Windows 10","22","female","right","Wed Oct 23 2024 21:31:45 GMT+0200 (Mitteleuropäische Sommerzeit)","3","62","0","1729713158175"
"709","f","SpeechGestureMatch","../RequiredFiles/videos/NeinKopfNein_m_no_sound.mp4","Ist der Ball in der blauen Box?","Green","Blue","F","negation","na","gesture","na","HeadShake","male","speech-gesture","1500","1000","edge-chromium","60.93","Windows 10","22","female","right","Wed Oct 23 2024 21:31:51 GMT+0200 (Mitteleuropäische Sommerzeit)","3","63","0","1729713158175"
"771","f","SpeechGestureMatch","../RequiredFiles/videos/NeinKopfJa_f_no_sound.mp4","Ist der Ball in der blauen Box?","Blue","Green","F","affirmation","na","gesture","na","HeadNod","female","speech-gesture","1500","1000","edge-chromium","60.93","Windows 10","22","female","right","Wed Oct 23 2024 21:31:57 GMT+0200 (Mitteleuropäische Sommerzeit)","3","64","0","1729713158175"
"830","f","SpeechGestureMatch","../RequiredFiles/videos/JaKopfNein_f_no_sound.mp4","Ist der Ball in der blauen Box?","Green","Blue","F","negation","na","gesture","na","HeadShake","female","speech-gesture","1500","1000","edge-chromium","60.93","Windows 10","22","female","right","Wed Oct 23 2024 21:32:04 GMT+0200 (Mitteleuropäische Sommerzeit)","3","65","0","1729713158175"
"1021","j","SpeechGestureMatch","../RequiredFiles/videos/JaKopfJa_m.mp4","Ist der Ball in der blauen Box?","Green","Blue","J","affirmation","match","gesture","yes","HeadNod","male","speech-gesture","1500","1000","edge-chromium","60.93","Windows 10","22","female","right","Wed Oct 23 2024 21:32:10 GMT+0200 (Mitteleuropäische Sommerzeit)","3","66","0","1729713158175"
"892","f","SpeechGestureMatch","../RequiredFiles/videos/JaKopfNein_m_no_sound.mp4","Ist der Ball in der grünen Box?","Blue","Green","F","negation","na","gesture","na","HeadShake","male","speech-gesture","1500","1000","edge-chromium","60.93","Windows 10","22","female","right","Wed Oct 23 2024 21:32:17 GMT+0200 (Mitteleuropäische Sommerzeit)","3","67","0","1729713158175"
"880","j","SpeechGestureMatch","../RequiredFiles/videos/NeinKopfJa_f_no_sound.mp4","Ist der Ball in der blauen Box?","Green","Blue","J","affirmation","na","gesture","na","HeadNod","female","speech-gesture","1500","1000","edge-chromium","60.93","Windows 10","22","female","right","Wed Oct 23 2024 21:32:23 GMT+0200 (Mitteleuropäische Sommerzeit)","3","68","0","1729713158175"
"1002","f","SpeechGestureMatch","../RequiredFiles/videos/NeinKopfNein_m.mp4","Ist der Ball in der blauen Box?","Green","Blue","F","negation","match","gesture","no","HeadShake","male","speech-gesture","1500","1000","edge-chromium","60.93","Windows 10","22","female","right","Wed Oct 23 2024 21:32:30 GMT+0200 (Mitteleuropäische Sommerzeit)","3","69","0","1729713158175"
"900","j","SpeechGestureMatch","../RequiredFiles/videos/JaKopfNein_m_no_sound.mp4","Ist der Ball in der grünen Box?","Green","Blue","J","negation","na","gesture","na","HeadShake","male","speech-gesture","1500","1000","edge-chromium","60.93","Windows 10","22","female","right","Wed Oct 23 2024 21:32:36 GMT+0200 (Mitteleuropäische Sommerzeit)","3","70","0","1729713158175"
"1182","j","SpeechGestureMatch","../RequiredFiles/videos/NeinKopfJa_f.mp4","Ist der Ball in der blauen Box?","Blue","Green","F","affirmation","mismatch","gesture","no","HeadNod","female","speech-gesture","1500","1000","edge-chromium","60.93","Windows 10","22","female","right","Wed Oct 23 2024 21:32:43 GMT+0200 (Mitteleuropäische Sommerzeit)","3","71","1","1729713158175"
"979","j","SpeechGestureMatch","../RequiredFiles/videos/JaKopfNein_f_no_sound.mp4","Ist der Ball in der blauen Box?","Blue","Green","J","negation","na","gesture","na","HeadShake","female","speech-gesture","1500","1000","edge-chromium","60.93","Windows 10","22","female","right","Wed Oct 23 2024 21:32:49 GMT+0200 (Mitteleuropäische Sommerzeit)","3","72","0","1729713158175"
"851","f","SpeechGestureMatch","../RequiredFiles/videos/JaKopfJa_m_no_sound.mp4","Ist der Ball in der blauen Box?","Blue","Green","F","affirmation","na","gesture","na","HeadNod","male","speech-gesture","1500","1000","edge-chromium","60.93","Windows 10","22","female","right","Wed Oct 23 2024 21:32:56 GMT+0200 (Mitteleuropäische Sommerzeit)","3","73","0","1729713158175"
"1231","j","SpeechGestureMatch","../RequiredFiles/videos/NeinKopfNein_f.mp4","Ist der Ball in der grünen Box?","Blue","Green","F","negation","match","gesture","no","HeadShake","female","speech-gesture","1500","1000","edge-chromium","60.93","Windows 10","22","female","right","Wed Oct 23 2024 21:33:03 GMT+0200 (Mitteleuropäische Sommerzeit)","3","74","1","1729713158175"
"835","f","SpeechGestureMatch","../RequiredFiles/videos/NeinKopfJa_f.mp4","Ist der Ball in der blauen Box?","Green","Blue","J","affirmation","mismatch","gesture","no","HeadNod","female","speech-gesture","1500","1000","edge-chromium","60.93","Windows 10","22","female","right","Wed Oct 23 2024 21:33:09 GMT+0200 (Mitteleuropäische Sommerzeit)","3","75","1","1729713158175"
"795","f","SpeechGestureMatch","../RequiredFiles/videos/NeinKopfJa_f_no_sound.mp4","Ist der Ball in der grünen Box?","Green","Blue","F","affirmation","na","gesture","na","HeadNod","female","speech-gesture","1500","1000","edge-chromium","60.93","Windows 10","22","female","right","Wed Oct 23 2024 21:33:15 GMT+0200 (Mitteleuropäische Sommerzeit)","3","76","0","1729713158175"
"1103","f","SpeechGestureMatch","../RequiredFiles/videos/JaKopfNein_f.mp4","Ist der Ball in der grünen Box?","Blue","Green","F","negation","mismatch","gesture","yes","HeadShake","female","speech-gesture","1500","1000","edge-chromium","60.93","Windows 10","22","female","right","Wed Oct 23 2024 21:33:22 GMT+0200 (Mitteleuropäische Sommerzeit)","3","77","0","1729713158175"
