"rt","response","stim","video","question","box_colour_left","box_colour_right","correct_key","polarity","matching","modality","verbal","gesture","speaker","order","width","height","browser","vsync_rate","os","age","gender","handedness","date","blockNum","trialNum","error","vpNum"
"2101","j","SpeechGestureMatch","../RequiredFiles/videos/NeinKopfNein_f.mp4","Ist der Ball in der blauen Box?","Blue","Green","J","negation","match","gesture","no","HeadShake","female","gesture-speech","1536","864","firefox","61.1","Windows 10","20","female","right","Wed Oct 23 2024 11:52:26 GMT+0200 (Mitteleuropäische Sommerzeit)","1","1","0","1729680924843"
"947","f","SpeechGestureMatch","../RequiredFiles/videos/JaKopfJa_f.mp4","Ist der Ball in der grünen Box?","Green","Blue","F","affirmation","match","gesture","yes","HeadNod","female","gesture-speech","1536","864","firefox","61.1","Windows 10","20","female","right","Wed Oct 23 2024 11:52:33 GMT+0200 (Mitteleuropäische Sommerzeit)","1","2","0","1729680924843"
"936","f","SpeechGestureMatch","../RequiredFiles/videos/NeinKopfNein_f_no_sound.mp4","Ist der Ball in der grünen Box?","Blue","Green","F","negation","na","gesture","na","HeadShake","female","gesture-speech","1536","864","firefox","61.1","Windows 10","20","female","right","Wed Oct 23 2024 11:52:39 GMT+0200 (Mitteleuropäische Sommerzeit)","1","3","0","1729680924843"
"2062","j","SpeechGestureMatch","../RequiredFiles/videos/NeinKopfJa_m.mp4","Ist der Ball in der blauen Box?","Green","Blue","J","affirmation","mismatch","gesture","no","HeadNod","male","gesture-speech","1536","864","firefox","61.1","Windows 10","20","female","right","Wed Oct 23 2024 11:52:47 GMT+0200 (Mitteleuropäische Sommerzeit)","1","4","0","1729680924843"
"785","f","SpeechGestureMatch","../RequiredFiles/videos/JaKopfJa_f_no_sound.mp4","Ist der Ball in der blauen Box?","Blue","Green","F","affirmation","na","gesture","na","HeadNod","female","gesture-speech","1536","864","firefox","61.1","Windows 10","20","female","right","Wed Oct 23 2024 11:52:53 GMT+0200 (Mitteleuropäische Sommerzeit)","1","5","0","1729680924843"
"697","j","SpeechGestureMatch","../RequiredFiles/videos/NeinKopfJa_m_no_sound.mp4","Ist der Ball in der blauen Box?","Green","Blue","J","affirmation","na","gesture","na","HeadNod","male","gesture-speech","1536","864","firefox","61.1","Windows 10","20","female","right","Wed Oct 23 2024 11:52:59 GMT+0200 (Mitteleuropäische Sommerzeit)","1","6","0","1729680924843"
"1898","j","SpeechGestureMatch","../RequiredFiles/videos/JaKopfNein_m.mp4","Ist der Ball in der grünen Box?","Green","Blue","J","negation","mismatch","gesture","yes","HeadShake","male","gesture-speech","1536","864","firefox","61.1","Windows 10","20","female","right","Wed Oct 23 2024 11:53:07 GMT+0200 (Mitteleuropäische Sommerzeit)","1","7","0","1729680924843"
"1148","j","SpeechGestureMatch","../RequiredFiles/videos/NeinKopfNein_f.mp4","Ist der Ball in der blauen Box?","Blue","Green","J","negation","match","gesture","no","HeadShake","female","gesture-speech","1536","864","firefox","61.1","Windows 10","20","female","right","Wed Oct 23 2024 11:53:14 GMT+0200 (Mitteleuropäische Sommerzeit)","1","8","0","1729680924843"
"807","j","SpeechGestureMatch","../RequiredFiles/videos/JaKopfJa_m_no_sound.mp4","Ist der Ball in der grünen Box?","Blue","Green","J","affirmation","na","gesture","na","HeadNod","male","gesture-speech","1536","864","firefox","61.1","Windows 10","20","female","right","Wed Oct 23 2024 11:53:20 GMT+0200 (Mitteleuropäische Sommerzeit)","1","9","0","1729680924843"
"1619","f","SpeechGestureMatch","../RequiredFiles/videos/NeinKopfJa_f.mp4","Ist der Ball in der grünen Box?","Green","Blue","F","affirmation","mismatch","gesture","no","HeadNod","female","gesture-speech","1536","864","firefox","61.1","Windows 10","20","female","right","Wed Oct 23 2024 11:53:27 GMT+0200 (Mitteleuropäische Sommerzeit)","1","10","0","1729680924843"
"900","f","SpeechGestureMatch","../RequiredFiles/videos/JaKopfNein_m_no_sound.mp4","Ist der Ball in der grünen Box?","Blue","Green","F","negation","na","gesture","na","HeadShake","male","gesture-speech","1536","864","firefox","61.1","Windows 10","20","female","right","Wed Oct 23 2024 11:53:34 GMT+0200 (Mitteleuropäische Sommerzeit)","1","11","0","1729680924843"
"1013","j","SpeechGestureMatch","../RequiredFiles/videos/JaKopfNein_m_no_sound.mp4","Ist der Ball in der grünen Box?","Green","Blue","J","negation","na","gesture","na","HeadShake","male","gesture-speech","1536","864","firefox","61.1","Windows 10","20","female","right","Wed Oct 23 2024 11:53:40 GMT+0200 (Mitteleuropäische Sommerzeit)","1","12","0","1729680924843"
"1479","f","SpeechGestureMatch","../RequiredFiles/videos/NeinKopfNein_m.mp4","Ist der Ball in der blauen Box?","Green","Blue","F","negation","match","gesture","no","HeadShake","male","gesture-speech","1536","864","firefox","61.1","Windows 10","20","female","right","Wed Oct 23 2024 11:53:47 GMT+0200 (Mitteleuropäische Sommerzeit)","1","13","0","1729680924843"
"837","f","SpeechGestureMatch","../RequiredFiles/videos/NeinKopfNein_m_no_sound.mp4","Ist der Ball in der blauen Box?","Green","Blue","F","negation","na","gesture","na","HeadShake","male","gesture-speech","1536","864","firefox","61.1","Windows 10","20","female","right","Wed Oct 23 2024 11:53:54 GMT+0200 (Mitteleuropäische Sommerzeit)","1","14","0","1729680924843"
"804","j","SpeechGestureMatch","../RequiredFiles/videos/JaKopfJa_m_no_sound.mp4","Ist der Ball in der blauen Box?","Green","Blue","J","affirmation","na","gesture","na","HeadNod","male","gesture-speech","1536","864","firefox","61.1","Windows 10","20","female","right","Wed Oct 23 2024 11:54:00 GMT+0200 (Mitteleuropäische Sommerzeit)","1","15","0","1729680924843"
"7097","j","SpeechGestureMatch","../RequiredFiles/videos/NeinKopfNein_m.mp4","Ist der Ball in der grünen Box?","Green","Blue","J","negation","match","gesture","no","HeadShake","male","gesture-speech","1536","864","firefox","61.1","Windows 10","20","female","right","Wed Oct 23 2024 11:54:13 GMT+0200 (Mitteleuropäische Sommerzeit)","1","16","0","1729680924843"
"946","f","SpeechGestureMatch","../RequiredFiles/videos/NeinKopfJa_m_no_sound.mp4","Ist der Ball in der grünen Box?","Green","Blue","F","affirmation","na","gesture","na","HeadNod","male","gesture-speech","1536","864","firefox","61.1","Windows 10","20","female","right","Wed Oct 23 2024 11:54:19 GMT+0200 (Mitteleuropäische Sommerzeit)","1","17","0","1729680924843"
"1965","j","SpeechGestureMatch","../RequiredFiles/videos/JaKopfNein_m.mp4","Ist der Ball in der grünen Box?","Green","Blue","J","negation","mismatch","gesture","yes","HeadShake","male","gesture-speech","1536","864","firefox","61.1","Windows 10","20","female","right","Wed Oct 23 2024 11:54:27 GMT+0200 (Mitteleuropäische Sommerzeit)","1","18","0","1729680924843"
"1122","j","SpeechGestureMatch","../RequiredFiles/videos/JaKopfNein_f.mp4","Ist der Ball in der grünen Box?","Green","Blue","J","negation","mismatch","gesture","yes","HeadShake","female","gesture-speech","1536","864","firefox","61.1","Windows 10","20","female","right","Wed Oct 23 2024 11:54:34 GMT+0200 (Mitteleuropäische Sommerzeit)","1","19","0","1729680924843"
"767","f","SpeechGestureMatch","../RequiredFiles/videos/JaKopfJa_f.mp4","Ist der Ball in der grünen Box?","Green","Blue","F","affirmation","match","gesture","yes","HeadNod","female","gesture-speech","1536","864","firefox","61.1","Windows 10","20","female","right","Wed Oct 23 2024 11:54:40 GMT+0200 (Mitteleuropäische Sommerzeit)","1","20","0","1729680924843"
"1185","f","SpeechGestureMatch","../RequiredFiles/videos/NeinKopfJa_m.mp4","Ist der Ball in der grünen Box?","Green","Blue","F","affirmation","mismatch","gesture","no","HeadNod","male","gesture-speech","1536","864","firefox","61.1","Windows 10","20","female","right","Wed Oct 23 2024 11:54:47 GMT+0200 (Mitteleuropäische Sommerzeit)","1","21","0","1729680924843"
"725","f","SpeechGestureMatch","../RequiredFiles/videos/JaKopfJa_f.mp4","Ist der Ball in der blauen Box?","Blue","Green","F","affirmation","match","gesture","yes","HeadNod","female","gesture-speech","1536","864","firefox","61.1","Windows 10","20","female","right","Wed Oct 23 2024 11:54:53 GMT+0200 (Mitteleuropäische Sommerzeit)","1","22","0","1729680924843"
"681","f","SpeechGestureMatch","../RequiredFiles/videos/JaKopfJa_f_no_sound.mp4","Ist der Ball in der grünen Box?","Green","Blue","F","affirmation","na","gesture","na","HeadNod","female","gesture-speech","1536","864","firefox","61.1","Windows 10","20","female","right","Wed Oct 23 2024 11:54:59 GMT+0200 (Mitteleuropäische Sommerzeit)","1","23","0","1729680924843"
"2418","f","SpeechGestureMatch","../RequiredFiles/videos/NeinKopfJa_m.mp4","Ist der Ball in der blauen Box?","Blue","Green","F","affirmation","mismatch","gesture","no","HeadNod","male","gesture-speech","1536","864","firefox","61.1","Windows 10","20","female","right","Wed Oct 23 2024 11:55:07 GMT+0200 (Mitteleuropäische Sommerzeit)","1","24","0","1729680924843"
"1675","j","SpeechGestureMatch","../RequiredFiles/videos/JaKopfJa_f.mp4","Ist der Ball in der blauen Box?","Green","Blue","J","affirmation","match","gesture","yes","HeadNod","female","gesture-speech","1536","864","firefox","61.1","Windows 10","20","female","right","Wed Oct 23 2024 11:55:14 GMT+0200 (Mitteleuropäische Sommerzeit)","1","25","0","1729680924843"
"1023","f","SpeechGestureMatch","../RequiredFiles/videos/JaKopfNein_f.mp4","Ist der Ball in der blauen Box?","Green","Blue","F","negation","mismatch","gesture","yes","HeadShake","female","gesture-speech","1536","864","firefox","61.1","Windows 10","20","female","right","Wed Oct 23 2024 11:55:21 GMT+0200 (Mitteleuropäische Sommerzeit)","1","26","0","1729680924843"
"963","j","SpeechGestureMatch","../RequiredFiles/videos/JaKopfNein_f_no_sound.mp4","Ist der Ball in der grünen Box?","Green","Blue","J","negation","na","gesture","na","HeadShake","female","gesture-speech","1536","864","firefox","61.1","Windows 10","20","female","right","Wed Oct 23 2024 11:55:28 GMT+0200 (Mitteleuropäische Sommerzeit)","1","27","0","1729680924843"
"1936","f","SpeechGestureMatch","../RequiredFiles/videos/NeinKopfJa_m.mp4","Ist der Ball in der grünen Box?","Green","Blue","F","affirmation","mismatch","gesture","no","HeadNod","male","gesture-speech","1536","864","firefox","61.1","Windows 10","20","female","right","Wed Oct 23 2024 11:55:35 GMT+0200 (Mitteleuropäische Sommerzeit)","1","28","0","1729680924843"
"997","j","SpeechGestureMatch","../RequiredFiles/videos/JaKopfNein_m.mp4","Ist der Ball in der blauen Box?","Blue","Green","J","negation","mismatch","gesture","yes","HeadShake","male","gesture-speech","1536","864","firefox","61.1","Windows 10","20","female","right","Wed Oct 23 2024 11:55:42 GMT+0200 (Mitteleuropäische Sommerzeit)","1","29","0","1729680924843"
"1091","f","SpeechGestureMatch","../RequiredFiles/videos/NeinKopfJa_f.mp4","Ist der Ball in der blauen Box?","Blue","Green","F","affirmation","mismatch","gesture","no","HeadNod","female","gesture-speech","1536","864","firefox","61.1","Windows 10","20","female","right","Wed Oct 23 2024 11:55:48 GMT+0200 (Mitteleuropäische Sommerzeit)","1","30","0","1729680924843"
"899","f","SpeechGestureMatch","../RequiredFiles/videos/JaKopfNein_m_no_sound.mp4","Ist der Ball in der blauen Box?","Green","Blue","F","negation","na","gesture","na","HeadShake","male","gesture-speech","1536","864","firefox","61.1","Windows 10","20","female","right","Wed Oct 23 2024 11:55:55 GMT+0200 (Mitteleuropäische Sommerzeit)","1","31","0","1729680924843"
"1908","j","SpeechGestureMatch","../RequiredFiles/videos/NeinKopfJa_f.mp4","Ist der Ball in der grünen Box?","Blue","Green","J","affirmation","mismatch","gesture","no","HeadNod","female","gesture-speech","1536","864","firefox","61.1","Windows 10","20","female","right","Wed Oct 23 2024 11:56:02 GMT+0200 (Mitteleuropäische Sommerzeit)","1","32","0","1729680924843"
"1061","j","SpeechGestureMatch","../RequiredFiles/videos/NeinKopfJa_m_no_sound.mp4","Ist der Ball in der grünen Box?","Blue","Green","J","affirmation","na","gesture","na","HeadNod","male","gesture-speech","1536","864","firefox","61.1","Windows 10","20","female","right","Wed Oct 23 2024 11:56:09 GMT+0200 (Mitteleuropäische Sommerzeit)","1","33","0","1729680924843"
"854","j","SpeechGestureMatch","../RequiredFiles/videos/JaKopfNein_m_no_sound.mp4","Ist der Ball in der blauen Box?","Blue","Green","J","negation","na","gesture","na","HeadShake","male","gesture-speech","1536","864","firefox","61.1","Windows 10","20","female","right","Wed Oct 23 2024 11:56:15 GMT+0200 (Mitteleuropäische Sommerzeit)","1","34","0","1729680924843"
"918","f","SpeechGestureMatch","../RequiredFiles/videos/JaKopfNein_f_no_sound.mp4","Ist der Ball in der blauen Box?","Green","Blue","F","negation","na","gesture","na","HeadShake","female","gesture-speech","1536","864","firefox","61.1","Windows 10","20","female","right","Wed Oct 23 2024 11:56:22 GMT+0200 (Mitteleuropäische Sommerzeit)","1","35","0","1729680924843"
"2103","j","SpeechGestureMatch","../RequiredFiles/videos/NeinKopfNein_f.mp4","Ist der Ball in der grünen Box?","Green","Blue","J","negation","match","gesture","no","HeadShake","female","gesture-speech","1536","864","firefox","61.1","Windows 10","20","female","right","Wed Oct 23 2024 11:56:30 GMT+0200 (Mitteleuropäische Sommerzeit)","1","36","0","1729680924843"
"857","f","SpeechGestureMatch","../RequiredFiles/videos/JaKopfJa_m.mp4","Ist der Ball in der grünen Box?","Green","Blue","F","affirmation","match","gesture","yes","HeadNod","male","gesture-speech","1536","864","firefox","61.1","Windows 10","20","female","right","Wed Oct 23 2024 11:56:36 GMT+0200 (Mitteleuropäische Sommerzeit)","1","37","0","1729680924843"
"817","j","SpeechGestureMatch","../RequiredFiles/videos/JaKopfNein_m.mp4","Ist der Ball in der blauen Box?","Blue","Green","J","negation","mismatch","gesture","yes","HeadShake","male","gesture-speech","1536","864","firefox","61.1","Windows 10","20","female","right","Wed Oct 23 2024 11:56:43 GMT+0200 (Mitteleuropäische Sommerzeit)","1","38","0","1729680924843"
"735","f","SpeechGestureMatch","../RequiredFiles/videos/JaKopfJa_f_no_sound.mp4","Ist der Ball in der blauen Box?","Green","Blue","J","affirmation","na","gesture","na","HeadNod","female","gesture-speech","1536","864","firefox","61.1","Windows 10","20","female","right","Wed Oct 23 2024 11:56:49 GMT+0200 (Mitteleuropäische Sommerzeit)","1","39","1","1729680924843"
"822","j","SpeechGestureMatch","../RequiredFiles/videos/NeinKopfNein_m_no_sound.mp4","Ist der Ball in der grünen Box?","Green","Blue","J","negation","na","gesture","na","HeadShake","male","gesture-speech","1536","864","firefox","61.1","Windows 10","20","female","right","Wed Oct 23 2024 11:56:55 GMT+0200 (Mitteleuropäische Sommerzeit)","1","40","0","1729680924843"
"831","j","SpeechGestureMatch","../RequiredFiles/videos/NeinKopfNein_m_no_sound.mp4","Ist der Ball in der blauen Box?","Blue","Green","J","negation","na","gesture","na","HeadShake","male","gesture-speech","1536","864","firefox","61.1","Windows 10","20","female","right","Wed Oct 23 2024 11:57:02 GMT+0200 (Mitteleuropäische Sommerzeit)","1","41","0","1729680924843"
"1771","f","SpeechGestureMatch","../RequiredFiles/videos/JaKopfNein_m.mp4","Ist der Ball in der grünen Box?","Blue","Green","F","negation","mismatch","gesture","yes","HeadShake","male","gesture-speech","1536","864","firefox","61.1","Windows 10","20","female","right","Wed Oct 23 2024 11:57:09 GMT+0200 (Mitteleuropäische Sommerzeit)","1","42","0","1729680924843"
"865","f","SpeechGestureMatch","../RequiredFiles/videos/NeinKopfJa_f.mp4","Ist der Ball in der grünen Box?","Blue","Green","J","affirmation","mismatch","gesture","no","HeadNod","female","gesture-speech","1536","864","firefox","61.1","Windows 10","20","female","right","Wed Oct 23 2024 11:57:15 GMT+0200 (Mitteleuropäische Sommerzeit)","1","43","1","1729680924843"
"884","j","SpeechGestureMatch","../RequiredFiles/videos/JaKopfNein_f.mp4","Ist der Ball in der blauen Box?","Blue","Green","J","negation","mismatch","gesture","yes","HeadShake","female","gesture-speech","1536","864","firefox","61.1","Windows 10","20","female","right","Wed Oct 23 2024 11:57:22 GMT+0200 (Mitteleuropäische Sommerzeit)","1","44","0","1729680924843"
"915","f","SpeechGestureMatch","../RequiredFiles/videos/JaKopfJa_m.mp4","Ist der Ball in der blauen Box?","Blue","Green","F","affirmation","match","gesture","yes","HeadNod","male","gesture-speech","1536","864","firefox","61.1","Windows 10","20","female","right","Wed Oct 23 2024 11:57:28 GMT+0200 (Mitteleuropäische Sommerzeit)","1","45","0","1729680924843"
"902","f","SpeechGestureMatch","../RequiredFiles/videos/JaKopfNein_f.mp4","Ist der Ball in der grünen Box?","Blue","Green","F","negation","mismatch","gesture","yes","HeadShake","female","gesture-speech","1536","864","firefox","61.1","Windows 10","20","female","right","Wed Oct 23 2024 11:57:35 GMT+0200 (Mitteleuropäische Sommerzeit)","1","46","0","1729680924843"
"862","j","SpeechGestureMatch","../RequiredFiles/videos/JaKopfNein_f.mp4","Ist der Ball in der grünen Box?","Green","Blue","J","negation","mismatch","gesture","yes","HeadShake","female","gesture-speech","1536","864","firefox","61.1","Windows 10","20","female","right","Wed Oct 23 2024 11:57:41 GMT+0200 (Mitteleuropäische Sommerzeit)","1","47","0","1729680924843"
"1105","f","SpeechGestureMatch","../RequiredFiles/videos/JaKopfJa_m_no_sound.mp4","Ist der Ball in der blauen Box?","Blue","Green","F","affirmation","na","gesture","na","HeadNod","male","gesture-speech","1536","864","firefox","61.1","Windows 10","20","female","right","Wed Oct 23 2024 11:57:48 GMT+0200 (Mitteleuropäische Sommerzeit)","1","48","0","1729680924843"
"1951","j","SpeechGestureMatch","../RequiredFiles/videos/NeinKopfJa_m.mp4","Ist der Ball in der grünen Box?","Blue","Green","J","affirmation","mismatch","gesture","no","HeadNod","male","gesture-speech","1536","864","firefox","61.1","Windows 10","20","female","right","Wed Oct 23 2024 11:57:55 GMT+0200 (Mitteleuropäische Sommerzeit)","1","49","0","1729680924843"
"844","j","SpeechGestureMatch","../RequiredFiles/videos/NeinKopfJa_m.mp4","Ist der Ball in der blauen Box?","Green","Blue","J","affirmation","mismatch","gesture","no","HeadNod","male","gesture-speech","1536","864","firefox","61.1","Windows 10","20","female","right","Wed Oct 23 2024 11:58:02 GMT+0200 (Mitteleuropäische Sommerzeit)","1","50","0","1729680924843"
"840","j","SpeechGestureMatch","../RequiredFiles/videos/NeinKopfJa_m.mp4","Ist der Ball in der grünen Box?","Blue","Green","J","affirmation","mismatch","gesture","no","HeadNod","male","gesture-speech","1536","864","firefox","61.1","Windows 10","20","female","right","Wed Oct 23 2024 11:58:08 GMT+0200 (Mitteleuropäische Sommerzeit)","1","51","0","1729680924843"
"739","f","SpeechGestureMatch","../RequiredFiles/videos/JaKopfNein_f.mp4","Ist der Ball in der grünen Box?","Blue","Green","F","negation","mismatch","gesture","yes","HeadShake","female","gesture-speech","1536","864","firefox","61.1","Windows 10","20","female","right","Wed Oct 23 2024 11:58:14 GMT+0200 (Mitteleuropäische Sommerzeit)","1","52","0","1729680924843"
"843","f","SpeechGestureMatch","../RequiredFiles/videos/JaKopfNein_f.mp4","Ist der Ball in der blauen Box?","Green","Blue","F","negation","mismatch","gesture","yes","HeadShake","female","gesture-speech","1536","864","firefox","61.1","Windows 10","20","female","right","Wed Oct 23 2024 11:58:21 GMT+0200 (Mitteleuropäische Sommerzeit)","1","53","0","1729680924843"
"745","j","SpeechGestureMatch","../RequiredFiles/videos/NeinKopfJa_m.mp4","Ist der Ball in der blauen Box?","Blue","Green","F","affirmation","mismatch","gesture","no","HeadNod","male","gesture-speech","1536","864","firefox","61.1","Windows 10","20","female","right","Wed Oct 23 2024 11:58:27 GMT+0200 (Mitteleuropäische Sommerzeit)","1","54","1","1729680924843"
"982","j","SpeechGestureMatch","../RequiredFiles/videos/JaKopfJa_f.mp4","Ist der Ball in der grünen Box?","Blue","Green","J","affirmation","match","gesture","yes","HeadNod","female","gesture-speech","1536","864","firefox","61.1","Windows 10","20","female","right","Wed Oct 23 2024 11:58:34 GMT+0200 (Mitteleuropäische Sommerzeit)","1","55","0","1729680924843"
"838","f","SpeechGestureMatch","../RequiredFiles/videos/NeinKopfJa_m_no_sound.mp4","Ist der Ball in der blauen Box?","Blue","Green","F","affirmation","na","gesture","na","HeadNod","male","gesture-speech","1536","864","firefox","61.1","Windows 10","20","female","right","Wed Oct 23 2024 11:58:40 GMT+0200 (Mitteleuropäische Sommerzeit)","1","56","0","1729680924843"
"802","j","SpeechGestureMatch","../RequiredFiles/videos/NeinKopfNein_f_no_sound.mp4","Ist der Ball in der grünen Box?","Green","Blue","J","negation","na","gesture","na","HeadShake","female","gesture-speech","1536","864","firefox","61.1","Windows 10","20","female","right","Wed Oct 23 2024 11:58:46 GMT+0200 (Mitteleuropäische Sommerzeit)","1","57","0","1729680924843"
"1752","j","SpeechGestureMatch","../RequiredFiles/videos/JaKopfJa_m.mp4","Ist der Ball in der blauen Box?","Green","Blue","J","affirmation","match","gesture","yes","HeadNod","male","gesture-speech","1536","864","firefox","61.1","Windows 10","20","female","right","Wed Oct 23 2024 11:58:54 GMT+0200 (Mitteleuropäische Sommerzeit)","1","58","0","1729680924843"
"722","j","SpeechGestureMatch","../RequiredFiles/videos/JaKopfJa_m.mp4","Ist der Ball in der grünen Box?","Blue","Green","J","affirmation","match","gesture","yes","HeadNod","male","gesture-speech","1536","864","firefox","61.1","Windows 10","20","female","right","Wed Oct 23 2024 11:59:00 GMT+0200 (Mitteleuropäische Sommerzeit)","1","59","0","1729680924843"
"816","j","SpeechGestureMatch","../RequiredFiles/videos/NeinKopfNein_m.mp4","Ist der Ball in der grünen Box?","Green","Blue","J","negation","match","gesture","no","HeadShake","male","gesture-speech","1536","864","firefox","61.1","Windows 10","20","female","right","Wed Oct 23 2024 11:59:06 GMT+0200 (Mitteleuropäische Sommerzeit)","1","60","0","1729680924843"
"785","j","SpeechGestureMatch","../RequiredFiles/videos/NeinKopfJa_f.mp4","Ist der Ball in der blauen Box?","Green","Blue","J","affirmation","mismatch","gesture","no","HeadNod","female","gesture-speech","1536","864","firefox","61.1","Windows 10","20","female","right","Wed Oct 23 2024 11:59:13 GMT+0200 (Mitteleuropäische Sommerzeit)","1","61","0","1729680924843"
"816","f","SpeechGestureMatch","../RequiredFiles/videos/JaKopfJa_m_no_sound.mp4","Ist der Ball in der grünen Box?","Green","Blue","F","affirmation","na","gesture","na","HeadNod","male","gesture-speech","1536","864","firefox","61.1","Windows 10","20","female","right","Wed Oct 23 2024 11:59:19 GMT+0200 (Mitteleuropäische Sommerzeit)","1","62","0","1729680924843"
"1448","j","SpeechGestureMatch","../RequiredFiles/videos/JaKopfNein_m.mp4","Ist der Ball in der blauen Box?","Green","Blue","F","negation","mismatch","gesture","yes","HeadShake","male","gesture-speech","1536","864","firefox","61.1","Windows 10","20","female","right","Wed Oct 23 2024 11:59:26 GMT+0200 (Mitteleuropäische Sommerzeit)","1","63","1","1729680924843"
"929","j","SpeechGestureMatch","../RequiredFiles/videos/NeinKopfNein_f_no_sound.mp4","Ist der Ball in der blauen Box?","Blue","Green","J","negation","na","gesture","na","HeadShake","female","gesture-speech","1536","864","firefox","61.1","Windows 10","20","female","right","Wed Oct 23 2024 11:59:32 GMT+0200 (Mitteleuropäische Sommerzeit)","1","64","0","1729680924843"
"1897","f","SpeechGestureMatch","../RequiredFiles/videos/NeinKopfNein_f.mp4","Ist der Ball in der blauen Box?","Green","Blue","F","negation","match","gesture","no","HeadShake","female","gesture-speech","1536","864","firefox","61.1","Windows 10","20","female","right","Wed Oct 23 2024 11:59:40 GMT+0200 (Mitteleuropäische Sommerzeit)","1","65","0","1729680924843"
"973","f","SpeechGestureMatch","../RequiredFiles/videos/NeinKopfNein_m_no_sound.mp4","Ist der Ball in der grünen Box?","Blue","Green","F","negation","na","gesture","na","HeadShake","male","gesture-speech","1536","864","firefox","61.1","Windows 10","20","female","right","Wed Oct 23 2024 11:59:46 GMT+0200 (Mitteleuropäische Sommerzeit)","1","66","0","1729680924843"
"1694","f","SpeechGestureMatch","../RequiredFiles/videos/NeinKopfNein_m.mp4","Ist der Ball in der grünen Box?","Blue","Green","F","negation","match","gesture","no","HeadShake","male","gesture-speech","1536","864","firefox","61.1","Windows 10","20","female","right","Wed Oct 23 2024 11:59:54 GMT+0200 (Mitteleuropäische Sommerzeit)","1","67","0","1729680924843"
"923","f","SpeechGestureMatch","../RequiredFiles/videos/NeinKopfJa_f.mp4","Ist der Ball in der blauen Box?","Blue","Green","F","affirmation","mismatch","gesture","no","HeadNod","female","gesture-speech","1536","864","firefox","61.1","Windows 10","20","female","right","Wed Oct 23 2024 12:00:00 GMT+0200 (Mitteleuropäische Sommerzeit)","1","68","0","1729680924843"
"789","f","SpeechGestureMatch","../RequiredFiles/videos/NeinKopfJa_f_no_sound.mp4","Ist der Ball in der blauen Box?","Green","Blue","J","affirmation","na","gesture","na","HeadNod","female","gesture-speech","1536","864","firefox","61.1","Windows 10","20","female","right","Wed Oct 23 2024 12:00:06 GMT+0200 (Mitteleuropäische Sommerzeit)","1","69","1","1729680924843"
"1642","j","SpeechGestureMatch","../RequiredFiles/videos/JaKopfJa_f.mp4","Ist der Ball in der grünen Box?","Blue","Green","J","affirmation","match","gesture","yes","HeadNod","female","gesture-speech","1536","864","firefox","61.1","Windows 10","20","female","right","Wed Oct 23 2024 12:00:14 GMT+0200 (Mitteleuropäische Sommerzeit)","1","70","0","1729680924843"
"698","j","SpeechGestureMatch","../RequiredFiles/videos/NeinKopfJa_f_no_sound.mp4","Ist der Ball in der grünen Box?","Blue","Green","J","affirmation","na","gesture","na","HeadNod","female","gesture-speech","1536","864","firefox","61.1","Windows 10","20","female","right","Wed Oct 23 2024 12:00:20 GMT+0200 (Mitteleuropäische Sommerzeit)","1","71","0","1729680924843"
"769","f","SpeechGestureMatch","../RequiredFiles/videos/JaKopfNein_f_no_sound.mp4","Ist der Ball in der grünen Box?","Blue","Green","F","negation","na","gesture","na","HeadShake","female","gesture-speech","1536","864","firefox","61.1","Windows 10","20","female","right","Wed Oct 23 2024 12:00:26 GMT+0200 (Mitteleuropäische Sommerzeit)","1","72","0","1729680924843"
"1743","f","SpeechGestureMatch","../RequiredFiles/videos/NeinKopfJa_f.mp4","Ist der Ball in der grünen Box?","Green","Blue","F","affirmation","mismatch","gesture","no","HeadNod","female","gesture-speech","1536","864","firefox","61.1","Windows 10","20","female","right","Wed Oct 23 2024 12:00:34 GMT+0200 (Mitteleuropäische Sommerzeit)","1","73","0","1729680924843"
"841","j","SpeechGestureMatch","../RequiredFiles/videos/JaKopfNein_f.mp4","Ist der Ball in der blauen Box?","Blue","Green","J","negation","mismatch","gesture","yes","HeadShake","female","gesture-speech","1536","864","firefox","61.1","Windows 10","20","female","right","Wed Oct 23 2024 12:00:40 GMT+0200 (Mitteleuropäische Sommerzeit)","1","74","0","1729680924843"
"868","f","SpeechGestureMatch","../RequiredFiles/videos/NeinKopfJa_f_no_sound.mp4","Ist der Ball in der grünen Box?","Green","Blue","F","affirmation","na","gesture","na","HeadNod","female","gesture-speech","1536","864","firefox","61.1","Windows 10","20","female","right","Wed Oct 23 2024 12:00:46 GMT+0200 (Mitteleuropäische Sommerzeit)","1","75","0","1729680924843"
"1563","j","SpeechGestureMatch","../RequiredFiles/videos/JaKopfJa_m.mp4","Ist der Ball in der grünen Box?","Blue","Green","J","affirmation","match","gesture","yes","HeadNod","male","gesture-speech","1536","864","firefox","61.1","Windows 10","20","female","right","Wed Oct 23 2024 12:00:53 GMT+0200 (Mitteleuropäische Sommerzeit)","1","76","0","1729680924843"
"756","f","SpeechGestureMatch","../RequiredFiles/videos/NeinKopfNein_m.mp4","Ist der Ball in der blauen Box?","Green","Blue","F","negation","match","gesture","no","HeadShake","male","gesture-speech","1536","864","firefox","61.1","Windows 10","20","female","right","Wed Oct 23 2024 12:01:00 GMT+0200 (Mitteleuropäische Sommerzeit)","1","77","0","1729680924843"
"730","f","SpeechGestureMatch","../RequiredFiles/videos/NeinKopfNein_m.mp4","Ist der Ball in der grünen Box?","Blue","Green","F","negation","match","gesture","no","HeadShake","male","gesture-speech","1536","864","firefox","61.1","Windows 10","20","female","right","Wed Oct 23 2024 12:01:06 GMT+0200 (Mitteleuropäische Sommerzeit)","1","78","0","1729680924843"
"855","f","SpeechGestureMatch","../RequiredFiles/videos/NeinKopfNein_f.mp4","Ist der Ball in der grünen Box?","Green","Blue","J","negation","match","gesture","no","HeadShake","female","gesture-speech","1536","864","firefox","61.1","Windows 10","20","female","right","Wed Oct 23 2024 12:01:13 GMT+0200 (Mitteleuropäische Sommerzeit)","1","79","1","1729680924843"
"949","j","SpeechGestureMatch","../RequiredFiles/videos/NeinKopfJa_f.mp4","Ist der Ball in der blauen Box?","Green","Blue","J","affirmation","mismatch","gesture","no","HeadNod","female","gesture-speech","1536","864","firefox","61.1","Windows 10","20","female","right","Wed Oct 23 2024 12:01:19 GMT+0200 (Mitteleuropäische Sommerzeit)","1","80","0","1729680924843"
"895","f","SpeechGestureMatch","../RequiredFiles/videos/NeinKopfJa_f_no_sound.mp4","Ist der Ball in der blauen Box?","Blue","Green","F","affirmation","na","gesture","na","HeadNod","female","gesture-speech","1536","864","firefox","61.1","Windows 10","20","female","right","Wed Oct 23 2024 12:01:26 GMT+0200 (Mitteleuropäische Sommerzeit)","1","81","0","1729680924843"
"1462","j","SpeechGestureMatch","../RequiredFiles/videos/JaKopfJa_f.mp4","Ist der Ball in der blauen Box?","Green","Blue","J","affirmation","match","gesture","yes","HeadNod","female","gesture-speech","1536","864","firefox","61.1","Windows 10","20","female","right","Wed Oct 23 2024 12:01:33 GMT+0200 (Mitteleuropäische Sommerzeit)","1","82","0","1729680924843"
"753","f","SpeechGestureMatch","../RequiredFiles/videos/NeinKopfNein_f_no_sound.mp4","Ist der Ball in der blauen Box?","Green","Blue","F","negation","na","gesture","na","HeadShake","female","gesture-speech","1536","864","firefox","61.1","Windows 10","20","female","right","Wed Oct 23 2024 12:01:39 GMT+0200 (Mitteleuropäische Sommerzeit)","1","83","0","1729680924843"
"776","j","SpeechGestureMatch","../RequiredFiles/videos/JaKopfNein_f_no_sound.mp4","Ist der Ball in der blauen Box?","Blue","Green","J","negation","na","gesture","na","HeadShake","female","gesture-speech","1536","864","firefox","61.1","Windows 10","20","female","right","Wed Oct 23 2024 12:01:45 GMT+0200 (Mitteleuropäische Sommerzeit)","1","84","0","1729680924843"
"1707","f","SpeechGestureMatch","../RequiredFiles/videos/JaKopfNein_m.mp4","Ist der Ball in der grünen Box?","Blue","Green","F","negation","mismatch","gesture","yes","HeadShake","male","gesture-speech","1536","864","firefox","61.1","Windows 10","20","female","right","Wed Oct 23 2024 12:01:53 GMT+0200 (Mitteleuropäische Sommerzeit)","1","85","0","1729680924843"
"805","f","SpeechGestureMatch","../RequiredFiles/videos/JaKopfNein_m.mp4","Ist der Ball in der blauen Box?","Green","Blue","F","negation","mismatch","gesture","yes","HeadShake","male","gesture-speech","1536","864","firefox","61.1","Windows 10","20","female","right","Wed Oct 23 2024 12:01:59 GMT+0200 (Mitteleuropäische Sommerzeit)","1","86","0","1729680924843"
"749","f","SpeechGestureMatch","../RequiredFiles/videos/NeinKopfNein_f.mp4","Ist der Ball in der blauen Box?","Green","Blue","F","negation","match","gesture","no","HeadShake","female","gesture-speech","1536","864","firefox","61.1","Windows 10","20","female","right","Wed Oct 23 2024 12:02:05 GMT+0200 (Mitteleuropäische Sommerzeit)","1","87","0","1729680924843"
"969","j","SpeechGestureMatch","../RequiredFiles/videos/JaKopfJa_f.mp4","Ist der Ball in der blauen Box?","Blue","Green","F","affirmation","match","gesture","yes","HeadNod","female","gesture-speech","1536","864","firefox","61.1","Windows 10","20","female","right","Wed Oct 23 2024 12:02:12 GMT+0200 (Mitteleuropäische Sommerzeit)","1","88","1","1729680924843"
"811","j","SpeechGestureMatch","../RequiredFiles/videos/NeinKopfNein_m.mp4","Ist der Ball in der blauen Box?","Blue","Green","J","negation","match","gesture","no","HeadShake","male","gesture-speech","1536","864","firefox","61.1","Windows 10","20","female","right","Wed Oct 23 2024 12:02:18 GMT+0200 (Mitteleuropäische Sommerzeit)","1","89","0","1729680924843"
"797","f","SpeechGestureMatch","../RequiredFiles/videos/NeinKopfNein_f.mp4","Ist der Ball in der grünen Box?","Blue","Green","F","negation","match","gesture","no","HeadShake","female","gesture-speech","1536","864","firefox","61.1","Windows 10","20","female","right","Wed Oct 23 2024 12:02:25 GMT+0200 (Mitteleuropäische Sommerzeit)","1","90","0","1729680924843"
"772","f","SpeechGestureMatch","../RequiredFiles/videos/JaKopfJa_m.mp4","Ist der Ball in der blauen Box?","Green","Blue","J","affirmation","match","gesture","yes","HeadNod","male","gesture-speech","1536","864","firefox","61.1","Windows 10","20","female","right","Wed Oct 23 2024 12:02:31 GMT+0200 (Mitteleuropäische Sommerzeit)","1","91","1","1729680924843"
"896","f","SpeechGestureMatch","../RequiredFiles/videos/NeinKopfNein_f.mp4","Ist der Ball in der grünen Box?","Blue","Green","F","negation","match","gesture","no","HeadShake","female","gesture-speech","1536","864","firefox","61.1","Windows 10","20","female","right","Wed Oct 23 2024 12:02:37 GMT+0200 (Mitteleuropäische Sommerzeit)","1","92","0","1729680924843"
"790","f","SpeechGestureMatch","../RequiredFiles/videos/JaKopfJa_m.mp4","Ist der Ball in der grünen Box?","Green","Blue","F","affirmation","match","gesture","yes","HeadNod","male","gesture-speech","1536","864","firefox","61.1","Windows 10","20","female","right","Wed Oct 23 2024 12:02:44 GMT+0200 (Mitteleuropäische Sommerzeit)","1","93","0","1729680924843"
"725","f","SpeechGestureMatch","../RequiredFiles/videos/JaKopfJa_m.mp4","Ist der Ball in der blauen Box?","Blue","Green","F","affirmation","match","gesture","yes","HeadNod","male","gesture-speech","1536","864","firefox","61.1","Windows 10","20","female","right","Wed Oct 23 2024 12:02:50 GMT+0200 (Mitteleuropäische Sommerzeit)","1","94","0","1729680924843"
"1314","j","SpeechGestureMatch","../RequiredFiles/videos/JaKopfJa_f_no_sound.mp4","Ist der Ball in der grünen Box?","Blue","Green","J","affirmation","na","gesture","na","HeadNod","female","gesture-speech","1536","864","firefox","61.1","Windows 10","20","female","right","Wed Oct 23 2024 12:02:57 GMT+0200 (Mitteleuropäische Sommerzeit)","1","95","0","1729680924843"
"1669","j","SpeechGestureMatch","../RequiredFiles/videos/NeinKopfNein_m.mp4","Ist der Ball in der blauen Box?","Blue","Green","J","negation","match","gesture","no","HeadShake","male","gesture-speech","1536","864","firefox","61.1","Windows 10","20","female","right","Wed Oct 23 2024 12:03:04 GMT+0200 (Mitteleuropäische Sommerzeit)","1","96","0","1729680924843"
"1786","j","SpeechGestureMatch","../RequiredFiles/videos/JaKopfNein_m.mp4","Ist der Ball in der blauen Box?","Blue","Green","J","negation","mismatch","gesture","yes","HeadShake","male","gesture-speech","1536","864","firefox","61.1","Windows 10","20","female","right","Wed Oct 23 2024 12:03:51 GMT+0200 (Mitteleuropäische Sommerzeit)","2","1","0","1729680924843"
"761","j","SpeechGestureMatch","../RequiredFiles/videos/JaKopfJa_f_no_sound.mp4","Ist der Ball in der blauen Box?","Green","Blue","J","affirmation","na","gesture","na","HeadNod","female","gesture-speech","1536","864","firefox","61.1","Windows 10","20","female","right","Wed Oct 23 2024 12:03:58 GMT+0200 (Mitteleuropäische Sommerzeit)","2","2","0","1729680924843"
"688","j","SpeechGestureMatch","../RequiredFiles/videos/NeinKopfJa_m_no_sound.mp4","Ist der Ball in der grünen Box?","Blue","Green","J","affirmation","na","gesture","na","HeadNod","male","gesture-speech","1536","864","firefox","61.1","Windows 10","20","female","right","Wed Oct 23 2024 12:04:04 GMT+0200 (Mitteleuropäische Sommerzeit)","2","3","0","1729680924843"
"1453","j","SpeechGestureMatch","../RequiredFiles/videos/NeinKopfNein_m.mp4","Ist der Ball in der grünen Box?","Green","Blue","J","negation","match","gesture","no","HeadShake","male","gesture-speech","1536","864","firefox","61.1","Windows 10","20","female","right","Wed Oct 23 2024 12:04:11 GMT+0200 (Mitteleuropäische Sommerzeit)","2","4","0","1729680924843"
"771","j","SpeechGestureMatch","../RequiredFiles/videos/NeinKopfNein_f_no_sound.mp4","Ist der Ball in der blauen Box?","Green","Blue","F","negation","na","gesture","na","HeadShake","female","gesture-speech","1536","864","firefox","61.1","Windows 10","20","female","right","Wed Oct 23 2024 12:04:17 GMT+0200 (Mitteleuropäische Sommerzeit)","2","5","1","1729680924843"
"1455","f","SpeechGestureMatch","../RequiredFiles/videos/NeinKopfJa_m.mp4","Ist der Ball in der blauen Box?","Blue","Green","F","affirmation","mismatch","gesture","no","HeadNod","male","gesture-speech","1536","864","firefox","61.1","Windows 10","20","female","right","Wed Oct 23 2024 12:04:24 GMT+0200 (Mitteleuropäische Sommerzeit)","2","6","0","1729680924843"
"709","j","SpeechGestureMatch","../RequiredFiles/videos/NeinKopfJa_f.mp4","Ist der Ball in der grünen Box?","Blue","Green","J","affirmation","mismatch","gesture","no","HeadNod","female","gesture-speech","1536","864","firefox","61.1","Windows 10","20","female","right","Wed Oct 23 2024 12:04:30 GMT+0200 (Mitteleuropäische Sommerzeit)","2","7","0","1729680924843"
"706","j","SpeechGestureMatch","../RequiredFiles/videos/NeinKopfJa_f.mp4","Ist der Ball in der blauen Box?","Green","Blue","J","affirmation","mismatch","gesture","no","HeadNod","female","gesture-speech","1536","864","firefox","61.1","Windows 10","20","female","right","Wed Oct 23 2024 12:04:37 GMT+0200 (Mitteleuropäische Sommerzeit)","2","8","0","1729680924843"
"752","f","SpeechGestureMatch","../RequiredFiles/videos/NeinKopfJa_m.mp4","Ist der Ball in der grünen Box?","Green","Blue","F","affirmation","mismatch","gesture","no","HeadNod","male","gesture-speech","1536","864","firefox","61.1","Windows 10","20","female","right","Wed Oct 23 2024 12:04:43 GMT+0200 (Mitteleuropäische Sommerzeit)","2","9","0","1729680924843"
"700","f","SpeechGestureMatch","../RequiredFiles/videos/NeinKopfJa_f.mp4","Ist der Ball in der grünen Box?","Green","Blue","F","affirmation","mismatch","gesture","no","HeadNod","female","gesture-speech","1536","864","firefox","61.1","Windows 10","20","female","right","Wed Oct 23 2024 12:04:49 GMT+0200 (Mitteleuropäische Sommerzeit)","2","10","0","1729680924843"
"701","f","SpeechGestureMatch","../RequiredFiles/videos/JaKopfNein_f.mp4","Ist der Ball in der grünen Box?","Blue","Green","F","negation","mismatch","gesture","yes","HeadShake","female","gesture-speech","1536","864","firefox","61.1","Windows 10","20","female","right","Wed Oct 23 2024 12:04:56 GMT+0200 (Mitteleuropäische Sommerzeit)","2","11","0","1729680924843"
"701","j","SpeechGestureMatch","../RequiredFiles/videos/NeinKopfNein_m.mp4","Ist der Ball in der blauen Box?","Blue","Green","J","negation","match","gesture","no","HeadShake","male","gesture-speech","1536","864","firefox","61.1","Windows 10","20","female","right","Wed Oct 23 2024 12:05:02 GMT+0200 (Mitteleuropäische Sommerzeit)","2","12","0","1729680924843"
"691","j","SpeechGestureMatch","../RequiredFiles/videos/JaKopfNein_f.mp4","Ist der Ball in der grünen Box?","Green","Blue","J","negation","mismatch","gesture","yes","HeadShake","female","gesture-speech","1536","864","firefox","61.1","Windows 10","20","female","right","Wed Oct 23 2024 12:05:08 GMT+0200 (Mitteleuropäische Sommerzeit)","2","13","0","1729680924843"
"710","f","SpeechGestureMatch","../RequiredFiles/videos/JaKopfNein_f.mp4","Ist der Ball in der grünen Box?","Blue","Green","F","negation","mismatch","gesture","yes","HeadShake","female","gesture-speech","1536","864","firefox","61.1","Windows 10","20","female","right","Wed Oct 23 2024 12:05:14 GMT+0200 (Mitteleuropäische Sommerzeit)","2","14","0","1729680924843"
"673","f","SpeechGestureMatch","../RequiredFiles/videos/JaKopfNein_m_no_sound.mp4","Ist der Ball in der grünen Box?","Blue","Green","F","negation","na","gesture","na","HeadShake","male","gesture-speech","1536","864","firefox","61.1","Windows 10","20","female","right","Wed Oct 23 2024 12:05:21 GMT+0200 (Mitteleuropäische Sommerzeit)","2","15","0","1729680924843"
"1611","j","SpeechGestureMatch","../RequiredFiles/videos/JaKopfNein_m.mp4","Ist der Ball in der grünen Box?","Green","Blue","J","negation","mismatch","gesture","yes","HeadShake","male","gesture-speech","1536","864","firefox","61.1","Windows 10","20","female","right","Wed Oct 23 2024 12:05:28 GMT+0200 (Mitteleuropäische Sommerzeit)","2","16","0","1729680924843"
"833","j","SpeechGestureMatch","../RequiredFiles/videos/JaKopfJa_f.mp4","Ist der Ball in der blauen Box?","Blue","Green","F","affirmation","match","gesture","yes","HeadNod","female","gesture-speech","1536","864","firefox","61.1","Windows 10","20","female","right","Wed Oct 23 2024 12:05:34 GMT+0200 (Mitteleuropäische Sommerzeit)","2","17","1","1729680924843"
"763","j","SpeechGestureMatch","../RequiredFiles/videos/JaKopfNein_f.mp4","Ist der Ball in der grünen Box?","Green","Blue","J","negation","mismatch","gesture","yes","HeadShake","female","gesture-speech","1536","864","firefox","61.1","Windows 10","20","female","right","Wed Oct 23 2024 12:05:41 GMT+0200 (Mitteleuropäische Sommerzeit)","2","18","0","1729680924843"
"679","f","SpeechGestureMatch","../RequiredFiles/videos/NeinKopfNein_m.mp4","Ist der Ball in der grünen Box?","Blue","Green","F","negation","match","gesture","no","HeadShake","male","gesture-speech","1536","864","firefox","61.1","Windows 10","20","female","right","Wed Oct 23 2024 12:05:47 GMT+0200 (Mitteleuropäische Sommerzeit)","2","19","0","1729680924843"
"829","j","SpeechGestureMatch","../RequiredFiles/videos/NeinKopfNein_m.mp4","Ist der Ball in der grünen Box?","Blue","Green","F","negation","match","gesture","no","HeadShake","male","gesture-speech","1536","864","firefox","61.1","Windows 10","20","female","right","Wed Oct 23 2024 12:05:53 GMT+0200 (Mitteleuropäische Sommerzeit)","2","20","1","1729680924843"
"884","f","SpeechGestureMatch","../RequiredFiles/videos/NeinKopfJa_m_no_sound.mp4","Ist der Ball in der grünen Box?","Green","Blue","F","affirmation","na","gesture","na","HeadNod","male","gesture-speech","1536","864","firefox","61.1","Windows 10","20","female","right","Wed Oct 23 2024 12:06:00 GMT+0200 (Mitteleuropäische Sommerzeit)","2","21","0","1729680924843"
"1638","j","SpeechGestureMatch","../RequiredFiles/videos/NeinKopfJa_m.mp4","Ist der Ball in der grünen Box?","Blue","Green","J","affirmation","mismatch","gesture","no","HeadNod","male","gesture-speech","1536","864","firefox","61.1","Windows 10","20","female","right","Wed Oct 23 2024 12:06:07 GMT+0200 (Mitteleuropäische Sommerzeit)","2","22","0","1729680924843"
"802","j","SpeechGestureMatch","../RequiredFiles/videos/NeinKopfNein_f.mp4","Ist der Ball in der grünen Box?","Green","Blue","J","negation","match","gesture","no","HeadShake","female","gesture-speech","1536","864","firefox","61.1","Windows 10","20","female","right","Wed Oct 23 2024 12:06:13 GMT+0200 (Mitteleuropäische Sommerzeit)","2","23","0","1729680924843"
"761","f","SpeechGestureMatch","../RequiredFiles/videos/NeinKopfJa_m.mp4","Ist der Ball in der grünen Box?","Green","Blue","F","affirmation","mismatch","gesture","no","HeadNod","male","gesture-speech","1536","864","firefox","61.1","Windows 10","20","female","right","Wed Oct 23 2024 12:06:20 GMT+0200 (Mitteleuropäische Sommerzeit)","2","24","0","1729680924843"
"716","j","SpeechGestureMatch","../RequiredFiles/videos/NeinKopfNein_f_no_sound.mp4","Ist der Ball in der grünen Box?","Green","Blue","J","negation","na","gesture","na","HeadShake","female","gesture-speech","1536","864","firefox","61.1","Windows 10","20","female","right","Wed Oct 23 2024 12:06:26 GMT+0200 (Mitteleuropäische Sommerzeit)","2","25","0","1729680924843"
"1599","f","SpeechGestureMatch","../RequiredFiles/videos/NeinKopfJa_f.mp4","Ist der Ball in der blauen Box?","Blue","Green","F","affirmation","mismatch","gesture","no","HeadNod","female","gesture-speech","1536","864","firefox","61.1","Windows 10","20","female","right","Wed Oct 23 2024 12:06:33 GMT+0200 (Mitteleuropäische Sommerzeit)","2","26","0","1729680924843"
"732","f","SpeechGestureMatch","../RequiredFiles/videos/JaKopfJa_f_no_sound.mp4","Ist der Ball in der grünen Box?","Blue","Green","J","affirmation","na","gesture","na","HeadNod","female","gesture-speech","1536","864","firefox","61.1","Windows 10","20","female","right","Wed Oct 23 2024 12:06:39 GMT+0200 (Mitteleuropäische Sommerzeit)","2","27","1","1729680924843"
"761","f","SpeechGestureMatch","../RequiredFiles/videos/JaKopfJa_f_no_sound.mp4","Ist der Ball in der blauen Box?","Blue","Green","F","affirmation","na","gesture","na","HeadNod","female","gesture-speech","1536","864","firefox","61.1","Windows 10","20","female","right","Wed Oct 23 2024 12:06:46 GMT+0200 (Mitteleuropäische Sommerzeit)","2","28","0","1729680924843"
"1927","j","SpeechGestureMatch","../RequiredFiles/videos/JaKopfJa_m.mp4","Ist der Ball in der grünen Box?","Blue","Green","J","affirmation","match","gesture","yes","HeadNod","male","gesture-speech","1536","864","firefox","61.1","Windows 10","20","female","right","Wed Oct 23 2024 12:06:53 GMT+0200 (Mitteleuropäische Sommerzeit)","2","29","0","1729680924843"
"903","j","SpeechGestureMatch","../RequiredFiles/videos/JaKopfJa_f.mp4","Ist der Ball in der blauen Box?","Green","Blue","J","affirmation","match","gesture","yes","HeadNod","female","gesture-speech","1536","864","firefox","61.1","Windows 10","20","female","right","Wed Oct 23 2024 12:07:00 GMT+0200 (Mitteleuropäische Sommerzeit)","2","30","0","1729680924843"
"1154","j","SpeechGestureMatch","../RequiredFiles/videos/JaKopfJa_m.mp4","Ist der Ball in der blauen Box?","Green","Blue","J","affirmation","match","gesture","yes","HeadNod","male","gesture-speech","1536","864","firefox","61.1","Windows 10","20","female","right","Wed Oct 23 2024 12:07:06 GMT+0200 (Mitteleuropäische Sommerzeit)","2","31","0","1729680924843"
"720","f","SpeechGestureMatch","../RequiredFiles/videos/NeinKopfNein_f.mp4","Ist der Ball in der blauen Box?","Green","Blue","F","negation","match","gesture","no","HeadShake","female","gesture-speech","1536","864","firefox","61.1","Windows 10","20","female","right","Wed Oct 23 2024 12:07:12 GMT+0200 (Mitteleuropäische Sommerzeit)","2","32","0","1729680924843"
"676","j","SpeechGestureMatch","../RequiredFiles/videos/NeinKopfNein_m_no_sound.mp4","Ist der Ball in der grünen Box?","Green","Blue","J","negation","na","gesture","na","HeadShake","male","gesture-speech","1536","864","firefox","61.1","Windows 10","20","female","right","Wed Oct 23 2024 12:07:19 GMT+0200 (Mitteleuropäische Sommerzeit)","2","33","0","1729680924843"
"1599","j","SpeechGestureMatch","../RequiredFiles/videos/JaKopfJa_m.mp4","Ist der Ball in der blauen Box?","Blue","Green","F","affirmation","match","gesture","yes","HeadNod","male","gesture-speech","1536","864","firefox","61.1","Windows 10","20","female","right","Wed Oct 23 2024 12:07:26 GMT+0200 (Mitteleuropäische Sommerzeit)","2","34","1","1729680924843"
"837","f","SpeechGestureMatch","../RequiredFiles/videos/NeinKopfNein_f.mp4","Ist der Ball in der blauen Box?","Green","Blue","F","negation","match","gesture","no","HeadShake","female","gesture-speech","1536","864","firefox","61.1","Windows 10","20","female","right","Wed Oct 23 2024 12:07:32 GMT+0200 (Mitteleuropäische Sommerzeit)","2","35","0","1729680924843"
"806","j","SpeechGestureMatch","../RequiredFiles/videos/NeinKopfNein_f_no_sound.mp4","Ist der Ball in der blauen Box?","Blue","Green","J","negation","na","gesture","na","HeadShake","female","gesture-speech","1536","864","firefox","61.1","Windows 10","20","female","right","Wed Oct 23 2024 12:07:39 GMT+0200 (Mitteleuropäische Sommerzeit)","2","36","0","1729680924843"
"1457","j","SpeechGestureMatch","../RequiredFiles/videos/JaKopfJa_m.mp4","Ist der Ball in der grünen Box?","Blue","Green","J","affirmation","match","gesture","yes","HeadNod","male","gesture-speech","1536","864","firefox","61.1","Windows 10","20","female","right","Wed Oct 23 2024 12:07:46 GMT+0200 (Mitteleuropäische Sommerzeit)","2","37","0","1729680924843"
"757","f","SpeechGestureMatch","../RequiredFiles/videos/NeinKopfJa_f_no_sound.mp4","Ist der Ball in der grünen Box?","Green","Blue","F","affirmation","na","gesture","na","HeadNod","female","gesture-speech","1536","864","firefox","61.1","Windows 10","20","female","right","Wed Oct 23 2024 12:07:52 GMT+0200 (Mitteleuropäische Sommerzeit)","2","38","0","1729680924843"
"711","f","SpeechGestureMatch","../RequiredFiles/videos/JaKopfJa_f_no_sound.mp4","Ist der Ball in der grünen Box?","Green","Blue","F","affirmation","na","gesture","na","HeadNod","female","gesture-speech","1536","864","firefox","61.1","Windows 10","20","female","right","Wed Oct 23 2024 12:07:58 GMT+0200 (Mitteleuropäische Sommerzeit)","2","39","0","1729680924843"
"1676","f","SpeechGestureMatch","../RequiredFiles/videos/JaKopfNein_f.mp4","Ist der Ball in der blauen Box?","Green","Blue","F","negation","mismatch","gesture","yes","HeadShake","female","gesture-speech","1536","864","firefox","61.1","Windows 10","20","female","right","Wed Oct 23 2024 12:08:05 GMT+0200 (Mitteleuropäische Sommerzeit)","2","40","0","1729680924843"
"706","f","SpeechGestureMatch","../RequiredFiles/videos/JaKopfJa_m_no_sound.mp4","Ist der Ball in der blauen Box?","Green","Blue","J","affirmation","na","gesture","na","HeadNod","male","gesture-speech","1536","864","firefox","61.1","Windows 10","20","female","right","Wed Oct 23 2024 12:08:12 GMT+0200 (Mitteleuropäische Sommerzeit)","2","41","1","1729680924843"
"854","j","SpeechGestureMatch","../RequiredFiles/videos/NeinKopfNein_m_no_sound.mp4","Ist der Ball in der blauen Box?","Blue","Green","J","negation","na","gesture","na","HeadShake","male","gesture-speech","1536","864","firefox","61.1","Windows 10","20","female","right","Wed Oct 23 2024 12:08:18 GMT+0200 (Mitteleuropäische Sommerzeit)","2","42","0","1729680924843"
"848","f","SpeechGestureMatch","../RequiredFiles/videos/JaKopfNein_f_no_sound.mp4","Ist der Ball in der blauen Box?","Green","Blue","F","negation","na","gesture","na","HeadShake","female","gesture-speech","1536","864","firefox","61.1","Windows 10","20","female","right","Wed Oct 23 2024 12:08:25 GMT+0200 (Mitteleuropäische Sommerzeit)","2","43","0","1729680924843"
"1525","j","SpeechGestureMatch","../RequiredFiles/videos/JaKopfJa_f.mp4","Ist der Ball in der grünen Box?","Blue","Green","J","affirmation","match","gesture","yes","HeadNod","female","gesture-speech","1536","864","firefox","61.1","Windows 10","20","female","right","Wed Oct 23 2024 12:08:32 GMT+0200 (Mitteleuropäische Sommerzeit)","2","44","0","1729680924843"
"726","j","SpeechGestureMatch","../RequiredFiles/videos/NeinKopfJa_f.mp4","Ist der Ball in der grünen Box?","Blue","Green","J","affirmation","mismatch","gesture","no","HeadNod","female","gesture-speech","1536","864","firefox","61.1","Windows 10","20","female","right","Wed Oct 23 2024 12:08:38 GMT+0200 (Mitteleuropäische Sommerzeit)","2","45","0","1729680924843"
"766","f","SpeechGestureMatch","../RequiredFiles/videos/JaKopfJa_f.mp4","Ist der Ball in der grünen Box?","Green","Blue","F","affirmation","match","gesture","yes","HeadNod","female","gesture-speech","1536","864","firefox","61.1","Windows 10","20","female","right","Wed Oct 23 2024 12:08:45 GMT+0200 (Mitteleuropäische Sommerzeit)","2","46","0","1729680924843"
"647","f","SpeechGestureMatch","../RequiredFiles/videos/JaKopfJa_f.mp4","Ist der Ball in der grünen Box?","Green","Blue","F","affirmation","match","gesture","yes","HeadNod","female","gesture-speech","1536","864","firefox","61.1","Windows 10","20","female","right","Wed Oct 23 2024 12:08:51 GMT+0200 (Mitteleuropäische Sommerzeit)","2","47","0","1729680924843"
"705","f","SpeechGestureMatch","../RequiredFiles/videos/NeinKopfNein_m_no_sound.mp4","Ist der Ball in der blauen Box?","Green","Blue","F","negation","na","gesture","na","HeadShake","male","gesture-speech","1536","864","firefox","61.1","Windows 10","20","female","right","Wed Oct 23 2024 12:08:57 GMT+0200 (Mitteleuropäische Sommerzeit)","2","48","0","1729680924843"
"1622","j","SpeechGestureMatch","../RequiredFiles/videos/JaKopfJa_f.mp4","Ist der Ball in der grünen Box?","Blue","Green","J","affirmation","match","gesture","yes","HeadNod","female","gesture-speech","1536","864","firefox","61.1","Windows 10","20","female","right","Wed Oct 23 2024 12:09:04 GMT+0200 (Mitteleuropäische Sommerzeit)","2","49","0","1729680924843"
"832","j","SpeechGestureMatch","../RequiredFiles/videos/JaKopfNein_f_no_sound.mp4","Ist der Ball in der blauen Box?","Blue","Green","J","negation","na","gesture","na","HeadShake","female","gesture-speech","1536","864","firefox","61.1","Windows 10","20","female","right","Wed Oct 23 2024 12:09:11 GMT+0200 (Mitteleuropäische Sommerzeit)","2","50","0","1729680924843"
"1708","j","SpeechGestureMatch","../RequiredFiles/videos/JaKopfNein_f.mp4","Ist der Ball in der blauen Box?","Blue","Green","J","negation","mismatch","gesture","yes","HeadShake","female","gesture-speech","1536","864","firefox","61.1","Windows 10","20","female","right","Wed Oct 23 2024 12:09:18 GMT+0200 (Mitteleuropäische Sommerzeit)","2","51","0","1729680924843"
"749","j","SpeechGestureMatch","../RequiredFiles/videos/NeinKopfNein_f.mp4","Ist der Ball in der blauen Box?","Blue","Green","J","negation","match","gesture","no","HeadShake","female","gesture-speech","1536","864","firefox","61.1","Windows 10","20","female","right","Wed Oct 23 2024 12:09:24 GMT+0200 (Mitteleuropäische Sommerzeit)","2","52","0","1729680924843"
"898","f","SpeechGestureMatch","../RequiredFiles/videos/NeinKopfJa_m_no_sound.mp4","Ist der Ball in der blauen Box?","Green","Blue","J","affirmation","na","gesture","na","HeadNod","male","gesture-speech","1536","864","firefox","61.1","Windows 10","20","female","right","Wed Oct 23 2024 12:09:31 GMT+0200 (Mitteleuropäische Sommerzeit)","2","53","1","1729680924843"
"807","f","SpeechGestureMatch","../RequiredFiles/videos/NeinKopfJa_f_no_sound.mp4","Ist der Ball in der grünen Box?","Blue","Green","J","affirmation","na","gesture","na","HeadNod","female","gesture-speech","1536","864","firefox","61.1","Windows 10","20","female","right","Wed Oct 23 2024 12:09:37 GMT+0200 (Mitteleuropäische Sommerzeit)","2","54","1","1729680924843"
"1485","f","SpeechGestureMatch","../RequiredFiles/videos/NeinKopfJa_f.mp4","Ist der Ball in der grünen Box?","Green","Blue","F","affirmation","mismatch","gesture","no","HeadNod","female","gesture-speech","1536","864","firefox","61.1","Windows 10","20","female","right","Wed Oct 23 2024 12:09:44 GMT+0200 (Mitteleuropäische Sommerzeit)","2","55","0","1729680924843"
"740","f","SpeechGestureMatch","../RequiredFiles/videos/JaKopfJa_m.mp4","Ist der Ball in der blauen Box?","Blue","Green","F","affirmation","match","gesture","yes","HeadNod","male","gesture-speech","1536","864","firefox","61.1","Windows 10","20","female","right","Wed Oct 23 2024 12:09:50 GMT+0200 (Mitteleuropäische Sommerzeit)","2","56","0","1729680924843"
"737","f","SpeechGestureMatch","../RequiredFiles/videos/JaKopfNein_f_no_sound.mp4","Ist der Ball in der grünen Box?","Blue","Green","F","negation","na","gesture","na","HeadShake","female","gesture-speech","1536","864","firefox","61.1","Windows 10","20","female","right","Wed Oct 23 2024 12:09:57 GMT+0200 (Mitteleuropäische Sommerzeit)","2","57","0","1729680924843"
"1647","j","SpeechGestureMatch","../RequiredFiles/videos/NeinKopfNein_m.mp4","Ist der Ball in der blauen Box?","Blue","Green","J","negation","match","gesture","no","HeadShake","male","gesture-speech","1536","864","firefox","61.1","Windows 10","20","female","right","Wed Oct 23 2024 12:10:04 GMT+0200 (Mitteleuropäische Sommerzeit)","2","58","0","1729680924843"
"735","f","SpeechGestureMatch","../RequiredFiles/videos/JaKopfNein_m.mp4","Ist der Ball in der blauen Box?","Green","Blue","F","negation","mismatch","gesture","yes","HeadShake","male","gesture-speech","1536","864","firefox","61.1","Windows 10","20","female","right","Wed Oct 23 2024 12:10:10 GMT+0200 (Mitteleuropäische Sommerzeit)","2","59","0","1729680924843"
"737","f","SpeechGestureMatch","../RequiredFiles/videos/JaKopfJa_m.mp4","Ist der Ball in der grünen Box?","Green","Blue","F","affirmation","match","gesture","yes","HeadNod","male","gesture-speech","1536","864","firefox","61.1","Windows 10","20","female","right","Wed Oct 23 2024 12:10:17 GMT+0200 (Mitteleuropäische Sommerzeit)","2","60","0","1729680924843"
"801","f","SpeechGestureMatch","../RequiredFiles/videos/JaKopfJa_m.mp4","Ist der Ball in der grünen Box?","Green","Blue","F","affirmation","match","gesture","yes","HeadNod","male","gesture-speech","1536","864","firefox","61.1","Windows 10","20","female","right","Wed Oct 23 2024 12:10:23 GMT+0200 (Mitteleuropäische Sommerzeit)","2","61","0","1729680924843"
"904","f","SpeechGestureMatch","../RequiredFiles/videos/JaKopfJa_m.mp4","Ist der Ball in der blauen Box?","Green","Blue","J","affirmation","match","gesture","yes","HeadNod","male","gesture-speech","1536","864","firefox","61.1","Windows 10","20","female","right","Wed Oct 23 2024 12:10:29 GMT+0200 (Mitteleuropäische Sommerzeit)","2","62","1","1729680924843"
"1301","f","SpeechGestureMatch","../RequiredFiles/videos/NeinKopfNein_m_no_sound.mp4","Ist der Ball in der grünen Box?","Blue","Green","F","negation","na","gesture","na","HeadShake","male","gesture-speech","1536","864","firefox","61.1","Windows 10","20","female","right","Wed Oct 23 2024 12:10:36 GMT+0200 (Mitteleuropäische Sommerzeit)","2","63","0","1729680924843"
"1636","j","SpeechGestureMatch","../RequiredFiles/videos/NeinKopfNein_m.mp4","Ist der Ball in der blauen Box?","Green","Blue","F","negation","match","gesture","no","HeadShake","male","gesture-speech","1536","864","firefox","61.1","Windows 10","20","female","right","Wed Oct 23 2024 12:10:44 GMT+0200 (Mitteleuropäische Sommerzeit)","2","64","1","1729680924843"
"1340","f","SpeechGestureMatch","../RequiredFiles/videos/JaKopfNein_m.mp4","Ist der Ball in der grünen Box?","Blue","Green","F","negation","mismatch","gesture","yes","HeadShake","male","gesture-speech","1536","864","firefox","61.1","Windows 10","20","female","right","Wed Oct 23 2024 12:10:50 GMT+0200 (Mitteleuropäische Sommerzeit)","2","65","0","1729680924843"
"954","f","SpeechGestureMatch","../RequiredFiles/videos/JaKopfNein_m.mp4","Ist der Ball in der grünen Box?","Blue","Green","F","negation","mismatch","gesture","yes","HeadShake","male","gesture-speech","1536","864","firefox","61.1","Windows 10","20","female","right","Wed Oct 23 2024 12:10:57 GMT+0200 (Mitteleuropäische Sommerzeit)","2","66","0","1729680924843"
"660","f","SpeechGestureMatch","../RequiredFiles/videos/JaKopfJa_m_no_sound.mp4","Ist der Ball in der grünen Box?","Blue","Green","J","affirmation","na","gesture","na","HeadNod","male","gesture-speech","1536","864","firefox","61.1","Windows 10","20","female","right","Wed Oct 23 2024 12:11:03 GMT+0200 (Mitteleuropäische Sommerzeit)","2","67","1","1729680924843"
"1861","f","SpeechGestureMatch","../RequiredFiles/videos/NeinKopfJa_m.mp4","Ist der Ball in der blauen Box?","Blue","Green","F","affirmation","mismatch","gesture","no","HeadNod","male","gesture-speech","1536","864","firefox","61.1","Windows 10","20","female","right","Wed Oct 23 2024 12:11:11 GMT+0200 (Mitteleuropäische Sommerzeit)","2","68","0","1729680924843"
"807","j","SpeechGestureMatch","../RequiredFiles/videos/JaKopfNein_m_no_sound.mp4","Ist der Ball in der grünen Box?","Green","Blue","J","negation","na","gesture","na","HeadShake","male","gesture-speech","1536","864","firefox","61.1","Windows 10","20","female","right","Wed Oct 23 2024 12:11:17 GMT+0200 (Mitteleuropäische Sommerzeit)","2","69","0","1729680924843"
"1845","f","SpeechGestureMatch","../RequiredFiles/videos/NeinKopfNein_f.mp4","Ist der Ball in der grünen Box?","Blue","Green","F","negation","match","gesture","no","HeadShake","female","gesture-speech","1536","864","firefox","61.1","Windows 10","20","female","right","Wed Oct 23 2024 12:11:24 GMT+0200 (Mitteleuropäische Sommerzeit)","2","70","0","1729680924843"
"620","f","SpeechGestureMatch","../RequiredFiles/videos/JaKopfJa_m_no_sound.mp4","Ist der Ball in der blauen Box?","Blue","Green","F","affirmation","na","gesture","na","HeadNod","male","gesture-speech","1536","864","firefox","61.1","Windows 10","20","female","right","Wed Oct 23 2024 12:11:31 GMT+0200 (Mitteleuropäische Sommerzeit)","2","71","0","1729680924843"
"1679","j","SpeechGestureMatch","../RequiredFiles/videos/NeinKopfNein_f.mp4","Ist der Ball in der blauen Box?","Blue","Green","J","negation","match","gesture","no","HeadShake","female","gesture-speech","1536","864","firefox","61.1","Windows 10","20","female","right","Wed Oct 23 2024 12:11:38 GMT+0200 (Mitteleuropäische Sommerzeit)","2","72","0","1729680924843"
"681","f","SpeechGestureMatch","../RequiredFiles/videos/NeinKopfJa_f.mp4","Ist der Ball in der blauen Box?","Blue","Green","F","affirmation","mismatch","gesture","no","HeadNod","female","gesture-speech","1536","864","firefox","61.1","Windows 10","20","female","right","Wed Oct 23 2024 12:11:44 GMT+0200 (Mitteleuropäische Sommerzeit)","2","73","0","1729680924843"
"725","f","SpeechGestureMatch","../RequiredFiles/videos/JaKopfJa_f.mp4","Ist der Ball in der blauen Box?","Blue","Green","F","affirmation","match","gesture","yes","HeadNod","female","gesture-speech","1536","864","firefox","61.1","Windows 10","20","female","right","Wed Oct 23 2024 12:11:50 GMT+0200 (Mitteleuropäische Sommerzeit)","2","74","0","1729680924843"
"799","f","SpeechGestureMatch","../RequiredFiles/videos/JaKopfNein_m.mp4","Ist der Ball in der blauen Box?","Green","Blue","F","negation","mismatch","gesture","yes","HeadShake","male","gesture-speech","1536","864","firefox","61.1","Windows 10","20","female","right","Wed Oct 23 2024 12:11:57 GMT+0200 (Mitteleuropäische Sommerzeit)","2","75","0","1729680924843"
"627","f","SpeechGestureMatch","../RequiredFiles/videos/JaKopfNein_m_no_sound.mp4","Ist der Ball in der blauen Box?","Green","Blue","F","negation","na","gesture","na","HeadShake","male","gesture-speech","1536","864","firefox","61.1","Windows 10","20","female","right","Wed Oct 23 2024 12:12:03 GMT+0200 (Mitteleuropäische Sommerzeit)","2","76","0","1729680924843"
"1529","f","SpeechGestureMatch","../RequiredFiles/videos/JaKopfJa_f.mp4","Ist der Ball in der blauen Box?","Green","Blue","J","affirmation","match","gesture","yes","HeadNod","female","gesture-speech","1536","864","firefox","61.1","Windows 10","20","female","right","Wed Oct 23 2024 12:12:10 GMT+0200 (Mitteleuropäische Sommerzeit)","2","77","1","1729680924843"
"751","j","SpeechGestureMatch","../RequiredFiles/videos/NeinKopfNein_m.mp4","Ist der Ball in der grünen Box?","Green","Blue","J","negation","match","gesture","no","HeadShake","male","gesture-speech","1536","864","firefox","61.1","Windows 10","20","female","right","Wed Oct 23 2024 12:12:16 GMT+0200 (Mitteleuropäische Sommerzeit)","2","78","0","1729680924843"
"657","f","SpeechGestureMatch","../RequiredFiles/videos/NeinKopfNein_m.mp4","Ist der Ball in der blauen Box?","Green","Blue","F","negation","match","gesture","no","HeadShake","male","gesture-speech","1536","864","firefox","61.1","Windows 10","20","female","right","Wed Oct 23 2024 12:12:23 GMT+0200 (Mitteleuropäische Sommerzeit)","2","79","0","1729680924843"
"1038","f","SpeechGestureMatch","../RequiredFiles/videos/NeinKopfJa_m.mp4","Ist der Ball in der blauen Box?","Green","Blue","J","affirmation","mismatch","gesture","no","HeadNod","male","gesture-speech","1536","864","firefox","61.1","Windows 10","20","female","right","Wed Oct 23 2024 12:12:29 GMT+0200 (Mitteleuropäische Sommerzeit)","2","80","1","1729680924843"
"858","j","SpeechGestureMatch","../RequiredFiles/videos/JaKopfNein_m.mp4","Ist der Ball in der blauen Box?","Blue","Green","J","negation","mismatch","gesture","yes","HeadShake","male","gesture-speech","1536","864","firefox","61.1","Windows 10","20","female","right","Wed Oct 23 2024 12:12:36 GMT+0200 (Mitteleuropäische Sommerzeit)","2","81","0","1729680924843"
"849","j","SpeechGestureMatch","../RequiredFiles/videos/JaKopfNein_m_no_sound.mp4","Ist der Ball in der blauen Box?","Blue","Green","J","negation","na","gesture","na","HeadShake","male","gesture-speech","1536","864","firefox","61.1","Windows 10","20","female","right","Wed Oct 23 2024 12:12:42 GMT+0200 (Mitteleuropäische Sommerzeit)","2","82","0","1729680924843"
"924","f","SpeechGestureMatch","../RequiredFiles/videos/NeinKopfNein_f_no_sound.mp4","Ist der Ball in der grünen Box?","Blue","Green","F","negation","na","gesture","na","HeadShake","female","gesture-speech","1536","864","firefox","61.1","Windows 10","20","female","right","Wed Oct 23 2024 12:12:49 GMT+0200 (Mitteleuropäische Sommerzeit)","2","83","0","1729680924843"
"816","f","SpeechGestureMatch","../RequiredFiles/videos/JaKopfJa_m_no_sound.mp4","Ist der Ball in der grünen Box?","Green","Blue","F","affirmation","na","gesture","na","HeadNod","male","gesture-speech","1536","864","firefox","61.1","Windows 10","20","female","right","Wed Oct 23 2024 12:12:55 GMT+0200 (Mitteleuropäische Sommerzeit)","2","84","0","1729680924843"
"1717","f","SpeechGestureMatch","../RequiredFiles/videos/JaKopfNein_m.mp4","Ist der Ball in der grünen Box?","Green","Blue","J","negation","mismatch","gesture","yes","HeadShake","male","gesture-speech","1536","864","firefox","61.1","Windows 10","20","female","right","Wed Oct 23 2024 12:13:02 GMT+0200 (Mitteleuropäische Sommerzeit)","2","85","1","1729680924843"
"891","j","SpeechGestureMatch","../RequiredFiles/videos/JaKopfNein_f_no_sound.mp4","Ist der Ball in der grünen Box?","Green","Blue","J","negation","na","gesture","na","HeadShake","female","gesture-speech","1536","864","firefox","61.1","Windows 10","20","female","right","Wed Oct 23 2024 12:13:09 GMT+0200 (Mitteleuropäische Sommerzeit)","2","86","0","1729680924843"
"1805","f","SpeechGestureMatch","../RequiredFiles/videos/NeinKopfNein_f.mp4","Ist der Ball in der grünen Box?","Blue","Green","F","negation","match","gesture","no","HeadShake","female","gesture-speech","1536","864","firefox","61.1","Windows 10","20","female","right","Wed Oct 23 2024 12:13:16 GMT+0200 (Mitteleuropäische Sommerzeit)","2","87","0","1729680924843"
"706","f","SpeechGestureMatch","../RequiredFiles/videos/NeinKopfJa_f_no_sound.mp4","Ist der Ball in der blauen Box?","Green","Blue","J","affirmation","na","gesture","na","HeadNod","female","gesture-speech","1536","864","firefox","61.1","Windows 10","20","female","right","Wed Oct 23 2024 12:13:22 GMT+0200 (Mitteleuropäische Sommerzeit)","2","88","1","1729680924843"
"1706","j","SpeechGestureMatch","../RequiredFiles/videos/JaKopfNein_f.mp4","Ist der Ball in der blauen Box?","Blue","Green","J","negation","mismatch","gesture","yes","HeadShake","female","gesture-speech","1536","864","firefox","61.1","Windows 10","20","female","right","Wed Oct 23 2024 12:13:29 GMT+0200 (Mitteleuropäische Sommerzeit)","2","89","0","1729680924843"
"790","f","SpeechGestureMatch","../RequiredFiles/videos/NeinKopfJa_m.mp4","Ist der Ball in der blauen Box?","Green","Blue","J","affirmation","mismatch","gesture","no","HeadNod","male","gesture-speech","1536","864","firefox","61.1","Windows 10","20","female","right","Wed Oct 23 2024 12:13:36 GMT+0200 (Mitteleuropäische Sommerzeit)","2","90","1","1729680924843"
"723","f","SpeechGestureMatch","../RequiredFiles/videos/NeinKopfJa_f_no_sound.mp4","Ist der Ball in der blauen Box?","Blue","Green","F","affirmation","na","gesture","na","HeadNod","female","gesture-speech","1536","864","firefox","61.1","Windows 10","20","female","right","Wed Oct 23 2024 12:13:42 GMT+0200 (Mitteleuropäische Sommerzeit)","2","91","0","1729680924843"
"1822","f","SpeechGestureMatch","../RequiredFiles/videos/JaKopfNein_f.mp4","Ist der Ball in der blauen Box?","Green","Blue","F","negation","mismatch","gesture","yes","HeadShake","female","gesture-speech","1536","864","firefox","61.1","Windows 10","20","female","right","Wed Oct 23 2024 12:13:49 GMT+0200 (Mitteleuropäische Sommerzeit)","2","92","0","1729680924843"
"747","j","SpeechGestureMatch","../RequiredFiles/videos/NeinKopfJa_m.mp4","Ist der Ball in der grünen Box?","Blue","Green","J","affirmation","mismatch","gesture","no","HeadNod","male","gesture-speech","1536","864","firefox","61.1","Windows 10","20","female","right","Wed Oct 23 2024 12:13:56 GMT+0200 (Mitteleuropäische Sommerzeit)","2","93","0","1729680924843"
"781","j","SpeechGestureMatch","../RequiredFiles/videos/NeinKopfJa_f.mp4","Ist der Ball in der blauen Box?","Green","Blue","J","affirmation","mismatch","gesture","no","HeadNod","female","gesture-speech","1536","864","firefox","61.1","Windows 10","20","female","right","Wed Oct 23 2024 12:14:02 GMT+0200 (Mitteleuropäische Sommerzeit)","2","94","0","1729680924843"
"762","f","SpeechGestureMatch","../RequiredFiles/videos/NeinKopfJa_m_no_sound.mp4","Ist der Ball in der blauen Box?","Blue","Green","F","affirmation","na","gesture","na","HeadNod","male","gesture-speech","1536","864","firefox","61.1","Windows 10","20","female","right","Wed Oct 23 2024 12:14:08 GMT+0200 (Mitteleuropäische Sommerzeit)","2","95","0","1729680924843"
"1659","j","SpeechGestureMatch","../RequiredFiles/videos/NeinKopfNein_f.mp4","Ist der Ball in der grünen Box?","Green","Blue","J","negation","match","gesture","no","HeadShake","female","gesture-speech","1536","864","firefox","61.1","Windows 10","20","female","right","Wed Oct 23 2024 12:14:15 GMT+0200 (Mitteleuropäische Sommerzeit)","2","96","0","1729680924843"
"1643","j","SpeechGestureMatch","../RequiredFiles/videos/NeinKopfJa_f.mp4","Ist der Ball in der grünen Box?","Green","Blue","J","negation","mismatch","speech","no","HeadNod","female","gesture-speech","1536","864","firefox","61.1","Windows 10","20","female","right","Wed Oct 23 2024 12:34:10 GMT+0200 (Mitteleuropäische Sommerzeit)","3","1","0","1729680924843"
"770","j","SpeechGestureMatch","../RequiredFiles/videos/NeinKopfNein_m.mp4","Ist der Ball in der grünen Box?","Green","Blue","J","negation","match","speech","no","HeadShake","male","gesture-speech","1536","864","firefox","61.1","Windows 10","20","female","right","Wed Oct 23 2024 12:34:16 GMT+0200 (Mitteleuropäische Sommerzeit)","3","2","0","1729680924843"
"1100","j","SpeechGestureMatch","../RequiredFiles/videos/JaKopfJa_m.mp4","Ist der Ball in der grünen Box?","Blue","Green","J","affirmation","match","speech","yes","HeadNod","male","gesture-speech","1536","864","firefox","61.1","Windows 10","20","female","right","Wed Oct 23 2024 12:34:23 GMT+0200 (Mitteleuropäische Sommerzeit)","3","3","0","1729680924843"
"764","j","SpeechGestureMatch","../RequiredFiles/videos/NeinKopfNein_m.mp4","Ist der Ball in der grünen Box?","Green","Blue","J","negation","match","speech","no","HeadShake","male","gesture-speech","1536","864","firefox","61.1","Windows 10","20","female","right","Wed Oct 23 2024 12:34:29 GMT+0200 (Mitteleuropäische Sommerzeit)","3","4","0","1729680924843"
"1160","f","SpeechGestureMatch","../RequiredFiles/videos/JaKopfNein_f.mp4","Ist der Ball in der grünen Box?","Green","Blue","F","affirmation","mismatch","speech","yes","HeadShake","female","gesture-speech","1536","864","firefox","61.1","Windows 10","20","female","right","Wed Oct 23 2024 12:34:36 GMT+0200 (Mitteleuropäische Sommerzeit)","3","5","0","1729680924843"
"993","f","SpeechGestureMatch","../RequiredFiles/videos/NeinKopfJa_m.mp4","Ist der Ball in der grünen Box?","Blue","Green","F","negation","mismatch","speech","no","HeadNod","male","gesture-speech","1536","864","firefox","61.1","Windows 10","20","female","right","Wed Oct 23 2024 12:34:42 GMT+0200 (Mitteleuropäische Sommerzeit)","3","6","0","1729680924843"
"888","j","SpeechGestureMatch","../RequiredFiles/videos/NeinKopfJa_m_no_gesture.mp4","Ist der Ball in der grünen Box?","Green","Blue","J","negation","na","speech","no","na","male","gesture-speech","1536","864","firefox","61.1","Windows 10","20","female","right","Wed Oct 23 2024 12:34:49 GMT+0200 (Mitteleuropäische Sommerzeit)","3","7","0","1729680924843"
"847","f","SpeechGestureMatch","../RequiredFiles/videos/NeinKopfNein_m_no_gesture.mp4","Ist der Ball in der grünen Box?","Blue","Green","F","negation","na","speech","no","na","male","gesture-speech","1536","864","firefox","61.1","Windows 10","20","female","right","Wed Oct 23 2024 12:34:55 GMT+0200 (Mitteleuropäische Sommerzeit)","3","8","0","1729680924843"
"785","j","SpeechGestureMatch","../RequiredFiles/videos/JaKopfJa_m.mp4","Ist der Ball in der grünen Box?","Green","Blue","F","affirmation","match","speech","yes","HeadNod","male","gesture-speech","1536","864","firefox","61.1","Windows 10","20","female","right","Wed Oct 23 2024 12:35:01 GMT+0200 (Mitteleuropäische Sommerzeit)","3","9","1","1729680924843"
"908","j","SpeechGestureMatch","../RequiredFiles/videos/NeinKopfJa_f.mp4","Ist der Ball in der blauen Box?","Blue","Green","J","negation","mismatch","speech","no","HeadNod","female","gesture-speech","1536","864","firefox","61.1","Windows 10","20","female","right","Wed Oct 23 2024 12:35:08 GMT+0200 (Mitteleuropäische Sommerzeit)","3","10","0","1729680924843"
"873","f","SpeechGestureMatch","../RequiredFiles/videos/JaKopfNein_m.mp4","Ist der Ball in der blauen Box?","Blue","Green","F","affirmation","mismatch","speech","yes","HeadShake","male","gesture-speech","1536","864","firefox","61.1","Windows 10","20","female","right","Wed Oct 23 2024 12:35:14 GMT+0200 (Mitteleuropäische Sommerzeit)","3","11","0","1729680924843"
"977","j","SpeechGestureMatch","../RequiredFiles/videos/JaKopfNein_m_no_gesture.mp4","Ist der Ball in der blauen Box?","Green","Blue","J","affirmation","na","speech","yes","na","male","gesture-speech","1536","864","firefox","61.1","Windows 10","20","female","right","Wed Oct 23 2024 12:35:21 GMT+0200 (Mitteleuropäische Sommerzeit)","3","12","0","1729680924843"
"907","f","SpeechGestureMatch","../RequiredFiles/videos/NeinKopfJa_m.mp4","Ist der Ball in der blauen Box?","Green","Blue","F","negation","mismatch","speech","no","HeadNod","male","gesture-speech","1536","864","firefox","61.1","Windows 10","20","female","right","Wed Oct 23 2024 12:35:27 GMT+0200 (Mitteleuropäische Sommerzeit)","3","13","0","1729680924843"
"898","f","SpeechGestureMatch","../RequiredFiles/videos/JaKopfJa_f_no_gesture.mp4","Ist der Ball in der blauen Box?","Blue","Green","F","affirmation","na","speech","yes","na","female","gesture-speech","1536","864","firefox","61.1","Windows 10","20","female","right","Wed Oct 23 2024 12:35:34 GMT+0200 (Mitteleuropäische Sommerzeit)","3","14","0","1729680924843"
"894","j","SpeechGestureMatch","../RequiredFiles/videos/NeinKopfNein_f_no_gesture.mp4","Ist der Ball in der grünen Box?","Green","Blue","J","negation","na","speech","no","na","female","gesture-speech","1536","864","firefox","61.1","Windows 10","20","female","right","Wed Oct 23 2024 12:35:40 GMT+0200 (Mitteleuropäische Sommerzeit)","3","15","0","1729680924843"
"970","j","SpeechGestureMatch","../RequiredFiles/videos/JaKopfJa_m.mp4","Ist der Ball in der blauen Box?","Green","Blue","J","affirmation","match","speech","yes","HeadNod","male","gesture-speech","1536","864","firefox","61.1","Windows 10","20","female","right","Wed Oct 23 2024 12:35:47 GMT+0200 (Mitteleuropäische Sommerzeit)","3","16","0","1729680924843"
"1161","j","SpeechGestureMatch","../RequiredFiles/videos/JaKopfNein_m.mp4","Ist der Ball in der grünen Box?","Blue","Green","J","affirmation","mismatch","speech","yes","HeadShake","male","gesture-speech","1536","864","firefox","61.1","Windows 10","20","female","right","Wed Oct 23 2024 12:35:54 GMT+0200 (Mitteleuropäische Sommerzeit)","3","17","0","1729680924843"
"940","f","SpeechGestureMatch","../RequiredFiles/videos/JaKopfNein_m.mp4","Ist der Ball in der grünen Box?","Green","Blue","F","affirmation","mismatch","speech","yes","HeadShake","male","gesture-speech","1536","864","firefox","61.1","Windows 10","20","female","right","Wed Oct 23 2024 12:36:00 GMT+0200 (Mitteleuropäische Sommerzeit)","3","18","0","1729680924843"
"861","f","SpeechGestureMatch","../RequiredFiles/videos/NeinKopfNein_m_no_gesture.mp4","Ist der Ball in der blauen Box?","Green","Blue","F","negation","na","speech","no","na","male","gesture-speech","1536","864","firefox","61.1","Windows 10","20","female","right","Wed Oct 23 2024 12:36:07 GMT+0200 (Mitteleuropäische Sommerzeit)","3","19","0","1729680924843"
"883","j","SpeechGestureMatch","../RequiredFiles/videos/JaKopfJa_f.mp4","Ist der Ball in der grünen Box?","Blue","Green","J","affirmation","match","speech","yes","HeadNod","female","gesture-speech","1536","864","firefox","61.1","Windows 10","20","female","right","Wed Oct 23 2024 12:36:13 GMT+0200 (Mitteleuropäische Sommerzeit)","3","20","0","1729680924843"
"1075","f","SpeechGestureMatch","../RequiredFiles/videos/NeinKopfNein_m.mp4","Ist der Ball in der blauen Box?","Green","Blue","F","negation","match","speech","no","HeadShake","male","gesture-speech","1536","864","firefox","61.1","Windows 10","20","female","right","Wed Oct 23 2024 12:36:20 GMT+0200 (Mitteleuropäische Sommerzeit)","3","21","0","1729680924843"
"927","j","SpeechGestureMatch","../RequiredFiles/videos/NeinKopfJa_m.mp4","Ist der Ball in der grünen Box?","Green","Blue","J","negation","mismatch","speech","no","HeadNod","male","gesture-speech","1536","864","firefox","61.1","Windows 10","20","female","right","Wed Oct 23 2024 12:36:26 GMT+0200 (Mitteleuropäische Sommerzeit)","3","22","0","1729680924843"
"906","f","SpeechGestureMatch","../RequiredFiles/videos/JaKopfJa_f.mp4","Ist der Ball in der blauen Box?","Blue","Green","F","affirmation","match","speech","yes","HeadNod","female","gesture-speech","1536","864","firefox","61.1","Windows 10","20","female","right","Wed Oct 23 2024 12:36:33 GMT+0200 (Mitteleuropäische Sommerzeit)","3","23","0","1729680924843"
"1047","j","SpeechGestureMatch","../RequiredFiles/videos/JaKopfJa_m_no_gesture.mp4","Ist der Ball in der blauen Box?","Green","Blue","J","affirmation","na","speech","yes","na","male","gesture-speech","1536","864","firefox","61.1","Windows 10","20","female","right","Wed Oct 23 2024 12:36:39 GMT+0200 (Mitteleuropäische Sommerzeit)","3","24","0","1729680924843"
"857","f","SpeechGestureMatch","../RequiredFiles/videos/NeinKopfNein_f.mp4","Ist der Ball in der grünen Box?","Blue","Green","F","negation","match","speech","no","HeadShake","female","gesture-speech","1536","864","firefox","61.1","Windows 10","20","female","right","Wed Oct 23 2024 12:36:46 GMT+0200 (Mitteleuropäische Sommerzeit)","3","25","0","1729680924843"
"874","j","SpeechGestureMatch","../RequiredFiles/videos/NeinKopfJa_f_no_gesture.mp4","Ist der Ball in der grünen Box?","Green","Blue","J","negation","na","speech","no","na","female","gesture-speech","1536","864","firefox","61.1","Windows 10","20","female","right","Wed Oct 23 2024 12:36:52 GMT+0200 (Mitteleuropäische Sommerzeit)","3","26","0","1729680924843"
"922","j","SpeechGestureMatch","../RequiredFiles/videos/JaKopfJa_m.mp4","Ist der Ball in der grünen Box?","Blue","Green","J","affirmation","match","speech","yes","HeadNod","male","gesture-speech","1536","864","firefox","61.1","Windows 10","20","female","right","Wed Oct 23 2024 12:36:59 GMT+0200 (Mitteleuropäische Sommerzeit)","3","27","0","1729680924843"
"946","j","SpeechGestureMatch","../RequiredFiles/videos/JaKopfJa_f.mp4","Ist der Ball in der blauen Box?","Green","Blue","J","affirmation","match","speech","yes","HeadNod","female","gesture-speech","1536","864","firefox","61.1","Windows 10","20","female","right","Wed Oct 23 2024 12:37:05 GMT+0200 (Mitteleuropäische Sommerzeit)","3","28","0","1729680924843"
"808","f","SpeechGestureMatch","../RequiredFiles/videos/NeinKopfNein_m.mp4","Ist der Ball in der grünen Box?","Blue","Green","F","negation","match","speech","no","HeadShake","male","gesture-speech","1536","864","firefox","61.1","Windows 10","20","female","right","Wed Oct 23 2024 12:37:12 GMT+0200 (Mitteleuropäische Sommerzeit)","3","29","0","1729680924843"
"921","j","SpeechGestureMatch","../RequiredFiles/videos/NeinKopfJa_f_no_gesture.mp4","Ist der Ball in der blauen Box?","Blue","Green","J","negation","na","speech","no","na","female","gesture-speech","1536","864","firefox","61.1","Windows 10","20","female","right","Wed Oct 23 2024 12:37:18 GMT+0200 (Mitteleuropäische Sommerzeit)","3","30","0","1729680924843"
"1615","j","SpeechGestureMatch","../RequiredFiles/videos/JaKopfJa_f_no_gesture.mp4","Ist der Ball in der grünen Box?","Blue","Green","J","affirmation","na","speech","yes","na","female","gesture-speech","1536","864","firefox","61.1","Windows 10","20","female","right","Wed Oct 23 2024 12:37:25 GMT+0200 (Mitteleuropäische Sommerzeit)","3","31","0","1729680924843"
"987","j","SpeechGestureMatch","../RequiredFiles/videos/NeinKopfJa_m.mp4","Ist der Ball in der grünen Box?","Green","Blue","J","negation","mismatch","speech","no","HeadNod","male","gesture-speech","1536","864","firefox","61.1","Windows 10","20","female","right","Wed Oct 23 2024 12:37:32 GMT+0200 (Mitteleuropäische Sommerzeit)","3","32","0","1729680924843"
"761","j","SpeechGestureMatch","../RequiredFiles/videos/NeinKopfNein_m.mp4","Ist der Ball in der blauen Box?","Blue","Green","J","negation","match","speech","no","HeadShake","male","gesture-speech","1536","864","firefox","61.1","Windows 10","20","female","right","Wed Oct 23 2024 12:37:38 GMT+0200 (Mitteleuropäische Sommerzeit)","3","33","0","1729680924843"
"837","f","SpeechGestureMatch","../RequiredFiles/videos/NeinKopfNein_f.mp4","Ist der Ball in der grünen Box?","Blue","Green","F","negation","match","speech","no","HeadShake","female","gesture-speech","1536","864","firefox","61.1","Windows 10","20","female","right","Wed Oct 23 2024 12:37:44 GMT+0200 (Mitteleuropäische Sommerzeit)","3","34","0","1729680924843"
"825","f","SpeechGestureMatch","../RequiredFiles/videos/NeinKopfNein_f_no_gesture.mp4","Ist der Ball in der blauen Box?","Green","Blue","F","negation","na","speech","no","na","female","gesture-speech","1536","864","firefox","61.1","Windows 10","20","female","right","Wed Oct 23 2024 12:37:51 GMT+0200 (Mitteleuropäische Sommerzeit)","3","35","0","1729680924843"
"1167","j","SpeechGestureMatch","../RequiredFiles/videos/JaKopfNein_f_no_gesture.mp4","Ist der Ball in der grünen Box?","Blue","Green","J","affirmation","na","speech","yes","na","female","gesture-speech","1536","864","firefox","61.1","Windows 10","20","female","right","Wed Oct 23 2024 12:37:57 GMT+0200 (Mitteleuropäische Sommerzeit)","3","36","0","1729680924843"
"799","f","SpeechGestureMatch","../RequiredFiles/videos/NeinKopfJa_f_no_gesture.mp4","Ist der Ball in der grünen Box?","Blue","Green","F","negation","na","speech","no","na","female","gesture-speech","1536","864","firefox","61.1","Windows 10","20","female","right","Wed Oct 23 2024 12:38:04 GMT+0200 (Mitteleuropäische Sommerzeit)","3","37","0","1729680924843"
"916","f","SpeechGestureMatch","../RequiredFiles/videos/JaKopfJa_m_no_gesture.mp4","Ist der Ball in der grünen Box?","Green","Blue","F","affirmation","na","speech","yes","na","male","gesture-speech","1536","864","firefox","61.1","Windows 10","20","female","right","Wed Oct 23 2024 12:38:10 GMT+0200 (Mitteleuropäische Sommerzeit)","3","38","0","1729680924843"
"830","f","SpeechGestureMatch","../RequiredFiles/videos/JaKopfJa_m_no_gesture.mp4","Ist der Ball in der blauen Box?","Blue","Green","F","affirmation","na","speech","yes","na","male","gesture-speech","1536","864","firefox","61.1","Windows 10","20","female","right","Wed Oct 23 2024 12:38:17 GMT+0200 (Mitteleuropäische Sommerzeit)","3","39","0","1729680924843"
"1111","f","SpeechGestureMatch","../RequiredFiles/videos/JaKopfNein_f.mp4","Ist der Ball in der blauen Box?","Blue","Green","F","affirmation","mismatch","speech","yes","HeadShake","female","gesture-speech","1536","864","firefox","61.1","Windows 10","20","female","right","Wed Oct 23 2024 12:38:23 GMT+0200 (Mitteleuropäische Sommerzeit)","3","40","0","1729680924843"
"990","j","SpeechGestureMatch","../RequiredFiles/videos/NeinKopfNein_f.mp4","Ist der Ball in der grünen Box?","Green","Blue","J","negation","match","speech","no","HeadShake","female","gesture-speech","1536","864","firefox","61.1","Windows 10","20","female","right","Wed Oct 23 2024 12:38:30 GMT+0200 (Mitteleuropäische Sommerzeit)","3","41","0","1729680924843"
"947","j","SpeechGestureMatch","../RequiredFiles/videos/JaKopfNein_f_no_gesture.mp4","Ist der Ball in der blauen Box?","Green","Blue","J","affirmation","na","speech","yes","na","female","gesture-speech","1536","864","firefox","61.1","Windows 10","20","female","right","Wed Oct 23 2024 12:38:36 GMT+0200 (Mitteleuropäische Sommerzeit)","3","42","0","1729680924843"
"942","f","SpeechGestureMatch","../RequiredFiles/videos/JaKopfNein_m.mp4","Ist der Ball in der grünen Box?","Green","Blue","F","affirmation","mismatch","speech","yes","HeadShake","male","gesture-speech","1536","864","firefox","61.1","Windows 10","20","female","right","Wed Oct 23 2024 12:38:43 GMT+0200 (Mitteleuropäische Sommerzeit)","3","43","0","1729680924843"
"436","j","SpeechGestureMatch","../RequiredFiles/videos/JaKopfNein_m.mp4","Ist der Ball in der blauen Box?","Green","Blue","J","affirmation","mismatch","speech","yes","HeadShake","male","gesture-speech","1536","864","firefox","61.1","Windows 10","20","female","right","Wed Oct 23 2024 12:38:49 GMT+0200 (Mitteleuropäische Sommerzeit)","3","44","0","1729680924843"
"333","f","SpeechGestureMatch","../RequiredFiles/videos/JaKopfJa_f.mp4","Ist der Ball in der grünen Box?","Blue","Green","J","affirmation","match","speech","yes","HeadNod","female","gesture-speech","1536","864","firefox","61.1","Windows 10","20","female","right","Wed Oct 23 2024 12:38:55 GMT+0200 (Mitteleuropäische Sommerzeit)","3","45","1","1729680924843"
"584","j","SpeechGestureMatch","../RequiredFiles/videos/NeinKopfJa_f_no_gesture.mp4","Ist der Ball in der blauen Box?","Green","Blue","F","negation","na","speech","no","na","female","gesture-speech","1536","864","firefox","61.1","Windows 10","20","female","right","Wed Oct 23 2024 12:39:01 GMT+0200 (Mitteleuropäische Sommerzeit)","3","46","1","1729680924843"
"1922","j","SpeechGestureMatch","../RequiredFiles/videos/JaKopfJa_f_no_gesture.mp4","Ist der Ball in der blauen Box?","Green","Blue","J","affirmation","na","speech","yes","na","female","gesture-speech","1536","864","firefox","61.1","Windows 10","20","female","right","Wed Oct 23 2024 12:39:09 GMT+0200 (Mitteleuropäische Sommerzeit)","3","47","0","1729680924843"
"870","j","SpeechGestureMatch","../RequiredFiles/videos/NeinKopfJa_m_no_gesture.mp4","Ist der Ball in der blauen Box?","Blue","Green","J","negation","na","speech","no","na","male","gesture-speech","1536","864","firefox","61.1","Windows 10","20","female","right","Wed Oct 23 2024 12:39:15 GMT+0200 (Mitteleuropäische Sommerzeit)","3","48","0","1729680924843"
"825","f","SpeechGestureMatch","../RequiredFiles/videos/NeinKopfJa_m_no_gesture.mp4","Ist der Ball in der blauen Box?","Green","Blue","F","negation","na","speech","no","na","male","gesture-speech","1536","864","firefox","61.1","Windows 10","20","female","right","Wed Oct 23 2024 12:39:22 GMT+0200 (Mitteleuropäische Sommerzeit)","3","49","0","1729680924843"
"714","j","SpeechGestureMatch","../RequiredFiles/videos/NeinKopfNein_m.mp4","Ist der Ball in der blauen Box?","Blue","Green","J","negation","match","speech","no","HeadShake","male","gesture-speech","1536","864","firefox","61.1","Windows 10","20","female","right","Wed Oct 23 2024 12:39:28 GMT+0200 (Mitteleuropäische Sommerzeit)","3","50","0","1729680924843"
"922","f","SpeechGestureMatch","../RequiredFiles/videos/JaKopfJa_f.mp4","Ist der Ball in der grünen Box?","Green","Blue","F","affirmation","match","speech","yes","HeadNod","female","gesture-speech","1536","864","firefox","61.1","Windows 10","20","female","right","Wed Oct 23 2024 12:39:35 GMT+0200 (Mitteleuropäische Sommerzeit)","3","51","0","1729680924843"
"705","j","SpeechGestureMatch","../RequiredFiles/videos/NeinKopfNein_f.mp4","Ist der Ball in der grünen Box?","Green","Blue","J","negation","match","speech","no","HeadShake","female","gesture-speech","1536","864","firefox","61.1","Windows 10","20","female","right","Wed Oct 23 2024 12:39:41 GMT+0200 (Mitteleuropäische Sommerzeit)","3","52","0","1729680924843"
"870","f","SpeechGestureMatch","../RequiredFiles/videos/NeinKopfJa_f.mp4","Ist der Ball in der blauen Box?","Green","Blue","F","negation","mismatch","speech","no","HeadNod","female","gesture-speech","1536","864","firefox","61.1","Windows 10","20","female","right","Wed Oct 23 2024 12:39:47 GMT+0200 (Mitteleuropäische Sommerzeit)","3","53","0","1729680924843"
"965","f","SpeechGestureMatch","../RequiredFiles/videos/JaKopfJa_f_no_gesture.mp4","Ist der Ball in der grünen Box?","Green","Blue","F","affirmation","na","speech","yes","na","female","gesture-speech","1536","864","firefox","61.1","Windows 10","20","female","right","Wed Oct 23 2024 12:39:54 GMT+0200 (Mitteleuropäische Sommerzeit)","3","54","0","1729680924843"
"903","f","SpeechGestureMatch","../RequiredFiles/videos/NeinKopfJa_f.mp4","Ist der Ball in der blauen Box?","Green","Blue","F","negation","mismatch","speech","no","HeadNod","female","gesture-speech","1536","864","firefox","61.1","Windows 10","20","female","right","Wed Oct 23 2024 12:40:01 GMT+0200 (Mitteleuropäische Sommerzeit)","3","55","0","1729680924843"
"962","f","SpeechGestureMatch","../RequiredFiles/videos/JaKopfNein_f_no_gesture.mp4","Ist der Ball in der grünen Box?","Green","Blue","F","affirmation","na","speech","yes","na","female","gesture-speech","1536","864","firefox","61.1","Windows 10","20","female","right","Wed Oct 23 2024 12:40:07 GMT+0200 (Mitteleuropäische Sommerzeit)","3","56","0","1729680924843"
"824","f","SpeechGestureMatch","../RequiredFiles/videos/JaKopfNein_m_no_gesture.mp4","Ist der Ball in der blauen Box?","Blue","Green","F","affirmation","na","speech","yes","na","male","gesture-speech","1536","864","firefox","61.1","Windows 10","20","female","right","Wed Oct 23 2024 12:40:13 GMT+0200 (Mitteleuropäische Sommerzeit)","3","57","0","1729680924843"
"935","j","SpeechGestureMatch","../RequiredFiles/videos/JaKopfJa_m_no_gesture.mp4","Ist der Ball in der grünen Box?","Blue","Green","J","affirmation","na","speech","yes","na","male","gesture-speech","1536","864","firefox","61.1","Windows 10","20","female","right","Wed Oct 23 2024 12:40:20 GMT+0200 (Mitteleuropäische Sommerzeit)","3","58","0","1729680924843"
"2934","f","SpeechGestureMatch","../RequiredFiles/videos/JaKopfNein_f.mp4","Ist der Ball in der blauen Box?","Green","Blue","J","affirmation","mismatch","speech","yes","HeadShake","female","gesture-speech","1536","864","firefox","61.1","Windows 10","20","female","right","Wed Oct 23 2024 12:40:29 GMT+0200 (Mitteleuropäische Sommerzeit)","3","59","1","1729680924843"
"1868","j","SpeechGestureMatch","../RequiredFiles/videos/NeinKopfNein_f.mp4","Ist der Ball in der blauen Box?","Blue","Green","J","negation","match","speech","no","HeadShake","female","gesture-speech","1536","864","firefox","61.1","Windows 10","20","female","right","Wed Oct 23 2024 12:40:36 GMT+0200 (Mitteleuropäische Sommerzeit)","3","60","0","1729680924843"
"917","j","SpeechGestureMatch","../RequiredFiles/videos/JaKopfJa_f.mp4","Ist der Ball in der blauen Box?","Green","Blue","J","affirmation","match","speech","yes","HeadNod","female","gesture-speech","1536","864","firefox","61.1","Windows 10","20","female","right","Wed Oct 23 2024 12:40:43 GMT+0200 (Mitteleuropäische Sommerzeit)","3","61","0","1729680924843"
"1059","f","SpeechGestureMatch","../RequiredFiles/videos/JaKopfNein_m.mp4","Ist der Ball in der grünen Box?","Blue","Green","J","affirmation","mismatch","speech","yes","HeadShake","male","gesture-speech","1536","864","firefox","61.1","Windows 10","20","female","right","Wed Oct 23 2024 12:40:49 GMT+0200 (Mitteleuropäische Sommerzeit)","3","62","1","1729680924843"
"988","f","SpeechGestureMatch","../RequiredFiles/videos/JaKopfNein_f_no_gesture.mp4","Ist der Ball in der blauen Box?","Blue","Green","F","affirmation","na","speech","yes","na","female","gesture-speech","1536","864","firefox","61.1","Windows 10","20","female","right","Wed Oct 23 2024 12:40:56 GMT+0200 (Mitteleuropäische Sommerzeit)","3","63","0","1729680924843"
"898","j","SpeechGestureMatch","../RequiredFiles/videos/NeinKopfNein_m_no_gesture.mp4","Ist der Ball in der grünen Box?","Green","Blue","J","negation","na","speech","no","na","male","gesture-speech","1536","864","firefox","61.1","Windows 10","20","female","right","Wed Oct 23 2024 12:41:02 GMT+0200 (Mitteleuropäische Sommerzeit)","3","64","0","1729680924843"
"1012","f","SpeechGestureMatch","../RequiredFiles/videos/JaKopfNein_f.mp4","Ist der Ball in der blauen Box?","Blue","Green","F","affirmation","mismatch","speech","yes","HeadShake","female","gesture-speech","1536","864","firefox","61.1","Windows 10","20","female","right","Wed Oct 23 2024 12:41:09 GMT+0200 (Mitteleuropäische Sommerzeit)","3","65","0","1729680924843"
"1023","j","SpeechGestureMatch","../RequiredFiles/videos/NeinKopfNein_m_no_gesture.mp4","Ist der Ball in der blauen Box?","Blue","Green","J","negation","na","speech","no","na","male","gesture-speech","1536","864","firefox","61.1","Windows 10","20","female","right","Wed Oct 23 2024 12:41:16 GMT+0200 (Mitteleuropäische Sommerzeit)","3","66","0","1729680924843"
"778","f","SpeechGestureMatch","../RequiredFiles/videos/JaKopfJa_m.mp4","Ist der Ball in der grünen Box?","Green","Blue","F","affirmation","match","speech","yes","HeadNod","male","gesture-speech","1536","864","firefox","61.1","Windows 10","20","female","right","Wed Oct 23 2024 12:41:22 GMT+0200 (Mitteleuropäische Sommerzeit)","3","67","0","1729680924843"
"823","f","SpeechGestureMatch","../RequiredFiles/videos/NeinKopfNein_f.mp4","Ist der Ball in der blauen Box?","Green","Blue","F","negation","match","speech","no","HeadShake","female","gesture-speech","1536","864","firefox","61.1","Windows 10","20","female","right","Wed Oct 23 2024 12:41:28 GMT+0200 (Mitteleuropäische Sommerzeit)","3","68","0","1729680924843"
"969","j","SpeechGestureMatch","../RequiredFiles/videos/JaKopfNein_m_no_gesture.mp4","Ist der Ball in der grünen Box?","Blue","Green","J","affirmation","na","speech","yes","na","male","gesture-speech","1536","864","firefox","61.1","Windows 10","20","female","right","Wed Oct 23 2024 12:41:35 GMT+0200 (Mitteleuropäische Sommerzeit)","3","69","0","1729680924843"
"1202","j","SpeechGestureMatch","../RequiredFiles/videos/NeinKopfNein_f_no_gesture.mp4","Ist der Ball in der blauen Box?","Blue","Green","J","negation","na","speech","no","na","female","gesture-speech","1536","864","firefox","61.1","Windows 10","20","female","right","Wed Oct 23 2024 12:41:41 GMT+0200 (Mitteleuropäische Sommerzeit)","3","70","0","1729680924843"
"891","j","SpeechGestureMatch","../RequiredFiles/videos/NeinKopfJa_f.mp4","Ist der Ball in der blauen Box?","Blue","Green","J","negation","mismatch","speech","no","HeadNod","female","gesture-speech","1536","864","firefox","61.1","Windows 10","20","female","right","Wed Oct 23 2024 12:41:48 GMT+0200 (Mitteleuropäische Sommerzeit)","3","71","0","1729680924843"
"725","j","SpeechGestureMatch","../RequiredFiles/videos/NeinKopfJa_m.mp4","Ist der Ball in der blauen Box?","Blue","Green","J","negation","mismatch","speech","no","HeadNod","male","gesture-speech","1536","864","firefox","61.1","Windows 10","20","female","right","Wed Oct 23 2024 12:41:54 GMT+0200 (Mitteleuropäische Sommerzeit)","3","72","0","1729680924843"
"853","f","SpeechGestureMatch","../RequiredFiles/videos/JaKopfJa_m.mp4","Ist der Ball in der blauen Box?","Blue","Green","F","affirmation","match","speech","yes","HeadNod","male","gesture-speech","1536","864","firefox","61.1","Windows 10","20","female","right","Wed Oct 23 2024 12:42:01 GMT+0200 (Mitteleuropäische Sommerzeit)","3","73","0","1729680924843"
"871","f","SpeechGestureMatch","../RequiredFiles/videos/JaKopfJa_f.mp4","Ist der Ball in der grünen Box?","Green","Blue","F","affirmation","match","speech","yes","HeadNod","female","gesture-speech","1536","864","firefox","61.1","Windows 10","20","female","right","Wed Oct 23 2024 12:42:07 GMT+0200 (Mitteleuropäische Sommerzeit)","3","74","0","1729680924843"
"809","j","SpeechGestureMatch","../RequiredFiles/videos/JaKopfJa_m.mp4","Ist der Ball in der blauen Box?","Green","Blue","J","affirmation","match","speech","yes","HeadNod","male","gesture-speech","1536","864","firefox","61.1","Windows 10","20","female","right","Wed Oct 23 2024 12:42:13 GMT+0200 (Mitteleuropäische Sommerzeit)","3","75","0","1729680924843"
"925","j","SpeechGestureMatch","../RequiredFiles/videos/JaKopfNein_m.mp4","Ist der Ball in der blauen Box?","Green","Blue","J","affirmation","mismatch","speech","yes","HeadShake","male","gesture-speech","1536","864","firefox","61.1","Windows 10","20","female","right","Wed Oct 23 2024 12:42:20 GMT+0200 (Mitteleuropäische Sommerzeit)","3","76","0","1729680924843"
"862","f","SpeechGestureMatch","../RequiredFiles/videos/NeinKopfNein_f_no_gesture.mp4","Ist der Ball in der grünen Box?","Blue","Green","F","negation","na","speech","no","na","female","gesture-speech","1536","864","firefox","61.1","Windows 10","20","female","right","Wed Oct 23 2024 12:42:26 GMT+0200 (Mitteleuropäische Sommerzeit)","3","77","0","1729680924843"
"1123","j","SpeechGestureMatch","../RequiredFiles/videos/JaKopfNein_f.mp4","Ist der Ball in der grünen Box?","Blue","Green","J","affirmation","mismatch","speech","yes","HeadShake","female","gesture-speech","1536","864","firefox","61.1","Windows 10","20","female","right","Wed Oct 23 2024 12:42:33 GMT+0200 (Mitteleuropäische Sommerzeit)","3","78","0","1729680924843"
"894","f","SpeechGestureMatch","../RequiredFiles/videos/NeinKopfNein_f.mp4","Ist der Ball in der blauen Box?","Green","Blue","F","negation","match","speech","no","HeadShake","female","gesture-speech","1536","864","firefox","61.1","Windows 10","20","female","right","Wed Oct 23 2024 12:42:39 GMT+0200 (Mitteleuropäische Sommerzeit)","3","79","0","1729680924843"
"1017","j","SpeechGestureMatch","../RequiredFiles/videos/NeinKopfJa_m.mp4","Ist der Ball in der blauen Box?","Blue","Green","J","negation","mismatch","speech","no","HeadNod","male","gesture-speech","1536","864","firefox","61.1","Windows 10","20","female","right","Wed Oct 23 2024 12:42:46 GMT+0200 (Mitteleuropäische Sommerzeit)","3","80","0","1729680924843"
"987","f","SpeechGestureMatch","../RequiredFiles/videos/NeinKopfJa_f.mp4","Ist der Ball in der grünen Box?","Blue","Green","F","negation","mismatch","speech","no","HeadNod","female","gesture-speech","1536","864","firefox","61.1","Windows 10","20","female","right","Wed Oct 23 2024 12:42:53 GMT+0200 (Mitteleuropäische Sommerzeit)","3","81","0","1729680924843"
"874","f","SpeechGestureMatch","../RequiredFiles/videos/NeinKopfNein_m.mp4","Ist der Ball in der grünen Box?","Blue","Green","F","negation","match","speech","no","HeadShake","male","gesture-speech","1536","864","firefox","61.1","Windows 10","20","female","right","Wed Oct 23 2024 12:42:59 GMT+0200 (Mitteleuropäische Sommerzeit)","3","82","0","1729680924843"
