"rt","response","stim","video","question","box_colour_left","box_colour_right","correct_key","polarity","matching","modality","verbal","gesture","speaker","order","width","height","browser","vsync_rate","os","age","gender","handedness","date","blockNum","trialNum","error","vpNum"
"777","f","SpeechGestureMatch","../RequiredFiles/videos/JaDaumenhoch_f.mp4","Ist der Ball in der blauen Box?","Blue","Green","F","affirmation","match","speech","yes","ThumbUp","female","speech-gesture","1536","864","chrome","60.77","Windows 10","21","female","right","Tue Oct 22 2024 20:51:01 GMT+0200 (Mitteleuropäische Sommerzeit)","1","1","0","1729625897705"
"751","j","SpeechGestureMatch","../RequiredFiles/videos/NeinDaumenrunter_m.mp4","Ist der Ball in der grünen Box?","Green","Blue","J","negation","match","speech","no","ThumbDown","male","speech-gesture","1536","864","chrome","60.77","Windows 10","21","female","right","Tue Oct 22 2024 20:51:07 GMT+0200 (Mitteleuropäische Sommerzeit)","1","2","0","1729625897705"
"780","j","SpeechGestureMatch","../RequiredFiles/videos/JaDaumenrunter_f.mp4","Ist der Ball in der grünen Box?","Blue","Green","J","affirmation","mismatch","speech","yes","ThumbDown","female","speech-gesture","1536","864","chrome","60.77","Windows 10","21","female","right","Tue Oct 22 2024 20:51:14 GMT+0200 (Mitteleuropäische Sommerzeit)","1","3","0","1729625897705"
"793","f","SpeechGestureMatch","../RequiredFiles/videos/JaDaumenhoch_f.mp4","Ist der Ball in der grünen Box?","Green","Blue","F","affirmation","match","speech","yes","ThumbUp","female","speech-gesture","1536","864","chrome","60.77","Windows 10","21","female","right","Tue Oct 22 2024 20:51:20 GMT+0200 (Mitteleuropäische Sommerzeit)","1","4","0","1729625897705"
"723","f","SpeechGestureMatch","../RequiredFiles/videos/JaDaumenhoch_m.mp4","Ist der Ball in der grünen Box?","Green","Blue","F","affirmation","match","speech","yes","ThumbUp","male","speech-gesture","1536","864","chrome","60.77","Windows 10","21","female","right","Tue Oct 22 2024 20:51:26 GMT+0200 (Mitteleuropäische Sommerzeit)","1","5","0","1729625897705"
"831","j","SpeechGestureMatch","../RequiredFiles/videos/JaDaumenrunter_f.mp4","Ist der Ball in der blauen Box?","Green","Blue","J","affirmation","mismatch","speech","yes","ThumbDown","female","speech-gesture","1536","864","chrome","60.77","Windows 10","21","female","right","Tue Oct 22 2024 20:51:33 GMT+0200 (Mitteleuropäische Sommerzeit)","1","6","0","1729625897705"
"680","f","SpeechGestureMatch","../RequiredFiles/videos/JaDaumenhoch_m.mp4","Ist der Ball in der blauen Box?","Blue","Green","F","affirmation","match","speech","yes","ThumbUp","male","speech-gesture","1536","864","chrome","60.77","Windows 10","21","female","right","Tue Oct 22 2024 20:51:39 GMT+0200 (Mitteleuropäische Sommerzeit)","1","7","0","1729625897705"
"829","f","SpeechGestureMatch","../RequiredFiles/videos/JaDaumenhoch_f_no_gesture.mp4","Ist der Ball in der blauen Box?","Blue","Green","F","affirmation","na","speech","yes","na","female","speech-gesture","1536","864","chrome","60.77","Windows 10","21","female","right","Tue Oct 22 2024 20:51:45 GMT+0200 (Mitteleuropäische Sommerzeit)","1","8","0","1729625897705"
"661","j","SpeechGestureMatch","../RequiredFiles/videos/JaDaumenrunter_m.mp4","Ist der Ball in der blauen Box?","Green","Blue","J","affirmation","mismatch","speech","yes","ThumbDown","male","speech-gesture","1536","864","chrome","60.77","Windows 10","21","female","right","Tue Oct 22 2024 20:51:52 GMT+0200 (Mitteleuropäische Sommerzeit)","1","9","0","1729625897705"
"665","j","SpeechGestureMatch","../RequiredFiles/videos/NeinDaumenhoch_m_no_gesture.mp4","Ist der Ball in der grünen Box?","Green","Blue","J","negation","na","speech","no","na","male","speech-gesture","1536","864","chrome","60.77","Windows 10","21","female","right","Tue Oct 22 2024 20:51:58 GMT+0200 (Mitteleuropäische Sommerzeit)","1","10","0","1729625897705"
"727","j","SpeechGestureMatch","../RequiredFiles/videos/NeinDaumenrunter_m_no_gesture.mp4","Ist der Ball in der blauen Box?","Blue","Green","J","negation","na","speech","no","na","male","speech-gesture","1536","864","chrome","60.77","Windows 10","21","female","right","Tue Oct 22 2024 20:52:04 GMT+0200 (Mitteleuropäische Sommerzeit)","1","11","0","1729625897705"
"850","f","SpeechGestureMatch","../RequiredFiles/videos/NeinDaumenhoch_m.mp4","Ist der Ball in der blauen Box?","Green","Blue","F","negation","mismatch","speech","no","ThumbUp","male","speech-gesture","1536","864","chrome","60.77","Windows 10","21","female","right","Tue Oct 22 2024 20:52:10 GMT+0200 (Mitteleuropäische Sommerzeit)","1","12","0","1729625897705"
"801","f","SpeechGestureMatch","../RequiredFiles/videos/NeinDaumenrunter_f.mp4","Ist der Ball in der grünen Box?","Blue","Green","F","negation","match","speech","no","ThumbDown","female","speech-gesture","1536","864","chrome","60.77","Windows 10","21","female","right","Tue Oct 22 2024 20:52:17 GMT+0200 (Mitteleuropäische Sommerzeit)","1","13","0","1729625897705"
"779","j","SpeechGestureMatch","../RequiredFiles/videos/JaDaumenrunter_f_no_gesture.mp4","Ist der Ball in der blauen Box?","Green","Blue","J","affirmation","na","speech","yes","na","female","speech-gesture","1536","864","chrome","60.77","Windows 10","21","female","right","Tue Oct 22 2024 20:52:23 GMT+0200 (Mitteleuropäische Sommerzeit)","1","14","0","1729625897705"
"1042","j","SpeechGestureMatch","../RequiredFiles/videos/NeinDaumenrunter_f.mp4","Ist der Ball in der blauen Box?","Blue","Green","J","negation","match","speech","no","ThumbDown","female","speech-gesture","1536","864","chrome","60.77","Windows 10","21","female","right","Tue Oct 22 2024 20:52:30 GMT+0200 (Mitteleuropäische Sommerzeit)","1","15","0","1729625897705"
"1016","j","SpeechGestureMatch","../RequiredFiles/videos/NeinDaumenhoch_m.mp4","Ist der Ball in der blauen Box?","Blue","Green","J","negation","mismatch","speech","no","ThumbUp","male","speech-gesture","1536","864","chrome","60.77","Windows 10","21","female","right","Tue Oct 22 2024 20:52:36 GMT+0200 (Mitteleuropäische Sommerzeit)","1","16","0","1729625897705"
"889","f","SpeechGestureMatch","../RequiredFiles/videos/JaDaumenrunter_f.mp4","Ist der Ball in der grünen Box?","Green","Blue","F","affirmation","mismatch","speech","yes","ThumbDown","female","speech-gesture","1536","864","chrome","60.77","Windows 10","21","female","right","Tue Oct 22 2024 20:52:43 GMT+0200 (Mitteleuropäische Sommerzeit)","1","17","0","1729625897705"
"750","f","SpeechGestureMatch","../RequiredFiles/videos/JaDaumenhoch_m_no_gesture.mp4","Ist der Ball in der blauen Box?","Blue","Green","F","affirmation","na","speech","yes","na","male","speech-gesture","1536","864","chrome","60.77","Windows 10","21","female","right","Tue Oct 22 2024 20:52:49 GMT+0200 (Mitteleuropäische Sommerzeit)","1","18","0","1729625897705"
"787","f","SpeechGestureMatch","../RequiredFiles/videos/NeinDaumenrunter_f_no_gesture.mp4","Ist der Ball in der blauen Box?","Green","Blue","F","negation","na","speech","no","na","female","speech-gesture","1536","864","chrome","60.77","Windows 10","21","female","right","Tue Oct 22 2024 20:52:55 GMT+0200 (Mitteleuropäische Sommerzeit)","1","19","0","1729625897705"
"775","j","SpeechGestureMatch","../RequiredFiles/videos/JaDaumenhoch_f.mp4","Ist der Ball in der blauen Box?","Green","Blue","J","affirmation","match","speech","yes","ThumbUp","female","speech-gesture","1536","864","chrome","60.77","Windows 10","21","female","right","Tue Oct 22 2024 20:53:02 GMT+0200 (Mitteleuropäische Sommerzeit)","1","20","0","1729625897705"
"874","j","SpeechGestureMatch","../RequiredFiles/videos/NeinDaumenhoch_f_no_gesture.mp4","Ist der Ball in der blauen Box?","Blue","Green","J","negation","na","speech","no","na","female","speech-gesture","1536","864","chrome","60.77","Windows 10","21","female","right","Tue Oct 22 2024 20:53:08 GMT+0200 (Mitteleuropäische Sommerzeit)","1","21","0","1729625897705"
"850","j","SpeechGestureMatch","../RequiredFiles/videos/NeinDaumenhoch_f.mp4","Ist der Ball in der blauen Box?","Blue","Green","J","negation","mismatch","speech","no","ThumbUp","female","speech-gesture","1536","864","chrome","60.77","Windows 10","21","female","right","Tue Oct 22 2024 20:53:14 GMT+0200 (Mitteleuropäische Sommerzeit)","1","22","0","1729625897705"
"779","j","SpeechGestureMatch","../RequiredFiles/videos/NeinDaumenrunter_f.mp4","Ist der Ball in der grünen Box?","Green","Blue","J","negation","match","speech","no","ThumbDown","female","speech-gesture","1536","864","chrome","60.77","Windows 10","21","female","right","Tue Oct 22 2024 20:53:21 GMT+0200 (Mitteleuropäische Sommerzeit)","1","23","0","1729625897705"
"764","f","SpeechGestureMatch","../RequiredFiles/videos/JaDaumenrunter_f.mp4","Ist der Ball in der blauen Box?","Blue","Green","F","affirmation","mismatch","speech","yes","ThumbDown","female","speech-gesture","1536","864","chrome","60.77","Windows 10","21","female","right","Tue Oct 22 2024 20:53:27 GMT+0200 (Mitteleuropäische Sommerzeit)","1","24","0","1729625897705"
"796","j","SpeechGestureMatch","../RequiredFiles/videos/NeinDaumenhoch_m.mp4","Ist der Ball in der grünen Box?","Green","Blue","J","negation","mismatch","speech","no","ThumbUp","male","speech-gesture","1536","864","chrome","60.77","Windows 10","21","female","right","Tue Oct 22 2024 20:53:33 GMT+0200 (Mitteleuropäische Sommerzeit)","1","25","0","1729625897705"
"1015","j","SpeechGestureMatch","../RequiredFiles/videos/NeinDaumenrunter_f_no_gesture.mp4","Ist der Ball in der grünen Box?","Green","Blue","J","negation","na","speech","no","na","female","speech-gesture","1536","864","chrome","60.77","Windows 10","21","female","right","Tue Oct 22 2024 20:53:40 GMT+0200 (Mitteleuropäische Sommerzeit)","1","26","0","1729625897705"
"882","f","SpeechGestureMatch","../RequiredFiles/videos/JaDaumenrunter_f.mp4","Ist der Ball in der blauen Box?","Blue","Green","F","affirmation","mismatch","speech","yes","ThumbDown","female","speech-gesture","1536","864","chrome","60.77","Windows 10","21","female","right","Tue Oct 22 2024 20:53:46 GMT+0200 (Mitteleuropäische Sommerzeit)","1","27","0","1729625897705"
"801","f","SpeechGestureMatch","../RequiredFiles/videos/JaDaumenrunter_f_no_gesture.mp4","Ist der Ball in der grünen Box?","Green","Blue","F","affirmation","na","speech","yes","na","female","speech-gesture","1536","864","chrome","60.77","Windows 10","21","female","right","Tue Oct 22 2024 20:53:53 GMT+0200 (Mitteleuropäische Sommerzeit)","1","28","0","1729625897705"
"706","f","SpeechGestureMatch","../RequiredFiles/videos/NeinDaumenrunter_m.mp4","Ist der Ball in der blauen Box?","Green","Blue","F","negation","match","speech","no","ThumbDown","male","speech-gesture","1536","864","chrome","60.77","Windows 10","21","female","right","Tue Oct 22 2024 20:53:59 GMT+0200 (Mitteleuropäische Sommerzeit)","1","29","0","1729625897705"
"884","f","SpeechGestureMatch","../RequiredFiles/videos/JaDaumenrunter_m.mp4","Ist der Ball in der grünen Box?","Green","Blue","F","affirmation","mismatch","speech","yes","ThumbDown","male","speech-gesture","1536","864","chrome","60.77","Windows 10","21","female","right","Tue Oct 22 2024 20:54:05 GMT+0200 (Mitteleuropäische Sommerzeit)","1","30","0","1729625897705"
"763","f","SpeechGestureMatch","../RequiredFiles/videos/JaDaumenhoch_f.mp4","Ist der Ball in der grünen Box?","Green","Blue","F","affirmation","match","speech","yes","ThumbUp","female","speech-gesture","1536","864","chrome","60.77","Windows 10","21","female","right","Tue Oct 22 2024 20:54:12 GMT+0200 (Mitteleuropäische Sommerzeit)","1","31","0","1729625897705"
"745","j","SpeechGestureMatch","../RequiredFiles/videos/JaDaumenhoch_m.mp4","Ist der Ball in der blauen Box?","Green","Blue","J","affirmation","match","speech","yes","ThumbUp","male","speech-gesture","1536","864","chrome","60.77","Windows 10","21","female","right","Tue Oct 22 2024 20:54:18 GMT+0200 (Mitteleuropäische Sommerzeit)","1","32","0","1729625897705"
"768","f","SpeechGestureMatch","../RequiredFiles/videos/JaDaumenrunter_m_no_gesture.mp4","Ist der Ball in der grünen Box?","Green","Blue","F","affirmation","na","speech","yes","na","male","speech-gesture","1536","864","chrome","60.77","Windows 10","21","female","right","Tue Oct 22 2024 20:54:24 GMT+0200 (Mitteleuropäische Sommerzeit)","1","33","0","1729625897705"
"782","f","SpeechGestureMatch","../RequiredFiles/videos/JaDaumenrunter_m.mp4","Ist der Ball in der blauen Box?","Blue","Green","F","affirmation","mismatch","speech","yes","ThumbDown","male","speech-gesture","1536","864","chrome","60.77","Windows 10","21","female","right","Tue Oct 22 2024 20:54:31 GMT+0200 (Mitteleuropäische Sommerzeit)","1","34","0","1729625897705"
"797","j","SpeechGestureMatch","../RequiredFiles/videos/JaDaumenrunter_f_no_gesture.mp4","Ist der Ball in der grünen Box?","Blue","Green","J","affirmation","na","speech","yes","na","female","speech-gesture","1536","864","chrome","60.77","Windows 10","21","female","right","Tue Oct 22 2024 20:54:37 GMT+0200 (Mitteleuropäische Sommerzeit)","1","35","0","1729625897705"
"733","j","SpeechGestureMatch","../RequiredFiles/videos/JaDaumenhoch_f_no_gesture.mp4","Ist der Ball in der blauen Box?","Green","Blue","J","affirmation","na","speech","yes","na","female","speech-gesture","1536","864","chrome","60.77","Windows 10","21","female","right","Tue Oct 22 2024 20:54:43 GMT+0200 (Mitteleuropäische Sommerzeit)","1","36","0","1729625897705"
"754","j","SpeechGestureMatch","../RequiredFiles/videos/NeinDaumenrunter_m.mp4","Ist der Ball in der blauen Box?","Blue","Green","J","negation","match","speech","no","ThumbDown","male","speech-gesture","1536","864","chrome","60.77","Windows 10","21","female","right","Tue Oct 22 2024 20:54:50 GMT+0200 (Mitteleuropäische Sommerzeit)","1","37","0","1729625897705"
"770","f","SpeechGestureMatch","../RequiredFiles/videos/NeinDaumenrunter_m.mp4","Ist der Ball in der blauen Box?","Green","Blue","F","negation","match","speech","no","ThumbDown","male","speech-gesture","1536","864","chrome","60.77","Windows 10","21","female","right","Tue Oct 22 2024 20:54:56 GMT+0200 (Mitteleuropäische Sommerzeit)","1","38","0","1729625897705"
"954","f","SpeechGestureMatch","../RequiredFiles/videos/NeinDaumenhoch_f.mp4","Ist der Ball in der grünen Box?","Blue","Green","F","negation","mismatch","speech","no","ThumbUp","female","speech-gesture","1536","864","chrome","60.77","Windows 10","21","female","right","Tue Oct 22 2024 20:55:02 GMT+0200 (Mitteleuropäische Sommerzeit)","1","39","0","1729625897705"
"847","f","SpeechGestureMatch","../RequiredFiles/videos/NeinDaumenhoch_m.mp4","Ist der Ball in der grünen Box?","Blue","Green","F","negation","mismatch","speech","no","ThumbUp","male","speech-gesture","1536","864","chrome","60.77","Windows 10","21","female","right","Tue Oct 22 2024 20:55:09 GMT+0200 (Mitteleuropäische Sommerzeit)","1","40","0","1729625897705"
"752","f","SpeechGestureMatch","../RequiredFiles/videos/NeinDaumenrunter_m_no_gesture.mp4","Ist der Ball in der blauen Box?","Green","Blue","F","negation","na","speech","no","na","male","speech-gesture","1536","864","chrome","60.77","Windows 10","21","female","right","Tue Oct 22 2024 20:55:15 GMT+0200 (Mitteleuropäische Sommerzeit)","1","41","0","1729625897705"
"812","f","SpeechGestureMatch","../RequiredFiles/videos/NeinDaumenhoch_f.mp4","Ist der Ball in der grünen Box?","Blue","Green","F","negation","mismatch","speech","no","ThumbUp","female","speech-gesture","1536","864","chrome","60.77","Windows 10","21","female","right","Tue Oct 22 2024 20:55:21 GMT+0200 (Mitteleuropäische Sommerzeit)","1","42","0","1729625897705"
"899","j","SpeechGestureMatch","../RequiredFiles/videos/JaDaumenrunter_m.mp4","Ist der Ball in der grünen Box?","Blue","Green","J","affirmation","mismatch","speech","yes","ThumbDown","male","speech-gesture","1536","864","chrome","60.77","Windows 10","21","female","right","Tue Oct 22 2024 20:55:28 GMT+0200 (Mitteleuropäische Sommerzeit)","1","43","0","1729625897705"
"766","j","SpeechGestureMatch","../RequiredFiles/videos/JaDaumenhoch_f.mp4","Ist der Ball in der blauen Box?","Green","Blue","J","affirmation","match","speech","yes","ThumbUp","female","speech-gesture","1536","864","chrome","60.77","Windows 10","21","female","right","Tue Oct 22 2024 20:55:34 GMT+0200 (Mitteleuropäische Sommerzeit)","1","44","0","1729625897705"
"760","j","SpeechGestureMatch","../RequiredFiles/videos/JaDaumenhoch_m_no_gesture.mp4","Ist der Ball in der blauen Box?","Green","Blue","J","affirmation","na","speech","yes","na","male","speech-gesture","1536","864","chrome","60.77","Windows 10","21","female","right","Tue Oct 22 2024 20:55:40 GMT+0200 (Mitteleuropäische Sommerzeit)","1","45","0","1729625897705"
"738","j","SpeechGestureMatch","../RequiredFiles/videos/JaDaumenhoch_f_no_gesture.mp4","Ist der Ball in der grünen Box?","Blue","Green","J","affirmation","na","speech","yes","na","female","speech-gesture","1536","864","chrome","60.77","Windows 10","21","female","right","Tue Oct 22 2024 20:55:47 GMT+0200 (Mitteleuropäische Sommerzeit)","1","46","0","1729625897705"
"752","j","SpeechGestureMatch","../RequiredFiles/videos/NeinDaumenhoch_f.mp4","Ist der Ball in der blauen Box?","Green","Blue","F","negation","mismatch","speech","no","ThumbUp","female","speech-gesture","1536","864","chrome","60.77","Windows 10","21","female","right","Tue Oct 22 2024 20:55:53 GMT+0200 (Mitteleuropäische Sommerzeit)","1","47","1","1729625897705"
"749","f","SpeechGestureMatch","../RequiredFiles/videos/NeinDaumenrunter_f.mp4","Ist der Ball in der blauen Box?","Green","Blue","F","negation","match","speech","no","ThumbDown","female","speech-gesture","1536","864","chrome","60.77","Windows 10","21","female","right","Tue Oct 22 2024 20:55:59 GMT+0200 (Mitteleuropäische Sommerzeit)","1","48","0","1729625897705"
"721","f","SpeechGestureMatch","../RequiredFiles/videos/JaDaumenrunter_m_no_gesture.mp4","Ist der Ball in der blauen Box?","Blue","Green","F","affirmation","na","speech","yes","na","male","speech-gesture","1536","864","chrome","60.77","Windows 10","21","female","right","Tue Oct 22 2024 20:56:06 GMT+0200 (Mitteleuropäische Sommerzeit)","1","49","0","1729625897705"
"1037","f","SpeechGestureMatch","../RequiredFiles/videos/JaDaumenhoch_f.mp4","Ist der Ball in der blauen Box?","Blue","Green","F","affirmation","match","speech","yes","ThumbUp","female","speech-gesture","1536","864","chrome","60.77","Windows 10","21","female","right","Tue Oct 22 2024 20:56:12 GMT+0200 (Mitteleuropäische Sommerzeit)","1","50","0","1729625897705"
"907","f","SpeechGestureMatch","../RequiredFiles/videos/NeinDaumenhoch_m_no_gesture.mp4","Ist der Ball in der blauen Box?","Green","Blue","F","negation","na","speech","no","na","male","speech-gesture","1536","864","chrome","60.77","Windows 10","21","female","right","Tue Oct 22 2024 20:56:19 GMT+0200 (Mitteleuropäische Sommerzeit)","1","51","0","1729625897705"
"784","j","SpeechGestureMatch","../RequiredFiles/videos/NeinDaumenrunter_m.mp4","Ist der Ball in der grünen Box?","Green","Blue","J","negation","match","speech","no","ThumbDown","male","speech-gesture","1536","864","chrome","60.77","Windows 10","21","female","right","Tue Oct 22 2024 20:56:25 GMT+0200 (Mitteleuropäische Sommerzeit)","1","52","0","1729625897705"
"714","j","SpeechGestureMatch","../RequiredFiles/videos/JaDaumenhoch_m.mp4","Ist der Ball in der grünen Box?","Blue","Green","J","affirmation","match","speech","yes","ThumbUp","male","speech-gesture","1536","864","chrome","60.77","Windows 10","21","female","right","Tue Oct 22 2024 20:56:31 GMT+0200 (Mitteleuropäische Sommerzeit)","1","53","0","1729625897705"
"827","f","SpeechGestureMatch","../RequiredFiles/videos/NeinDaumenhoch_f.mp4","Ist der Ball in der blauen Box?","Green","Blue","F","negation","mismatch","speech","no","ThumbUp","female","speech-gesture","1536","864","chrome","60.77","Windows 10","21","female","right","Tue Oct 22 2024 20:56:38 GMT+0200 (Mitteleuropäische Sommerzeit)","1","54","0","1729625897705"
"775","j","SpeechGestureMatch","../RequiredFiles/videos/NeinDaumenrunter_m_no_gesture.mp4","Ist der Ball in der grünen Box?","Green","Blue","J","negation","na","speech","no","na","male","speech-gesture","1536","864","chrome","60.77","Windows 10","21","female","right","Tue Oct 22 2024 20:56:44 GMT+0200 (Mitteleuropäische Sommerzeit)","1","55","0","1729625897705"
"874","j","SpeechGestureMatch","../RequiredFiles/videos/NeinDaumenhoch_f.mp4","Ist der Ball in der grünen Box?","Green","Blue","J","negation","mismatch","speech","no","ThumbUp","female","speech-gesture","1536","864","chrome","60.77","Windows 10","21","female","right","Tue Oct 22 2024 20:56:50 GMT+0200 (Mitteleuropäische Sommerzeit)","1","56","0","1729625897705"
"775","f","SpeechGestureMatch","../RequiredFiles/videos/NeinDaumenrunter_f.mp4","Ist der Ball in der blauen Box?","Green","Blue","F","negation","match","speech","no","ThumbDown","female","speech-gesture","1536","864","chrome","60.77","Windows 10","21","female","right","Tue Oct 22 2024 20:56:57 GMT+0200 (Mitteleuropäische Sommerzeit)","1","57","0","1729625897705"
"840","f","SpeechGestureMatch","../RequiredFiles/videos/NeinDaumenrunter_m_no_gesture.mp4","Ist der Ball in der grünen Box?","Blue","Green","F","negation","na","speech","no","na","male","speech-gesture","1536","864","chrome","60.77","Windows 10","21","female","right","Tue Oct 22 2024 20:57:03 GMT+0200 (Mitteleuropäische Sommerzeit)","1","58","0","1729625897705"
"672","j","SpeechGestureMatch","../RequiredFiles/videos/JaDaumenrunter_m_no_gesture.mp4","Ist der Ball in der blauen Box?","Green","Blue","J","affirmation","na","speech","yes","na","male","speech-gesture","1536","864","chrome","60.77","Windows 10","21","female","right","Tue Oct 22 2024 20:57:09 GMT+0200 (Mitteleuropäische Sommerzeit)","1","59","0","1729625897705"
"790","f","SpeechGestureMatch","../RequiredFiles/videos/NeinDaumenhoch_m.mp4","Ist der Ball in der blauen Box?","Green","Blue","F","negation","mismatch","speech","no","ThumbUp","male","speech-gesture","1536","864","chrome","60.77","Windows 10","21","female","right","Tue Oct 22 2024 20:57:16 GMT+0200 (Mitteleuropäische Sommerzeit)","1","60","0","1729625897705"
"812","j","SpeechGestureMatch","../RequiredFiles/videos/JaDaumenrunter_m.mp4","Ist der Ball in der blauen Box?","Green","Blue","J","affirmation","mismatch","speech","yes","ThumbDown","male","speech-gesture","1536","864","chrome","60.77","Windows 10","21","female","right","Tue Oct 22 2024 20:57:22 GMT+0200 (Mitteleuropäische Sommerzeit)","1","61","0","1729625897705"
"836","j","SpeechGestureMatch","../RequiredFiles/videos/JaDaumenrunter_f.mp4","Ist der Ball in der blauen Box?","Green","Blue","J","affirmation","mismatch","speech","yes","ThumbDown","female","speech-gesture","1536","864","chrome","60.77","Windows 10","21","female","right","Tue Oct 22 2024 20:57:28 GMT+0200 (Mitteleuropäische Sommerzeit)","1","62","0","1729625897705"
"710","f","SpeechGestureMatch","../RequiredFiles/videos/NeinDaumenrunter_m.mp4","Ist der Ball in der grünen Box?","Blue","Green","F","negation","match","speech","no","ThumbDown","male","speech-gesture","1536","864","chrome","60.77","Windows 10","21","female","right","Tue Oct 22 2024 20:57:35 GMT+0200 (Mitteleuropäische Sommerzeit)","1","63","0","1729625897705"
"723","f","SpeechGestureMatch","../RequiredFiles/videos/JaDaumenrunter_m.mp4","Ist der Ball in der grünen Box?","Green","Blue","F","affirmation","mismatch","speech","yes","ThumbDown","male","speech-gesture","1536","864","chrome","60.77","Windows 10","21","female","right","Tue Oct 22 2024 20:57:41 GMT+0200 (Mitteleuropäische Sommerzeit)","1","64","0","1729625897705"
"858","f","SpeechGestureMatch","../RequiredFiles/videos/NeinDaumenrunter_f.mp4","Ist der Ball in der grünen Box?","Blue","Green","F","negation","match","speech","no","ThumbDown","female","speech-gesture","1536","864","chrome","60.77","Windows 10","21","female","right","Tue Oct 22 2024 20:57:47 GMT+0200 (Mitteleuropäische Sommerzeit)","1","65","0","1729625897705"
"719","f","SpeechGestureMatch","../RequiredFiles/videos/NeinDaumenhoch_f_no_gesture.mp4","Ist der Ball in der blauen Box?","Green","Blue","F","negation","na","speech","no","na","female","speech-gesture","1536","864","chrome","60.77","Windows 10","21","female","right","Tue Oct 22 2024 20:57:53 GMT+0200 (Mitteleuropäische Sommerzeit)","1","66","0","1729625897705"
"852","f","SpeechGestureMatch","../RequiredFiles/videos/JaDaumenrunter_m.mp4","Ist der Ball in der blauen Box?","Blue","Green","F","affirmation","mismatch","speech","yes","ThumbDown","male","speech-gesture","1536","864","chrome","60.77","Windows 10","21","female","right","Tue Oct 22 2024 20:58:00 GMT+0200 (Mitteleuropäische Sommerzeit)","1","67","0","1729625897705"
"793","j","SpeechGestureMatch","../RequiredFiles/videos/NeinDaumenrunter_f.mp4","Ist der Ball in der blauen Box?","Blue","Green","J","negation","match","speech","no","ThumbDown","female","speech-gesture","1536","864","chrome","60.77","Windows 10","21","female","right","Tue Oct 22 2024 20:58:06 GMT+0200 (Mitteleuropäische Sommerzeit)","1","68","0","1729625897705"
"742","f","SpeechGestureMatch","../RequiredFiles/videos/JaDaumenrunter_f_no_gesture.mp4","Ist der Ball in der blauen Box?","Blue","Green","F","affirmation","na","speech","yes","na","female","speech-gesture","1536","864","chrome","60.77","Windows 10","21","female","right","Tue Oct 22 2024 20:58:13 GMT+0200 (Mitteleuropäische Sommerzeit)","1","69","0","1729625897705"
"653","f","SpeechGestureMatch","../RequiredFiles/videos/NeinDaumenhoch_m.mp4","Ist der Ball in der grünen Box?","Blue","Green","F","negation","mismatch","speech","no","ThumbUp","male","speech-gesture","1536","864","chrome","60.77","Windows 10","21","female","right","Tue Oct 22 2024 20:58:19 GMT+0200 (Mitteleuropäische Sommerzeit)","1","70","0","1729625897705"
"643","f","SpeechGestureMatch","../RequiredFiles/videos/NeinDaumenrunter_m.mp4","Ist der Ball in der grünen Box?","Blue","Green","F","negation","match","speech","no","ThumbDown","male","speech-gesture","1536","864","chrome","60.77","Windows 10","21","female","right","Tue Oct 22 2024 20:58:25 GMT+0200 (Mitteleuropäische Sommerzeit)","1","71","0","1729625897705"
"878","j","SpeechGestureMatch","../RequiredFiles/videos/NeinDaumenhoch_m_no_gesture.mp4","Ist der Ball in der blauen Box?","Blue","Green","J","negation","na","speech","no","na","male","speech-gesture","1536","864","chrome","60.77","Windows 10","21","female","right","Tue Oct 22 2024 20:58:31 GMT+0200 (Mitteleuropäische Sommerzeit)","1","72","0","1729625897705"
"731","j","SpeechGestureMatch","../RequiredFiles/videos/JaDaumenhoch_f.mp4","Ist der Ball in der grünen Box?","Blue","Green","J","affirmation","match","speech","yes","ThumbUp","female","speech-gesture","1536","864","chrome","60.77","Windows 10","21","female","right","Tue Oct 22 2024 20:58:38 GMT+0200 (Mitteleuropäische Sommerzeit)","1","73","0","1729625897705"
"846","f","SpeechGestureMatch","../RequiredFiles/videos/JaDaumenhoch_f_no_gesture.mp4","Ist der Ball in der grünen Box?","Green","Blue","F","affirmation","na","speech","yes","na","female","speech-gesture","1536","864","chrome","60.77","Windows 10","21","female","right","Tue Oct 22 2024 20:58:44 GMT+0200 (Mitteleuropäische Sommerzeit)","1","74","0","1729625897705"
"791","j","SpeechGestureMatch","../RequiredFiles/videos/JaDaumenhoch_f.mp4","Ist der Ball in der grünen Box?","Blue","Green","J","affirmation","match","speech","yes","ThumbUp","female","speech-gesture","1536","864","chrome","60.77","Windows 10","21","female","right","Tue Oct 22 2024 20:58:50 GMT+0200 (Mitteleuropäische Sommerzeit)","1","75","0","1729625897705"
"710","j","SpeechGestureMatch","../RequiredFiles/videos/JaDaumenhoch_m.mp4","Ist der Ball in der grünen Box?","Blue","Green","J","affirmation","match","speech","yes","ThumbUp","male","speech-gesture","1536","864","chrome","60.77","Windows 10","21","female","right","Tue Oct 22 2024 20:58:57 GMT+0200 (Mitteleuropäische Sommerzeit)","1","76","0","1729625897705"
"692","j","SpeechGestureMatch","../RequiredFiles/videos/NeinDaumenhoch_f.mp4","Ist der Ball in der blauen Box?","Blue","Green","J","negation","mismatch","speech","no","ThumbUp","female","speech-gesture","1536","864","chrome","60.77","Windows 10","21","female","right","Tue Oct 22 2024 20:59:03 GMT+0200 (Mitteleuropäische Sommerzeit)","1","77","0","1729625897705"
"904","j","SpeechGestureMatch","../RequiredFiles/videos/NeinDaumenhoch_f.mp4","Ist der Ball in der grünen Box?","Green","Blue","J","negation","mismatch","speech","no","ThumbUp","female","speech-gesture","1536","864","chrome","60.77","Windows 10","21","female","right","Tue Oct 22 2024 20:59:09 GMT+0200 (Mitteleuropäische Sommerzeit)","1","78","0","1729625897705"
"989","f","SpeechGestureMatch","../RequiredFiles/videos/JaDaumenhoch_m_no_gesture.mp4","Ist der Ball in der grünen Box?","Green","Blue","F","affirmation","na","speech","yes","na","male","speech-gesture","1536","864","chrome","60.77","Windows 10","21","female","right","Tue Oct 22 2024 20:59:16 GMT+0200 (Mitteleuropäische Sommerzeit)","1","79","0","1729625897705"
"777","j","SpeechGestureMatch","../RequiredFiles/videos/JaDaumenrunter_m_no_gesture.mp4","Ist der Ball in der grünen Box?","Blue","Green","J","affirmation","na","speech","yes","na","male","speech-gesture","1536","864","chrome","60.77","Windows 10","21","female","right","Tue Oct 22 2024 20:59:22 GMT+0200 (Mitteleuropäische Sommerzeit)","1","80","0","1729625897705"
"629","f","SpeechGestureMatch","../RequiredFiles/videos/JaDaumenhoch_m.mp4","Ist der Ball in der blauen Box?","Blue","Green","F","affirmation","match","speech","yes","ThumbUp","male","speech-gesture","1536","864","chrome","60.77","Windows 10","21","female","right","Tue Oct 22 2024 20:59:28 GMT+0200 (Mitteleuropäische Sommerzeit)","1","81","0","1729625897705"
"685","j","SpeechGestureMatch","../RequiredFiles/videos/JaDaumenhoch_m_no_gesture.mp4","Ist der Ball in der grünen Box?","Blue","Green","J","affirmation","na","speech","yes","na","male","speech-gesture","1536","864","chrome","60.77","Windows 10","21","female","right","Tue Oct 22 2024 20:59:35 GMT+0200 (Mitteleuropäische Sommerzeit)","1","82","0","1729625897705"
"728","f","SpeechGestureMatch","../RequiredFiles/videos/JaDaumenhoch_m.mp4","Ist der Ball in der grünen Box?","Green","Blue","F","affirmation","match","speech","yes","ThumbUp","male","speech-gesture","1536","864","chrome","60.77","Windows 10","21","female","right","Tue Oct 22 2024 20:59:41 GMT+0200 (Mitteleuropäische Sommerzeit)","1","83","0","1729625897705"
"850","j","SpeechGestureMatch","../RequiredFiles/videos/NeinDaumenrunter_f.mp4","Ist der Ball in der grünen Box?","Green","Blue","J","negation","match","speech","no","ThumbDown","female","speech-gesture","1536","864","chrome","60.77","Windows 10","21","female","right","Tue Oct 22 2024 20:59:47 GMT+0200 (Mitteleuropäische Sommerzeit)","1","84","0","1729625897705"
"1133","j","SpeechGestureMatch","../RequiredFiles/videos/NeinDaumenrunter_m.mp4","Ist der Ball in der blauen Box?","Blue","Green","J","negation","match","speech","no","ThumbDown","male","speech-gesture","1536","864","chrome","60.77","Windows 10","21","female","right","Tue Oct 22 2024 20:59:54 GMT+0200 (Mitteleuropäische Sommerzeit)","1","85","0","1729625897705"
"984","j","SpeechGestureMatch","../RequiredFiles/videos/NeinDaumenhoch_f_no_gesture.mp4","Ist der Ball in der grünen Box?","Green","Blue","J","negation","na","speech","no","na","female","speech-gesture","1536","864","chrome","60.77","Windows 10","21","female","right","Tue Oct 22 2024 21:00:00 GMT+0200 (Mitteleuropäische Sommerzeit)","1","86","0","1729625897705"
"793","f","SpeechGestureMatch","../RequiredFiles/videos/JaDaumenrunter_f.mp4","Ist der Ball in der grünen Box?","Green","Blue","F","affirmation","mismatch","speech","yes","ThumbDown","female","speech-gesture","1536","864","chrome","60.77","Windows 10","21","female","right","Tue Oct 22 2024 21:00:07 GMT+0200 (Mitteleuropäische Sommerzeit)","1","87","0","1729625897705"
"835","f","SpeechGestureMatch","../RequiredFiles/videos/JaDaumenhoch_m.mp4","Ist der Ball in der blauen Box?","Green","Blue","J","affirmation","match","speech","yes","ThumbUp","male","speech-gesture","1536","864","chrome","60.77","Windows 10","21","female","right","Tue Oct 22 2024 21:00:13 GMT+0200 (Mitteleuropäische Sommerzeit)","1","88","1","1729625897705"
"891","f","SpeechGestureMatch","../RequiredFiles/videos/NeinDaumenrunter_f_no_gesture.mp4","Ist der Ball in der grünen Box?","Blue","Green","F","negation","na","speech","no","na","female","speech-gesture","1536","864","chrome","60.77","Windows 10","21","female","right","Tue Oct 22 2024 21:00:20 GMT+0200 (Mitteleuropäische Sommerzeit)","1","89","0","1729625897705"
"873","j","SpeechGestureMatch","../RequiredFiles/videos/NeinDaumenrunter_f_no_gesture.mp4","Ist der Ball in der blauen Box?","Blue","Green","J","negation","na","speech","no","na","female","speech-gesture","1536","864","chrome","60.77","Windows 10","21","female","right","Tue Oct 22 2024 21:00:26 GMT+0200 (Mitteleuropäische Sommerzeit)","1","90","0","1729625897705"
"754","j","SpeechGestureMatch","../RequiredFiles/videos/JaDaumenrunter_f.mp4","Ist der Ball in der grünen Box?","Blue","Green","J","affirmation","mismatch","speech","yes","ThumbDown","female","speech-gesture","1536","864","chrome","60.77","Windows 10","21","female","right","Tue Oct 22 2024 21:00:32 GMT+0200 (Mitteleuropäische Sommerzeit)","1","91","0","1729625897705"
"758","j","SpeechGestureMatch","../RequiredFiles/videos/NeinDaumenhoch_m.mp4","Ist der Ball in der grünen Box?","Green","Blue","J","negation","mismatch","speech","no","ThumbUp","male","speech-gesture","1536","864","chrome","60.77","Windows 10","21","female","right","Tue Oct 22 2024 21:00:39 GMT+0200 (Mitteleuropäische Sommerzeit)","1","92","0","1729625897705"
"798","f","SpeechGestureMatch","../RequiredFiles/videos/NeinDaumenhoch_m_no_gesture.mp4","Ist der Ball in der grünen Box?","Blue","Green","F","negation","na","speech","no","na","male","speech-gesture","1536","864","chrome","60.77","Windows 10","21","female","right","Tue Oct 22 2024 21:00:45 GMT+0200 (Mitteleuropäische Sommerzeit)","1","93","0","1729625897705"
"929","j","SpeechGestureMatch","../RequiredFiles/videos/JaDaumenrunter_m.mp4","Ist der Ball in der grünen Box?","Blue","Green","J","affirmation","mismatch","speech","yes","ThumbDown","male","speech-gesture","1536","864","chrome","60.77","Windows 10","21","female","right","Tue Oct 22 2024 21:00:51 GMT+0200 (Mitteleuropäische Sommerzeit)","1","94","0","1729625897705"
"763","f","SpeechGestureMatch","../RequiredFiles/videos/NeinDaumenhoch_f_no_gesture.mp4","Ist der Ball in der grünen Box?","Blue","Green","F","negation","na","speech","no","na","female","speech-gesture","1536","864","chrome","60.77","Windows 10","21","female","right","Tue Oct 22 2024 21:00:58 GMT+0200 (Mitteleuropäische Sommerzeit)","1","95","0","1729625897705"
"867","j","SpeechGestureMatch","../RequiredFiles/videos/NeinDaumenhoch_m.mp4","Ist der Ball in der blauen Box?","Blue","Green","J","negation","mismatch","speech","no","ThumbUp","male","speech-gesture","1536","864","chrome","60.77","Windows 10","21","female","right","Tue Oct 22 2024 21:01:04 GMT+0200 (Mitteleuropäische Sommerzeit)","1","96","0","1729625897705"
"1298","f","SpeechGestureMatch","../RequiredFiles/videos/JaDaumenhoch_f.mp4","Ist der Ball in der blauen Box?","Blue","Green","F","affirmation","match","speech","yes","ThumbUp","female","speech-gesture","1536","864","chrome","60.77","Windows 10","21","female","right","Tue Oct 22 2024 21:01:22 GMT+0200 (Mitteleuropäische Sommerzeit)","2","1","0","1729625897705"
"973","f","SpeechGestureMatch","../RequiredFiles/videos/NeinDaumenrunter_f.mp4","Ist der Ball in der blauen Box?","Green","Blue","F","negation","match","speech","no","ThumbDown","female","speech-gesture","1536","864","chrome","60.77","Windows 10","21","female","right","Tue Oct 22 2024 21:01:29 GMT+0200 (Mitteleuropäische Sommerzeit)","2","2","0","1729625897705"
"783","j","SpeechGestureMatch","../RequiredFiles/videos/JaDaumenhoch_m_no_gesture.mp4","Ist der Ball in der grünen Box?","Blue","Green","J","affirmation","na","speech","yes","na","male","speech-gesture","1536","864","chrome","60.77","Windows 10","21","female","right","Tue Oct 22 2024 21:01:35 GMT+0200 (Mitteleuropäische Sommerzeit)","2","3","0","1729625897705"
"928","j","SpeechGestureMatch","../RequiredFiles/videos/NeinDaumenhoch_f.mp4","Ist der Ball in der grünen Box?","Green","Blue","J","negation","mismatch","speech","no","ThumbUp","female","speech-gesture","1536","864","chrome","60.77","Windows 10","21","female","right","Tue Oct 22 2024 21:01:42 GMT+0200 (Mitteleuropäische Sommerzeit)","2","4","0","1729625897705"
"1000","j","SpeechGestureMatch","../RequiredFiles/videos/NeinDaumenhoch_f.mp4","Ist der Ball in der blauen Box?","Blue","Green","J","negation","mismatch","speech","no","ThumbUp","female","speech-gesture","1536","864","chrome","60.77","Windows 10","21","female","right","Tue Oct 22 2024 21:01:48 GMT+0200 (Mitteleuropäische Sommerzeit)","2","5","0","1729625897705"
"1009","f","SpeechGestureMatch","../RequiredFiles/videos/NeinDaumenrunter_f.mp4","Ist der Ball in der blauen Box?","Green","Blue","F","negation","match","speech","no","ThumbDown","female","speech-gesture","1536","864","chrome","60.77","Windows 10","21","female","right","Tue Oct 22 2024 21:01:55 GMT+0200 (Mitteleuropäische Sommerzeit)","2","6","0","1729625897705"
"758","j","SpeechGestureMatch","../RequiredFiles/videos/JaDaumenhoch_m.mp4","Ist der Ball in der grünen Box?","Green","Blue","F","affirmation","match","speech","yes","ThumbUp","male","speech-gesture","1536","864","chrome","60.77","Windows 10","21","female","right","Tue Oct 22 2024 21:02:01 GMT+0200 (Mitteleuropäische Sommerzeit)","2","7","1","1729625897705"
"825","f","SpeechGestureMatch","../RequiredFiles/videos/JaDaumenrunter_m.mp4","Ist der Ball in der grünen Box?","Green","Blue","F","affirmation","mismatch","speech","yes","ThumbDown","male","speech-gesture","1536","864","chrome","60.77","Windows 10","21","female","right","Tue Oct 22 2024 21:02:07 GMT+0200 (Mitteleuropäische Sommerzeit)","2","8","0","1729625897705"
"739","f","SpeechGestureMatch","../RequiredFiles/videos/NeinDaumenhoch_m_no_gesture.mp4","Ist der Ball in der grünen Box?","Blue","Green","F","negation","na","speech","no","na","male","speech-gesture","1536","864","chrome","60.77","Windows 10","21","female","right","Tue Oct 22 2024 21:02:14 GMT+0200 (Mitteleuropäische Sommerzeit)","2","9","0","1729625897705"
"861","f","SpeechGestureMatch","../RequiredFiles/videos/JaDaumenrunter_f_no_gesture.mp4","Ist der Ball in der blauen Box?","Blue","Green","F","affirmation","na","speech","yes","na","female","speech-gesture","1536","864","chrome","60.77","Windows 10","21","female","right","Tue Oct 22 2024 21:02:20 GMT+0200 (Mitteleuropäische Sommerzeit)","2","10","0","1729625897705"
"903","j","SpeechGestureMatch","../RequiredFiles/videos/JaDaumenhoch_f.mp4","Ist der Ball in der blauen Box?","Green","Blue","J","affirmation","match","speech","yes","ThumbUp","female","speech-gesture","1536","864","chrome","60.77","Windows 10","21","female","right","Tue Oct 22 2024 21:02:27 GMT+0200 (Mitteleuropäische Sommerzeit)","2","11","0","1729625897705"
"768","j","SpeechGestureMatch","../RequiredFiles/videos/NeinDaumenrunter_f.mp4","Ist der Ball in der grünen Box?","Green","Blue","J","negation","match","speech","no","ThumbDown","female","speech-gesture","1536","864","chrome","60.77","Windows 10","21","female","right","Tue Oct 22 2024 21:02:33 GMT+0200 (Mitteleuropäische Sommerzeit)","2","12","0","1729625897705"
"812","f","SpeechGestureMatch","../RequiredFiles/videos/JaDaumenhoch_f.mp4","Ist der Ball in der blauen Box?","Blue","Green","F","affirmation","match","speech","yes","ThumbUp","female","speech-gesture","1536","864","chrome","60.77","Windows 10","21","female","right","Tue Oct 22 2024 21:02:39 GMT+0200 (Mitteleuropäische Sommerzeit)","2","13","0","1729625897705"
"732","f","SpeechGestureMatch","../RequiredFiles/videos/NeinDaumenhoch_f.mp4","Ist der Ball in der grünen Box?","Blue","Green","F","negation","mismatch","speech","no","ThumbUp","female","speech-gesture","1536","864","chrome","60.77","Windows 10","21","female","right","Tue Oct 22 2024 21:02:45 GMT+0200 (Mitteleuropäische Sommerzeit)","2","14","0","1729625897705"
"853","j","SpeechGestureMatch","../RequiredFiles/videos/NeinDaumenrunter_m.mp4","Ist der Ball in der grünen Box?","Green","Blue","J","negation","match","speech","no","ThumbDown","male","speech-gesture","1536","864","chrome","60.77","Windows 10","21","female","right","Tue Oct 22 2024 21:02:52 GMT+0200 (Mitteleuropäische Sommerzeit)","2","15","0","1729625897705"
"796","f","SpeechGestureMatch","../RequiredFiles/videos/NeinDaumenrunter_m_no_gesture.mp4","Ist der Ball in der grünen Box?","Blue","Green","F","negation","na","speech","no","na","male","speech-gesture","1536","864","chrome","60.77","Windows 10","21","female","right","Tue Oct 22 2024 21:02:58 GMT+0200 (Mitteleuropäische Sommerzeit)","2","16","0","1729625897705"
"832","j","SpeechGestureMatch","../RequiredFiles/videos/NeinDaumenrunter_m.mp4","Ist der Ball in der blauen Box?","Blue","Green","J","negation","match","speech","no","ThumbDown","male","speech-gesture","1536","864","chrome","60.77","Windows 10","21","female","right","Tue Oct 22 2024 21:03:05 GMT+0200 (Mitteleuropäische Sommerzeit)","2","17","0","1729625897705"
"949","f","SpeechGestureMatch","../RequiredFiles/videos/NeinDaumenrunter_m.mp4","Ist der Ball in der blauen Box?","Green","Blue","F","negation","match","speech","no","ThumbDown","male","speech-gesture","1536","864","chrome","60.77","Windows 10","21","female","right","Tue Oct 22 2024 21:03:11 GMT+0200 (Mitteleuropäische Sommerzeit)","2","18","0","1729625897705"
"851","j","SpeechGestureMatch","../RequiredFiles/videos/JaDaumenhoch_f.mp4","Ist der Ball in der blauen Box?","Green","Blue","J","affirmation","match","speech","yes","ThumbUp","female","speech-gesture","1536","864","chrome","60.77","Windows 10","21","female","right","Tue Oct 22 2024 21:03:17 GMT+0200 (Mitteleuropäische Sommerzeit)","2","19","0","1729625897705"
"767","j","SpeechGestureMatch","../RequiredFiles/videos/NeinDaumenhoch_m.mp4","Ist der Ball in der grünen Box?","Blue","Green","F","negation","mismatch","speech","no","ThumbUp","male","speech-gesture","1536","864","chrome","60.77","Windows 10","21","female","right","Tue Oct 22 2024 21:03:24 GMT+0200 (Mitteleuropäische Sommerzeit)","2","20","1","1729625897705"
"780","f","SpeechGestureMatch","../RequiredFiles/videos/JaDaumenhoch_m_no_gesture.mp4","Ist der Ball in der blauen Box?","Blue","Green","F","affirmation","na","speech","yes","na","male","speech-gesture","1536","864","chrome","60.77","Windows 10","21","female","right","Tue Oct 22 2024 21:03:30 GMT+0200 (Mitteleuropäische Sommerzeit)","2","21","0","1729625897705"
"776","f","SpeechGestureMatch","../RequiredFiles/videos/JaDaumenhoch_f.mp4","Ist der Ball in der grünen Box?","Green","Blue","F","affirmation","match","speech","yes","ThumbUp","female","speech-gesture","1536","864","chrome","60.77","Windows 10","21","female","right","Tue Oct 22 2024 21:03:36 GMT+0200 (Mitteleuropäische Sommerzeit)","2","22","0","1729625897705"
"1066","f","SpeechGestureMatch","../RequiredFiles/videos/NeinDaumenrunter_m.mp4","Ist der Ball in der grünen Box?","Blue","Green","F","negation","match","speech","no","ThumbDown","male","speech-gesture","1536","864","chrome","60.77","Windows 10","21","female","right","Tue Oct 22 2024 21:03:43 GMT+0200 (Mitteleuropäische Sommerzeit)","2","23","0","1729625897705"
"767","j","SpeechGestureMatch","../RequiredFiles/videos/JaDaumenrunter_m.mp4","Ist der Ball in der blauen Box?","Green","Blue","J","affirmation","mismatch","speech","yes","ThumbDown","male","speech-gesture","1536","864","chrome","60.77","Windows 10","21","female","right","Tue Oct 22 2024 21:03:49 GMT+0200 (Mitteleuropäische Sommerzeit)","2","24","0","1729625897705"
"1004","f","SpeechGestureMatch","../RequiredFiles/videos/JaDaumenhoch_f_no_gesture.mp4","Ist der Ball in der grünen Box?","Green","Blue","F","affirmation","na","speech","yes","na","female","speech-gesture","1536","864","chrome","60.77","Windows 10","21","female","right","Tue Oct 22 2024 21:03:56 GMT+0200 (Mitteleuropäische Sommerzeit)","2","25","0","1729625897705"
"1003","j","SpeechGestureMatch","../RequiredFiles/videos/NeinDaumenrunter_f_no_gesture.mp4","Ist der Ball in der grünen Box?","Green","Blue","J","negation","na","speech","no","na","female","speech-gesture","1536","864","chrome","60.77","Windows 10","21","female","right","Tue Oct 22 2024 21:04:02 GMT+0200 (Mitteleuropäische Sommerzeit)","2","26","0","1729625897705"
"888","j","SpeechGestureMatch","../RequiredFiles/videos/NeinDaumenhoch_m.mp4","Ist der Ball in der blauen Box?","Blue","Green","J","negation","mismatch","speech","no","ThumbUp","male","speech-gesture","1536","864","chrome","60.77","Windows 10","21","female","right","Tue Oct 22 2024 21:04:09 GMT+0200 (Mitteleuropäische Sommerzeit)","2","27","0","1729625897705"
"914","j","SpeechGestureMatch","../RequiredFiles/videos/JaDaumenhoch_m.mp4","Ist der Ball in der blauen Box?","Green","Blue","J","affirmation","match","speech","yes","ThumbUp","male","speech-gesture","1536","864","chrome","60.77","Windows 10","21","female","right","Tue Oct 22 2024 21:04:15 GMT+0200 (Mitteleuropäische Sommerzeit)","2","28","0","1729625897705"
"866","j","SpeechGestureMatch","../RequiredFiles/videos/JaDaumenrunter_f.mp4","Ist der Ball in der blauen Box?","Green","Blue","J","affirmation","mismatch","speech","yes","ThumbDown","female","speech-gesture","1536","864","chrome","60.77","Windows 10","21","female","right","Tue Oct 22 2024 21:04:22 GMT+0200 (Mitteleuropäische Sommerzeit)","2","29","0","1729625897705"
"788","j","SpeechGestureMatch","../RequiredFiles/videos/JaDaumenhoch_f_no_gesture.mp4","Ist der Ball in der blauen Box?","Green","Blue","J","affirmation","na","speech","yes","na","female","speech-gesture","1536","864","chrome","60.77","Windows 10","21","female","right","Tue Oct 22 2024 21:04:28 GMT+0200 (Mitteleuropäische Sommerzeit)","2","30","0","1729625897705"
"716","f","SpeechGestureMatch","../RequiredFiles/videos/JaDaumenhoch_f.mp4","Ist der Ball in der grünen Box?","Blue","Green","J","affirmation","match","speech","yes","ThumbUp","female","speech-gesture","1536","864","chrome","60.77","Windows 10","21","female","right","Tue Oct 22 2024 21:04:34 GMT+0200 (Mitteleuropäische Sommerzeit)","2","31","1","1729625897705"
"1299","j","SpeechGestureMatch","../RequiredFiles/videos/NeinDaumenrunter_f.mp4","Ist der Ball in der blauen Box?","Blue","Green","J","negation","match","speech","no","ThumbDown","female","speech-gesture","1536","864","chrome","60.77","Windows 10","21","female","right","Tue Oct 22 2024 21:04:41 GMT+0200 (Mitteleuropäische Sommerzeit)","2","32","0","1729625897705"
"911","j","SpeechGestureMatch","../RequiredFiles/videos/NeinDaumenrunter_m_no_gesture.mp4","Ist der Ball in der grünen Box?","Green","Blue","J","negation","na","speech","no","na","male","speech-gesture","1536","864","chrome","60.77","Windows 10","21","female","right","Tue Oct 22 2024 21:04:48 GMT+0200 (Mitteleuropäische Sommerzeit)","2","33","0","1729625897705"
"730","j","SpeechGestureMatch","../RequiredFiles/videos/JaDaumenhoch_m.mp4","Ist der Ball in der grünen Box?","Blue","Green","J","affirmation","match","speech","yes","ThumbUp","male","speech-gesture","1536","864","chrome","60.77","Windows 10","21","female","right","Tue Oct 22 2024 21:04:54 GMT+0200 (Mitteleuropäische Sommerzeit)","2","34","0","1729625897705"
"851","j","SpeechGestureMatch","../RequiredFiles/videos/NeinDaumenhoch_f_no_gesture.mp4","Ist der Ball in der blauen Box?","Blue","Green","J","negation","na","speech","no","na","female","speech-gesture","1536","864","chrome","60.77","Windows 10","21","female","right","Tue Oct 22 2024 21:05:00 GMT+0200 (Mitteleuropäische Sommerzeit)","2","35","0","1729625897705"
"776","j","SpeechGestureMatch","../RequiredFiles/videos/NeinDaumenrunter_m_no_gesture.mp4","Ist der Ball in der blauen Box?","Blue","Green","J","negation","na","speech","no","na","male","speech-gesture","1536","864","chrome","60.77","Windows 10","21","female","right","Tue Oct 22 2024 21:05:07 GMT+0200 (Mitteleuropäische Sommerzeit)","2","36","0","1729625897705"
"922","f","SpeechGestureMatch","../RequiredFiles/videos/NeinDaumenhoch_f_no_gesture.mp4","Ist der Ball in der grünen Box?","Blue","Green","F","negation","na","speech","no","na","female","speech-gesture","1536","864","chrome","60.77","Windows 10","21","female","right","Tue Oct 22 2024 21:05:13 GMT+0200 (Mitteleuropäische Sommerzeit)","2","37","0","1729625897705"
"753","f","SpeechGestureMatch","../RequiredFiles/videos/NeinDaumenrunter_m.mp4","Ist der Ball in der grünen Box?","Blue","Green","F","negation","match","speech","no","ThumbDown","male","speech-gesture","1536","864","chrome","60.77","Windows 10","21","female","right","Tue Oct 22 2024 21:05:19 GMT+0200 (Mitteleuropäische Sommerzeit)","2","38","0","1729625897705"
"739","f","SpeechGestureMatch","../RequiredFiles/videos/JaDaumenhoch_f.mp4","Ist der Ball in der grünen Box?","Green","Blue","F","affirmation","match","speech","yes","ThumbUp","female","speech-gesture","1536","864","chrome","60.77","Windows 10","21","female","right","Tue Oct 22 2024 21:05:26 GMT+0200 (Mitteleuropäische Sommerzeit)","2","39","0","1729625897705"
"659","j","SpeechGestureMatch","../RequiredFiles/videos/NeinDaumenhoch_f.mp4","Ist der Ball in der blauen Box?","Blue","Green","J","negation","mismatch","speech","no","ThumbUp","female","speech-gesture","1536","864","chrome","60.77","Windows 10","21","female","right","Tue Oct 22 2024 21:05:32 GMT+0200 (Mitteleuropäische Sommerzeit)","2","40","0","1729625897705"
"751","f","SpeechGestureMatch","../RequiredFiles/videos/NeinDaumenrunter_f.mp4","Ist der Ball in der grünen Box?","Blue","Green","F","negation","match","speech","no","ThumbDown","female","speech-gesture","1536","864","chrome","60.77","Windows 10","21","female","right","Tue Oct 22 2024 21:05:38 GMT+0200 (Mitteleuropäische Sommerzeit)","2","41","0","1729625897705"
"601","f","SpeechGestureMatch","../RequiredFiles/videos/NeinDaumenrunter_m.mp4","Ist der Ball in der grünen Box?","Green","Blue","J","negation","match","speech","no","ThumbDown","male","speech-gesture","1536","864","chrome","60.77","Windows 10","21","female","right","Tue Oct 22 2024 21:05:44 GMT+0200 (Mitteleuropäische Sommerzeit)","2","42","1","1729625897705"
"821","j","SpeechGestureMatch","../RequiredFiles/videos/NeinDaumenhoch_f_no_gesture.mp4","Ist der Ball in der grünen Box?","Green","Blue","J","negation","na","speech","no","na","female","speech-gesture","1536","864","chrome","60.77","Windows 10","21","female","right","Tue Oct 22 2024 21:05:51 GMT+0200 (Mitteleuropäische Sommerzeit)","2","43","0","1729625897705"
"1120","f","SpeechGestureMatch","../RequiredFiles/videos/NeinDaumenhoch_m.mp4","Ist der Ball in der blauen Box?","Green","Blue","F","negation","mismatch","speech","no","ThumbUp","male","speech-gesture","1536","864","chrome","60.77","Windows 10","21","female","right","Tue Oct 22 2024 21:05:57 GMT+0200 (Mitteleuropäische Sommerzeit)","2","44","0","1729625897705"
"1225","j","SpeechGestureMatch","../RequiredFiles/videos/NeinDaumenhoch_f.mp4","Ist der Ball in der grünen Box?","Blue","Green","F","negation","mismatch","speech","no","ThumbUp","female","speech-gesture","1536","864","chrome","60.77","Windows 10","21","female","right","Tue Oct 22 2024 21:06:04 GMT+0200 (Mitteleuropäische Sommerzeit)","2","45","1","1729625897705"
"1078","j","SpeechGestureMatch","../RequiredFiles/videos/JaDaumenrunter_f.mp4","Ist der Ball in der blauen Box?","Green","Blue","J","affirmation","mismatch","speech","yes","ThumbDown","female","speech-gesture","1536","864","chrome","60.77","Windows 10","21","female","right","Tue Oct 22 2024 21:06:11 GMT+0200 (Mitteleuropäische Sommerzeit)","2","46","0","1729625897705"
"763","j","SpeechGestureMatch","../RequiredFiles/videos/JaDaumenhoch_m.mp4","Ist der Ball in der blauen Box?","Green","Blue","J","affirmation","match","speech","yes","ThumbUp","male","speech-gesture","1536","864","chrome","60.77","Windows 10","21","female","right","Tue Oct 22 2024 21:06:17 GMT+0200 (Mitteleuropäische Sommerzeit)","2","47","0","1729625897705"
"859","f","SpeechGestureMatch","../RequiredFiles/videos/NeinDaumenhoch_f.mp4","Ist der Ball in der blauen Box?","Green","Blue","F","negation","mismatch","speech","no","ThumbUp","female","speech-gesture","1536","864","chrome","60.77","Windows 10","21","female","right","Tue Oct 22 2024 21:06:24 GMT+0200 (Mitteleuropäische Sommerzeit)","2","48","0","1729625897705"
"869","j","SpeechGestureMatch","../RequiredFiles/videos/JaDaumenrunter_f_no_gesture.mp4","Ist der Ball in der blauen Box?","Green","Blue","J","affirmation","na","speech","yes","na","female","speech-gesture","1536","864","chrome","60.77","Windows 10","21","female","right","Tue Oct 22 2024 21:06:30 GMT+0200 (Mitteleuropäische Sommerzeit)","2","49","0","1729625897705"
"876","f","SpeechGestureMatch","../RequiredFiles/videos/NeinDaumenhoch_f.mp4","Ist der Ball in der blauen Box?","Green","Blue","F","negation","mismatch","speech","no","ThumbUp","female","speech-gesture","1536","864","chrome","60.77","Windows 10","21","female","right","Tue Oct 22 2024 21:06:36 GMT+0200 (Mitteleuropäische Sommerzeit)","2","50","0","1729625897705"
"893","j","SpeechGestureMatch","../RequiredFiles/videos/NeinDaumenhoch_f.mp4","Ist der Ball in der grünen Box?","Green","Blue","J","negation","mismatch","speech","no","ThumbUp","female","speech-gesture","1536","864","chrome","60.77","Windows 10","21","female","right","Tue Oct 22 2024 21:06:43 GMT+0200 (Mitteleuropäische Sommerzeit)","2","51","0","1729625897705"
"1036","j","SpeechGestureMatch","../RequiredFiles/videos/JaDaumenhoch_f_no_gesture.mp4","Ist der Ball in der grünen Box?","Blue","Green","J","affirmation","na","speech","yes","na","female","speech-gesture","1536","864","chrome","60.77","Windows 10","21","female","right","Tue Oct 22 2024 21:06:49 GMT+0200 (Mitteleuropäische Sommerzeit)","2","52","0","1729625897705"
"818","j","SpeechGestureMatch","../RequiredFiles/videos/NeinDaumenhoch_m.mp4","Ist der Ball in der grünen Box?","Green","Blue","J","negation","mismatch","speech","no","ThumbUp","male","speech-gesture","1536","864","chrome","60.77","Windows 10","21","female","right","Tue Oct 22 2024 21:06:56 GMT+0200 (Mitteleuropäische Sommerzeit)","2","53","0","1729625897705"
"752","f","SpeechGestureMatch","../RequiredFiles/videos/JaDaumenrunter_m.mp4","Ist der Ball in der grünen Box?","Green","Blue","F","affirmation","mismatch","speech","yes","ThumbDown","male","speech-gesture","1536","864","chrome","60.77","Windows 10","21","female","right","Tue Oct 22 2024 21:07:02 GMT+0200 (Mitteleuropäische Sommerzeit)","2","54","0","1729625897705"
"1009","f","SpeechGestureMatch","../RequiredFiles/videos/NeinDaumenrunter_f.mp4","Ist der Ball in der grünen Box?","Blue","Green","F","negation","match","speech","no","ThumbDown","female","speech-gesture","1536","864","chrome","60.77","Windows 10","21","female","right","Tue Oct 22 2024 21:07:09 GMT+0200 (Mitteleuropäische Sommerzeit)","2","55","0","1729625897705"
"796","f","SpeechGestureMatch","../RequiredFiles/videos/JaDaumenhoch_m_no_gesture.mp4","Ist der Ball in der grünen Box?","Green","Blue","F","affirmation","na","speech","yes","na","male","speech-gesture","1536","864","chrome","60.77","Windows 10","21","female","right","Tue Oct 22 2024 21:07:15 GMT+0200 (Mitteleuropäische Sommerzeit)","2","56","0","1729625897705"
"856","f","SpeechGestureMatch","../RequiredFiles/videos/JaDaumenhoch_f_no_gesture.mp4","Ist der Ball in der blauen Box?","Blue","Green","F","affirmation","na","speech","yes","na","female","speech-gesture","1536","864","chrome","60.77","Windows 10","21","female","right","Tue Oct 22 2024 21:07:21 GMT+0200 (Mitteleuropäische Sommerzeit)","2","57","0","1729625897705"
"754","f","SpeechGestureMatch","../RequiredFiles/videos/NeinDaumenhoch_m.mp4","Ist der Ball in der grünen Box?","Blue","Green","F","negation","mismatch","speech","no","ThumbUp","male","speech-gesture","1536","864","chrome","60.77","Windows 10","21","female","right","Tue Oct 22 2024 21:07:28 GMT+0200 (Mitteleuropäische Sommerzeit)","2","58","0","1729625897705"
"1210","f","SpeechGestureMatch","../RequiredFiles/videos/JaDaumenrunter_f.mp4","Ist der Ball in der blauen Box?","Blue","Green","F","affirmation","mismatch","speech","yes","ThumbDown","female","speech-gesture","1536","864","chrome","60.77","Windows 10","21","female","right","Tue Oct 22 2024 21:07:34 GMT+0200 (Mitteleuropäische Sommerzeit)","2","59","0","1729625897705"
"849","j","SpeechGestureMatch","../RequiredFiles/videos/JaDaumenrunter_m_no_gesture.mp4","Ist der Ball in der grünen Box?","Blue","Green","J","affirmation","na","speech","yes","na","male","speech-gesture","1536","864","chrome","60.77","Windows 10","21","female","right","Tue Oct 22 2024 21:07:41 GMT+0200 (Mitteleuropäische Sommerzeit)","2","60","0","1729625897705"
"676","f","SpeechGestureMatch","../RequiredFiles/videos/JaDaumenhoch_m.mp4","Ist der Ball in der blauen Box?","Blue","Green","F","affirmation","match","speech","yes","ThumbUp","male","speech-gesture","1536","864","chrome","60.77","Windows 10","21","female","right","Tue Oct 22 2024 21:07:47 GMT+0200 (Mitteleuropäische Sommerzeit)","2","61","0","1729625897705"
"776","f","SpeechGestureMatch","../RequiredFiles/videos/JaDaumenrunter_m.mp4","Ist der Ball in der blauen Box?","Blue","Green","F","affirmation","mismatch","speech","yes","ThumbDown","male","speech-gesture","1536","864","chrome","60.77","Windows 10","21","female","right","Tue Oct 22 2024 21:07:53 GMT+0200 (Mitteleuropäische Sommerzeit)","2","62","0","1729625897705"
"1005","f","SpeechGestureMatch","../RequiredFiles/videos/NeinDaumenhoch_m_no_gesture.mp4","Ist der Ball in der blauen Box?","Green","Blue","F","negation","na","speech","no","na","male","speech-gesture","1536","864","chrome","60.77","Windows 10","21","female","right","Tue Oct 22 2024 21:08:00 GMT+0200 (Mitteleuropäische Sommerzeit)","2","63","0","1729625897705"
"1050","f","SpeechGestureMatch","../RequiredFiles/videos/NeinDaumenrunter_f_no_gesture.mp4","Ist der Ball in der blauen Box?","Green","Blue","F","negation","na","speech","no","na","female","speech-gesture","1536","864","chrome","60.77","Windows 10","21","female","right","Tue Oct 22 2024 21:08:06 GMT+0200 (Mitteleuropäische Sommerzeit)","2","64","0","1729625897705"
"1609","f","SpeechGestureMatch","../RequiredFiles/videos/JaDaumenhoch_m.mp4","Ist der Ball in der blauen Box?","Blue","Green","F","affirmation","match","speech","yes","ThumbUp","male","speech-gesture","1536","864","chrome","60.77","Windows 10","21","female","right","Tue Oct 22 2024 21:08:14 GMT+0200 (Mitteleuropäische Sommerzeit)","2","65","0","1729625897705"
"1117","j","SpeechGestureMatch","../RequiredFiles/videos/JaDaumenrunter_f.mp4","Ist der Ball in der grünen Box?","Blue","Green","J","affirmation","mismatch","speech","yes","ThumbDown","female","speech-gesture","1536","864","chrome","60.77","Windows 10","21","female","right","Tue Oct 22 2024 21:08:20 GMT+0200 (Mitteleuropäische Sommerzeit)","2","66","0","1729625897705"
"1602","j","SpeechGestureMatch","../RequiredFiles/videos/JaDaumenrunter_m.mp4","Ist der Ball in der blauen Box?","Blue","Green","F","affirmation","mismatch","speech","yes","ThumbDown","male","speech-gesture","1536","864","chrome","60.77","Windows 10","21","female","right","Tue Oct 22 2024 21:08:27 GMT+0200 (Mitteleuropäische Sommerzeit)","2","67","1","1729625897705"
"1046","j","SpeechGestureMatch","../RequiredFiles/videos/NeinDaumenrunter_f.mp4","Ist der Ball in der grünen Box?","Green","Blue","J","negation","match","speech","no","ThumbDown","female","speech-gesture","1536","864","chrome","60.77","Windows 10","21","female","right","Tue Oct 22 2024 21:08:34 GMT+0200 (Mitteleuropäische Sommerzeit)","2","68","0","1729625897705"
"791","f","SpeechGestureMatch","../RequiredFiles/videos/JaDaumenrunter_m_no_gesture.mp4","Ist der Ball in der blauen Box?","Blue","Green","F","affirmation","na","speech","yes","na","male","speech-gesture","1536","864","chrome","60.77","Windows 10","21","female","right","Tue Oct 22 2024 21:08:40 GMT+0200 (Mitteleuropäische Sommerzeit)","2","69","0","1729625897705"
"710","f","SpeechGestureMatch","../RequiredFiles/videos/JaDaumenhoch_m.mp4","Ist der Ball in der grünen Box?","Green","Blue","F","affirmation","match","speech","yes","ThumbUp","male","speech-gesture","1536","864","chrome","60.77","Windows 10","21","female","right","Tue Oct 22 2024 21:08:47 GMT+0200 (Mitteleuropäische Sommerzeit)","2","70","0","1729625897705"
"1149","j","SpeechGestureMatch","../RequiredFiles/videos/NeinDaumenrunter_f_no_gesture.mp4","Ist der Ball in der blauen Box?","Blue","Green","J","negation","na","speech","no","na","female","speech-gesture","1536","864","chrome","60.77","Windows 10","21","female","right","Tue Oct 22 2024 21:08:53 GMT+0200 (Mitteleuropäische Sommerzeit)","2","71","0","1729625897705"
"985","f","SpeechGestureMatch","../RequiredFiles/videos/JaDaumenrunter_f_no_gesture.mp4","Ist der Ball in der grünen Box?","Green","Blue","F","affirmation","na","speech","yes","na","female","speech-gesture","1536","864","chrome","60.77","Windows 10","21","female","right","Tue Oct 22 2024 21:09:00 GMT+0200 (Mitteleuropäische Sommerzeit)","2","72","0","1729625897705"
"773","j","SpeechGestureMatch","../RequiredFiles/videos/JaDaumenhoch_f.mp4","Ist der Ball in der grünen Box?","Blue","Green","J","affirmation","match","speech","yes","ThumbUp","female","speech-gesture","1536","864","chrome","60.77","Windows 10","21","female","right","Tue Oct 22 2024 21:09:06 GMT+0200 (Mitteleuropäische Sommerzeit)","2","73","0","1729625897705"
"1220","j","SpeechGestureMatch","../RequiredFiles/videos/NeinDaumenrunter_m.mp4","Ist der Ball in der blauen Box?","Blue","Green","J","negation","match","speech","no","ThumbDown","male","speech-gesture","1536","864","chrome","60.77","Windows 10","21","female","right","Tue Oct 22 2024 21:09:13 GMT+0200 (Mitteleuropäische Sommerzeit)","2","74","0","1729625897705"
"793","f","SpeechGestureMatch","../RequiredFiles/videos/JaDaumenrunter_m_no_gesture.mp4","Ist der Ball in der grünen Box?","Green","Blue","F","affirmation","na","speech","yes","na","male","speech-gesture","1536","864","chrome","60.77","Windows 10","21","female","right","Tue Oct 22 2024 21:09:19 GMT+0200 (Mitteleuropäische Sommerzeit)","2","75","0","1729625897705"
"847","j","SpeechGestureMatch","../RequiredFiles/videos/NeinDaumenhoch_m_no_gesture.mp4","Ist der Ball in der blauen Box?","Blue","Green","J","negation","na","speech","no","na","male","speech-gesture","1536","864","chrome","60.77","Windows 10","21","female","right","Tue Oct 22 2024 21:09:26 GMT+0200 (Mitteleuropäische Sommerzeit)","2","76","0","1729625897705"
"888","j","SpeechGestureMatch","../RequiredFiles/videos/NeinDaumenhoch_m.mp4","Ist der Ball in der grünen Box?","Green","Blue","J","negation","mismatch","speech","no","ThumbUp","male","speech-gesture","1536","864","chrome","60.77","Windows 10","21","female","right","Tue Oct 22 2024 21:09:32 GMT+0200 (Mitteleuropäische Sommerzeit)","2","77","0","1729625897705"
"820","j","SpeechGestureMatch","../RequiredFiles/videos/JaDaumenrunter_m.mp4","Ist der Ball in der grünen Box?","Blue","Green","J","affirmation","mismatch","speech","yes","ThumbDown","male","speech-gesture","1536","864","chrome","60.77","Windows 10","21","female","right","Tue Oct 22 2024 21:09:38 GMT+0200 (Mitteleuropäische Sommerzeit)","2","78","0","1729625897705"
"926","j","SpeechGestureMatch","../RequiredFiles/videos/JaDaumenhoch_m_no_gesture.mp4","Ist der Ball in der blauen Box?","Green","Blue","J","affirmation","na","speech","yes","na","male","speech-gesture","1536","864","chrome","60.77","Windows 10","21","female","right","Tue Oct 22 2024 21:09:45 GMT+0200 (Mitteleuropäische Sommerzeit)","2","79","0","1729625897705"
"697","j","SpeechGestureMatch","../RequiredFiles/videos/JaDaumenhoch_m.mp4","Ist der Ball in der grünen Box?","Blue","Green","J","affirmation","match","speech","yes","ThumbUp","male","speech-gesture","1536","864","chrome","60.77","Windows 10","21","female","right","Tue Oct 22 2024 21:09:51 GMT+0200 (Mitteleuropäische Sommerzeit)","2","80","0","1729625897705"
"830","j","SpeechGestureMatch","../RequiredFiles/videos/JaDaumenrunter_m.mp4","Ist der Ball in der grünen Box?","Blue","Green","J","affirmation","mismatch","speech","yes","ThumbDown","male","speech-gesture","1536","864","chrome","60.77","Windows 10","21","female","right","Tue Oct 22 2024 21:09:57 GMT+0200 (Mitteleuropäische Sommerzeit)","2","81","0","1729625897705"
"855","j","SpeechGestureMatch","../RequiredFiles/videos/JaDaumenrunter_f_no_gesture.mp4","Ist der Ball in der grünen Box?","Blue","Green","J","affirmation","na","speech","yes","na","female","speech-gesture","1536","864","chrome","60.77","Windows 10","21","female","right","Tue Oct 22 2024 21:10:04 GMT+0200 (Mitteleuropäische Sommerzeit)","2","82","0","1729625897705"
"862","j","SpeechGestureMatch","../RequiredFiles/videos/NeinDaumenhoch_m.mp4","Ist der Ball in der blauen Box?","Blue","Green","J","negation","mismatch","speech","no","ThumbUp","male","speech-gesture","1536","864","chrome","60.77","Windows 10","21","female","right","Tue Oct 22 2024 21:10:10 GMT+0200 (Mitteleuropäische Sommerzeit)","2","83","0","1729625897705"
"746","j","SpeechGestureMatch","../RequiredFiles/videos/JaDaumenrunter_m_no_gesture.mp4","Ist der Ball in der blauen Box?","Green","Blue","J","affirmation","na","speech","yes","na","male","speech-gesture","1536","864","chrome","60.77","Windows 10","21","female","right","Tue Oct 22 2024 21:10:17 GMT+0200 (Mitteleuropäische Sommerzeit)","2","84","0","1729625897705"
"857","f","SpeechGestureMatch","../RequiredFiles/videos/NeinDaumenhoch_f_no_gesture.mp4","Ist der Ball in der blauen Box?","Green","Blue","F","negation","na","speech","no","na","female","speech-gesture","1536","864","chrome","60.77","Windows 10","21","female","right","Tue Oct 22 2024 21:10:23 GMT+0200 (Mitteleuropäische Sommerzeit)","2","85","0","1729625897705"
"783","f","SpeechGestureMatch","../RequiredFiles/videos/JaDaumenrunter_f.mp4","Ist der Ball in der blauen Box?","Blue","Green","F","affirmation","mismatch","speech","yes","ThumbDown","female","speech-gesture","1536","864","chrome","60.77","Windows 10","21","female","right","Tue Oct 22 2024 21:10:29 GMT+0200 (Mitteleuropäische Sommerzeit)","2","86","0","1729625897705"
"1158","f","SpeechGestureMatch","../RequiredFiles/videos/NeinDaumenhoch_m.mp4","Ist der Ball in der blauen Box?","Green","Blue","F","negation","mismatch","speech","no","ThumbUp","male","speech-gesture","1536","864","chrome","60.77","Windows 10","21","female","right","Tue Oct 22 2024 21:10:36 GMT+0200 (Mitteleuropäische Sommerzeit)","2","87","0","1729625897705"
"865","f","SpeechGestureMatch","../RequiredFiles/videos/JaDaumenrunter_f.mp4","Ist der Ball in der grünen Box?","Green","Blue","F","affirmation","mismatch","speech","yes","ThumbDown","female","speech-gesture","1536","864","chrome","60.77","Windows 10","21","female","right","Tue Oct 22 2024 21:10:42 GMT+0200 (Mitteleuropäische Sommerzeit)","2","88","0","1729625897705"
"763","j","SpeechGestureMatch","../RequiredFiles/videos/NeinDaumenrunter_f.mp4","Ist der Ball in der blauen Box?","Blue","Green","J","negation","match","speech","no","ThumbDown","female","speech-gesture","1536","864","chrome","60.77","Windows 10","21","female","right","Tue Oct 22 2024 21:10:49 GMT+0200 (Mitteleuropäische Sommerzeit)","2","89","0","1729625897705"
"931","j","SpeechGestureMatch","../RequiredFiles/videos/JaDaumenrunter_f.mp4","Ist der Ball in der grünen Box?","Blue","Green","J","affirmation","mismatch","speech","yes","ThumbDown","female","speech-gesture","1536","864","chrome","60.77","Windows 10","21","female","right","Tue Oct 22 2024 21:10:55 GMT+0200 (Mitteleuropäische Sommerzeit)","2","90","0","1729625897705"
"1257","f","SpeechGestureMatch","../RequiredFiles/videos/NeinDaumenrunter_m_no_gesture.mp4","Ist der Ball in der blauen Box?","Green","Blue","F","negation","na","speech","no","na","male","speech-gesture","1536","864","chrome","60.77","Windows 10","21","female","right","Tue Oct 22 2024 21:11:02 GMT+0200 (Mitteleuropäische Sommerzeit)","2","91","0","1729625897705"
"851","j","SpeechGestureMatch","../RequiredFiles/videos/NeinDaumenhoch_m_no_gesture.mp4","Ist der Ball in der grünen Box?","Green","Blue","J","negation","na","speech","no","na","male","speech-gesture","1536","864","chrome","60.77","Windows 10","21","female","right","Tue Oct 22 2024 21:11:08 GMT+0200 (Mitteleuropäische Sommerzeit)","2","92","0","1729625897705"
"813","f","SpeechGestureMatch","../RequiredFiles/videos/NeinDaumenrunter_m.mp4","Ist der Ball in der blauen Box?","Green","Blue","F","negation","match","speech","no","ThumbDown","male","speech-gesture","1536","864","chrome","60.77","Windows 10","21","female","right","Tue Oct 22 2024 21:11:15 GMT+0200 (Mitteleuropäische Sommerzeit)","2","93","0","1729625897705"
"833","f","SpeechGestureMatch","../RequiredFiles/videos/NeinDaumenrunter_f_no_gesture.mp4","Ist der Ball in der grünen Box?","Blue","Green","F","negation","na","speech","no","na","female","speech-gesture","1536","864","chrome","60.77","Windows 10","21","female","right","Tue Oct 22 2024 21:11:21 GMT+0200 (Mitteleuropäische Sommerzeit)","2","94","0","1729625897705"
"696","f","SpeechGestureMatch","../RequiredFiles/videos/JaDaumenrunter_m.mp4","Ist der Ball in der blauen Box?","Green","Blue","J","affirmation","mismatch","speech","yes","ThumbDown","male","speech-gesture","1536","864","chrome","60.77","Windows 10","21","female","right","Tue Oct 22 2024 21:11:27 GMT+0200 (Mitteleuropäische Sommerzeit)","2","95","1","1729625897705"
"898","f","SpeechGestureMatch","../RequiredFiles/videos/JaDaumenrunter_f.mp4","Ist der Ball in der grünen Box?","Green","Blue","F","affirmation","mismatch","speech","yes","ThumbDown","female","speech-gesture","1536","864","chrome","60.77","Windows 10","21","female","right","Tue Oct 22 2024 21:11:34 GMT+0200 (Mitteleuropäische Sommerzeit)","2","96","0","1729625897705"
"833","f","SpeechGestureMatch","../RequiredFiles/videos/JaDaumenrunter_m.mp4","Ist der Ball in der blauen Box?","Green","Blue","F","negation","mismatch","gesture","yes","ThumbDown","male","speech-gesture","1536","864","chrome","60.77","Windows 10","21","female","right","Tue Oct 22 2024 21:17:38 GMT+0200 (Mitteleuropäische Sommerzeit)","3","1","0","1729625897705"
"788","f","SpeechGestureMatch","../RequiredFiles/videos/NeinDaumenrunter_m_no_sound.mp4","Ist der Ball in der grünen Box?","Blue","Green","F","negation","na","gesture","na","ThumbDown","male","speech-gesture","1536","864","chrome","60.77","Windows 10","21","female","right","Tue Oct 22 2024 21:17:44 GMT+0200 (Mitteleuropäische Sommerzeit)","3","2","0","1729625897705"
"662","j","SpeechGestureMatch","../RequiredFiles/videos/JaDaumenhoch_f_no_sound.mp4","Ist der Ball in der grünen Box?","Blue","Green","J","affirmation","na","gesture","na","ThumbUp","female","speech-gesture","1536","864","chrome","60.77","Windows 10","21","female","right","Tue Oct 22 2024 21:17:50 GMT+0200 (Mitteleuropäische Sommerzeit)","3","3","0","1729625897705"
"1124","f","SpeechGestureMatch","../RequiredFiles/videos/NeinDaumenrunter_m.mp4","Ist der Ball in der blauen Box?","Green","Blue","F","negation","match","gesture","no","ThumbDown","male","speech-gesture","1536","864","chrome","60.77","Windows 10","21","female","right","Tue Oct 22 2024 21:17:57 GMT+0200 (Mitteleuropäische Sommerzeit)","3","4","0","1729625897705"
"833","f","SpeechGestureMatch","../RequiredFiles/videos/JaDaumenrunter_m.mp4","Ist der Ball in der grünen Box?","Green","Blue","J","negation","mismatch","gesture","yes","ThumbDown","male","speech-gesture","1536","864","chrome","60.77","Windows 10","21","female","right","Tue Oct 22 2024 21:18:03 GMT+0200 (Mitteleuropäische Sommerzeit)","3","5","1","1729625897705"
"840","f","SpeechGestureMatch","../RequiredFiles/videos/JaDaumenhoch_f_no_sound.mp4","Ist der Ball in der grünen Box?","Green","Blue","F","affirmation","na","gesture","na","ThumbUp","female","speech-gesture","1536","864","chrome","60.77","Windows 10","21","female","right","Tue Oct 22 2024 21:18:10 GMT+0200 (Mitteleuropäische Sommerzeit)","3","6","0","1729625897705"
"1032","f","SpeechGestureMatch","../RequiredFiles/videos/NeinDaumenrunter_m.mp4","Ist der Ball in der blauen Box?","Green","Blue","F","negation","match","gesture","no","ThumbDown","male","speech-gesture","1536","864","chrome","60.77","Windows 10","21","female","right","Tue Oct 22 2024 21:18:16 GMT+0200 (Mitteleuropäische Sommerzeit)","3","7","0","1729625897705"
"1005","f","SpeechGestureMatch","../RequiredFiles/videos/JaDaumenrunter_m.mp4","Ist der Ball in der grünen Box?","Blue","Green","F","negation","mismatch","gesture","yes","ThumbDown","male","speech-gesture","1536","864","chrome","60.77","Windows 10","21","female","right","Tue Oct 22 2024 21:18:23 GMT+0200 (Mitteleuropäische Sommerzeit)","3","8","0","1729625897705"
"798","j","SpeechGestureMatch","../RequiredFiles/videos/NeinDaumenhoch_f.mp4","Ist der Ball in der grünen Box?","Blue","Green","J","affirmation","mismatch","gesture","no","ThumbUp","female","speech-gesture","1536","864","chrome","60.77","Windows 10","21","female","right","Tue Oct 22 2024 21:18:29 GMT+0200 (Mitteleuropäische Sommerzeit)","3","9","0","1729625897705"
"874","f","SpeechGestureMatch","../RequiredFiles/videos/NeinDaumenrunter_f.mp4","Ist der Ball in der blauen Box?","Green","Blue","F","negation","match","gesture","no","ThumbDown","female","speech-gesture","1536","864","chrome","60.77","Windows 10","21","female","right","Tue Oct 22 2024 21:18:36 GMT+0200 (Mitteleuropäische Sommerzeit)","3","10","0","1729625897705"
"935","j","SpeechGestureMatch","../RequiredFiles/videos/JaDaumenhoch_f_no_sound.mp4","Ist der Ball in der blauen Box?","Green","Blue","J","affirmation","na","gesture","na","ThumbUp","female","speech-gesture","1536","864","chrome","60.77","Windows 10","21","female","right","Tue Oct 22 2024 21:18:42 GMT+0200 (Mitteleuropäische Sommerzeit)","3","11","0","1729625897705"
"754","j","SpeechGestureMatch","../RequiredFiles/videos/JaDaumenhoch_m.mp4","Ist der Ball in der blauen Box?","Green","Blue","J","affirmation","match","gesture","yes","ThumbUp","male","speech-gesture","1536","864","chrome","60.77","Windows 10","21","female","right","Tue Oct 22 2024 21:18:48 GMT+0200 (Mitteleuropäische Sommerzeit)","3","12","0","1729625897705"
"778","j","SpeechGestureMatch","../RequiredFiles/videos/NeinDaumenhoch_f.mp4","Ist der Ball in der grünen Box?","Blue","Green","J","affirmation","mismatch","gesture","no","ThumbUp","female","speech-gesture","1536","864","chrome","60.77","Windows 10","21","female","right","Tue Oct 22 2024 21:18:55 GMT+0200 (Mitteleuropäische Sommerzeit)","3","13","0","1729625897705"
"856","j","SpeechGestureMatch","../RequiredFiles/videos/NeinDaumenrunter_f.mp4","Ist der Ball in der grünen Box?","Green","Blue","J","negation","match","gesture","no","ThumbDown","female","speech-gesture","1536","864","chrome","60.77","Windows 10","21","female","right","Tue Oct 22 2024 21:19:01 GMT+0200 (Mitteleuropäische Sommerzeit)","3","14","0","1729625897705"
"939","j","SpeechGestureMatch","../RequiredFiles/videos/JaDaumenrunter_f.mp4","Ist der Ball in der grünen Box?","Green","Blue","J","negation","mismatch","gesture","yes","ThumbDown","female","speech-gesture","1536","864","chrome","60.77","Windows 10","21","female","right","Tue Oct 22 2024 21:19:08 GMT+0200 (Mitteleuropäische Sommerzeit)","3","15","0","1729625897705"
"803","j","SpeechGestureMatch","../RequiredFiles/videos/NeinDaumenrunter_m.mp4","Ist der Ball in der grünen Box?","Green","Blue","J","negation","match","gesture","no","ThumbDown","male","speech-gesture","1536","864","chrome","60.77","Windows 10","21","female","right","Tue Oct 22 2024 21:19:14 GMT+0200 (Mitteleuropäische Sommerzeit)","3","16","0","1729625897705"
"927","f","SpeechGestureMatch","../RequiredFiles/videos/NeinDaumenhoch_f_no_sound.mp4","Ist der Ball in der blauen Box?","Blue","Green","F","affirmation","na","gesture","na","ThumbUp","female","speech-gesture","1536","864","chrome","60.77","Windows 10","21","female","right","Tue Oct 22 2024 21:19:20 GMT+0200 (Mitteleuropäische Sommerzeit)","3","17","0","1729625897705"
"667","j","SpeechGestureMatch","../RequiredFiles/videos/JaDaumenhoch_m.mp4","Ist der Ball in der grünen Box?","Blue","Green","J","affirmation","match","gesture","yes","ThumbUp","male","speech-gesture","1536","864","chrome","60.77","Windows 10","21","female","right","Tue Oct 22 2024 21:19:27 GMT+0200 (Mitteleuropäische Sommerzeit)","3","18","0","1729625897705"
"758","j","SpeechGestureMatch","../RequiredFiles/videos/NeinDaumenrunter_m.mp4","Ist der Ball in der blauen Box?","Blue","Green","J","negation","match","gesture","no","ThumbDown","male","speech-gesture","1536","864","chrome","60.77","Windows 10","21","female","right","Tue Oct 22 2024 21:19:33 GMT+0200 (Mitteleuropäische Sommerzeit)","3","19","0","1729625897705"
"1407","f","SpeechGestureMatch","../RequiredFiles/videos/NeinDaumenhoch_m.mp4","Ist der Ball in der blauen Box?","Blue","Green","F","affirmation","mismatch","gesture","no","ThumbUp","male","speech-gesture","1536","864","chrome","60.77","Windows 10","21","female","right","Tue Oct 22 2024 21:19:40 GMT+0200 (Mitteleuropäische Sommerzeit)","3","20","0","1729625897705"
"755","j","SpeechGestureMatch","../RequiredFiles/videos/NeinDaumenhoch_m.mp4","Ist der Ball in der grünen Box?","Blue","Green","J","affirmation","mismatch","gesture","no","ThumbUp","male","speech-gesture","1536","864","chrome","60.77","Windows 10","21","female","right","Tue Oct 22 2024 21:19:46 GMT+0200 (Mitteleuropäische Sommerzeit)","3","21","0","1729625897705"
"779","j","SpeechGestureMatch","../RequiredFiles/videos/JaDaumenhoch_f.mp4","Ist der Ball in der grünen Box?","Blue","Green","J","affirmation","match","gesture","yes","ThumbUp","female","speech-gesture","1536","864","chrome","60.77","Windows 10","21","female","right","Tue Oct 22 2024 21:19:52 GMT+0200 (Mitteleuropäische Sommerzeit)","3","22","0","1729625897705"
"742","f","SpeechGestureMatch","../RequiredFiles/videos/NeinDaumenhoch_f_no_sound.mp4","Ist der Ball in der grünen Box?","Green","Blue","F","affirmation","na","gesture","na","ThumbUp","female","speech-gesture","1536","864","chrome","60.77","Windows 10","21","female","right","Tue Oct 22 2024 21:19:59 GMT+0200 (Mitteleuropäische Sommerzeit)","3","23","0","1729625897705"
"837","f","SpeechGestureMatch","../RequiredFiles/videos/NeinDaumenhoch_f.mp4","Ist der Ball in der grünen Box?","Green","Blue","F","affirmation","mismatch","gesture","no","ThumbUp","female","speech-gesture","1536","864","chrome","60.77","Windows 10","21","female","right","Tue Oct 22 2024 21:20:05 GMT+0200 (Mitteleuropäische Sommerzeit)","3","24","0","1729625897705"
"807","f","SpeechGestureMatch","../RequiredFiles/videos/NeinDaumenhoch_f.mp4","Ist der Ball in der grünen Box?","Green","Blue","F","affirmation","mismatch","gesture","no","ThumbUp","female","speech-gesture","1536","864","chrome","60.77","Windows 10","21","female","right","Tue Oct 22 2024 21:20:12 GMT+0200 (Mitteleuropäische Sommerzeit)","3","25","0","1729625897705"
"799","f","SpeechGestureMatch","../RequiredFiles/videos/JaDaumenrunter_f_no_sound.mp4","Ist der Ball in der blauen Box?","Green","Blue","F","negation","na","gesture","na","ThumbDown","female","speech-gesture","1536","864","chrome","60.77","Windows 10","21","female","right","Tue Oct 22 2024 21:20:18 GMT+0200 (Mitteleuropäische Sommerzeit)","3","26","0","1729625897705"
"779","f","SpeechGestureMatch","../RequiredFiles/videos/NeinDaumenrunter_f_no_sound.mp4","Ist der Ball in der grünen Box?","Blue","Green","F","negation","na","gesture","na","ThumbDown","female","speech-gesture","1536","864","chrome","60.77","Windows 10","21","female","right","Tue Oct 22 2024 21:20:24 GMT+0200 (Mitteleuropäische Sommerzeit)","3","27","0","1729625897705"
"720","f","SpeechGestureMatch","../RequiredFiles/videos/JaDaumenhoch_m_no_sound.mp4","Ist der Ball in der blauen Box?","Blue","Green","F","affirmation","na","gesture","na","ThumbUp","male","speech-gesture","1536","864","chrome","60.77","Windows 10","21","female","right","Tue Oct 22 2024 21:20:30 GMT+0200 (Mitteleuropäische Sommerzeit)","3","28","0","1729625897705"
"637","f","SpeechGestureMatch","../RequiredFiles/videos/NeinDaumenhoch_m_no_sound.mp4","Ist der Ball in der blauen Box?","Blue","Green","F","affirmation","na","gesture","na","ThumbUp","male","speech-gesture","1536","864","chrome","60.77","Windows 10","21","female","right","Tue Oct 22 2024 21:20:37 GMT+0200 (Mitteleuropäische Sommerzeit)","3","29","0","1729625897705"
"1438","f","SpeechGestureMatch","../RequiredFiles/videos/JaDaumenhoch_f.mp4","Ist der Ball in der grünen Box?","Green","Blue","F","affirmation","match","gesture","yes","ThumbUp","female","speech-gesture","1536","864","chrome","60.77","Windows 10","21","female","right","Tue Oct 22 2024 21:20:44 GMT+0200 (Mitteleuropäische Sommerzeit)","3","30","0","1729625897705"
"694","f","SpeechGestureMatch","../RequiredFiles/videos/JaDaumenhoch_m.mp4","Ist der Ball in der grünen Box?","Green","Blue","F","affirmation","match","gesture","yes","ThumbUp","male","speech-gesture","1536","864","chrome","60.77","Windows 10","21","female","right","Tue Oct 22 2024 21:20:50 GMT+0200 (Mitteleuropäische Sommerzeit)","3","31","0","1729625897705"
"701","f","SpeechGestureMatch","../RequiredFiles/videos/JaDaumenhoch_m.mp4","Ist der Ball in der blauen Box?","Blue","Green","F","affirmation","match","gesture","yes","ThumbUp","male","speech-gesture","1536","864","chrome","60.77","Windows 10","21","female","right","Tue Oct 22 2024 21:20:56 GMT+0200 (Mitteleuropäische Sommerzeit)","3","32","0","1729625897705"
"898","j","SpeechGestureMatch","../RequiredFiles/videos/JaDaumenrunter_f.mp4","Ist der Ball in der grünen Box?","Green","Blue","J","negation","mismatch","gesture","yes","ThumbDown","female","speech-gesture","1536","864","chrome","60.77","Windows 10","21","female","right","Tue Oct 22 2024 21:21:03 GMT+0200 (Mitteleuropäische Sommerzeit)","3","33","0","1729625897705"
"805","j","SpeechGestureMatch","../RequiredFiles/videos/NeinDaumenrunter_m.mp4","Ist der Ball in der blauen Box?","Blue","Green","J","negation","match","gesture","no","ThumbDown","male","speech-gesture","1536","864","chrome","60.77","Windows 10","21","female","right","Tue Oct 22 2024 21:21:09 GMT+0200 (Mitteleuropäische Sommerzeit)","3","34","0","1729625897705"
"795","f","SpeechGestureMatch","../RequiredFiles/videos/NeinDaumenhoch_f.mp4","Ist der Ball in der blauen Box?","Blue","Green","F","affirmation","mismatch","gesture","no","ThumbUp","female","speech-gesture","1536","864","chrome","60.77","Windows 10","21","female","right","Tue Oct 22 2024 21:21:15 GMT+0200 (Mitteleuropäische Sommerzeit)","3","35","0","1729625897705"
"845","f","SpeechGestureMatch","../RequiredFiles/videos/NeinDaumenrunter_m.mp4","Ist der Ball in der grünen Box?","Blue","Green","F","negation","match","gesture","no","ThumbDown","male","speech-gesture","1536","864","chrome","60.77","Windows 10","21","female","right","Tue Oct 22 2024 21:21:22 GMT+0200 (Mitteleuropäische Sommerzeit)","3","36","0","1729625897705"
"882","f","SpeechGestureMatch","../RequiredFiles/videos/JaDaumenhoch_f.mp4","Ist der Ball in der blauen Box?","Blue","Green","F","affirmation","match","gesture","yes","ThumbUp","female","speech-gesture","1536","864","chrome","60.77","Windows 10","21","female","right","Tue Oct 22 2024 21:21:28 GMT+0200 (Mitteleuropäische Sommerzeit)","3","37","0","1729625897705"
"766","j","SpeechGestureMatch","../RequiredFiles/videos/NeinDaumenhoch_m.mp4","Ist der Ball in der blauen Box?","Green","Blue","J","affirmation","mismatch","gesture","no","ThumbUp","male","speech-gesture","1536","864","chrome","60.77","Windows 10","21","female","right","Tue Oct 22 2024 21:21:34 GMT+0200 (Mitteleuropäische Sommerzeit)","3","38","0","1729625897705"
"714","j","SpeechGestureMatch","../RequiredFiles/videos/JaDaumenhoch_m_no_sound.mp4","Ist der Ball in der blauen Box?","Green","Blue","J","affirmation","na","gesture","na","ThumbUp","male","speech-gesture","1536","864","chrome","60.77","Windows 10","21","female","right","Tue Oct 22 2024 21:21:41 GMT+0200 (Mitteleuropäische Sommerzeit)","3","39","0","1729625897705"
"704","j","SpeechGestureMatch","../RequiredFiles/videos/NeinDaumenhoch_m_no_sound.mp4","Ist der Ball in der blauen Box?","Green","Blue","J","affirmation","na","gesture","na","ThumbUp","male","speech-gesture","1536","864","chrome","60.77","Windows 10","21","female","right","Tue Oct 22 2024 21:21:47 GMT+0200 (Mitteleuropäische Sommerzeit)","3","40","0","1729625897705"
"768","j","SpeechGestureMatch","../RequiredFiles/videos/NeinDaumenrunter_f_no_sound.mp4","Ist der Ball in der grünen Box?","Green","Blue","J","negation","na","gesture","na","ThumbDown","female","speech-gesture","1536","864","chrome","60.77","Windows 10","21","female","right","Tue Oct 22 2024 21:21:53 GMT+0200 (Mitteleuropäische Sommerzeit)","3","41","0","1729625897705"
"1239","j","SpeechGestureMatch","../RequiredFiles/videos/JaDaumenhoch_m.mp4","Ist der Ball in der grünen Box?","Blue","Green","J","affirmation","match","gesture","yes","ThumbUp","male","speech-gesture","1536","864","chrome","60.77","Windows 10","21","female","right","Tue Oct 22 2024 21:22:00 GMT+0200 (Mitteleuropäische Sommerzeit)","3","42","0","1729625897705"
"852","j","SpeechGestureMatch","../RequiredFiles/videos/JaDaumenhoch_f.mp4","Ist der Ball in der blauen Box?","Green","Blue","J","affirmation","match","gesture","yes","ThumbUp","female","speech-gesture","1536","864","chrome","60.77","Windows 10","21","female","right","Tue Oct 22 2024 21:22:06 GMT+0200 (Mitteleuropäische Sommerzeit)","3","43","0","1729625897705"
"769","j","SpeechGestureMatch","../RequiredFiles/videos/JaDaumenrunter_m_no_sound.mp4","Ist der Ball in der grünen Box?","Green","Blue","J","negation","na","gesture","na","ThumbDown","male","speech-gesture","1536","864","chrome","60.77","Windows 10","21","female","right","Tue Oct 22 2024 21:22:13 GMT+0200 (Mitteleuropäische Sommerzeit)","3","44","0","1729625897705"
"777","j","SpeechGestureMatch","../RequiredFiles/videos/JaDaumenhoch_f.mp4","Ist der Ball in der grünen Box?","Blue","Green","J","affirmation","match","gesture","yes","ThumbUp","female","speech-gesture","1536","864","chrome","60.77","Windows 10","21","female","right","Tue Oct 22 2024 21:22:19 GMT+0200 (Mitteleuropäische Sommerzeit)","3","45","0","1729625897705"
"828","j","SpeechGestureMatch","../RequiredFiles/videos/NeinDaumenhoch_f.mp4","Ist der Ball in der blauen Box?","Green","Blue","J","affirmation","mismatch","gesture","no","ThumbUp","female","speech-gesture","1536","864","chrome","60.77","Windows 10","21","female","right","Tue Oct 22 2024 21:22:25 GMT+0200 (Mitteleuropäische Sommerzeit)","3","46","0","1729625897705"
"810","j","SpeechGestureMatch","../RequiredFiles/videos/NeinDaumenhoch_f_no_sound.mp4","Ist der Ball in der grünen Box?","Blue","Green","J","affirmation","na","gesture","na","ThumbUp","female","speech-gesture","1536","864","chrome","60.77","Windows 10","21","female","right","Tue Oct 22 2024 21:22:32 GMT+0200 (Mitteleuropäische Sommerzeit)","3","47","0","1729625897705"
"808","f","SpeechGestureMatch","../RequiredFiles/videos/JaDaumenhoch_f_no_sound.mp4","Ist der Ball in der blauen Box?","Blue","Green","F","affirmation","na","gesture","na","ThumbUp","female","speech-gesture","1536","864","chrome","60.77","Windows 10","21","female","right","Tue Oct 22 2024 21:22:38 GMT+0200 (Mitteleuropäische Sommerzeit)","3","48","0","1729625897705"
"1334","f","SpeechGestureMatch","../RequiredFiles/videos/JaDaumenrunter_f.mp4","Ist der Ball in der grünen Box?","Blue","Green","F","negation","mismatch","gesture","yes","ThumbDown","female","speech-gesture","1536","864","chrome","60.77","Windows 10","21","female","right","Tue Oct 22 2024 21:22:45 GMT+0200 (Mitteleuropäische Sommerzeit)","3","49","0","1729625897705"
"1077","f","SpeechGestureMatch","../RequiredFiles/videos/JaDaumenrunter_m.mp4","Ist der Ball in der grünen Box?","Blue","Green","F","negation","mismatch","gesture","yes","ThumbDown","male","speech-gesture","1536","864","chrome","60.77","Windows 10","21","female","right","Tue Oct 22 2024 21:22:52 GMT+0200 (Mitteleuropäische Sommerzeit)","3","50","0","1729625897705"
"811","f","SpeechGestureMatch","../RequiredFiles/videos/JaDaumenrunter_m.mp4","Ist der Ball in der blauen Box?","Green","Blue","F","negation","mismatch","gesture","yes","ThumbDown","male","speech-gesture","1536","864","chrome","60.77","Windows 10","21","female","right","Tue Oct 22 2024 21:22:58 GMT+0200 (Mitteleuropäische Sommerzeit)","3","51","0","1729625897705"
"818","f","SpeechGestureMatch","../RequiredFiles/videos/NeinDaumenrunter_f.mp4","Ist der Ball in der blauen Box?","Green","Blue","F","negation","match","gesture","no","ThumbDown","female","speech-gesture","1536","864","chrome","60.77","Windows 10","21","female","right","Tue Oct 22 2024 21:23:04 GMT+0200 (Mitteleuropäische Sommerzeit)","3","52","0","1729625897705"
"713","f","SpeechGestureMatch","../RequiredFiles/videos/NeinDaumenhoch_m_no_sound.mp4","Ist der Ball in der grünen Box?","Green","Blue","F","affirmation","na","gesture","na","ThumbUp","male","speech-gesture","1536","864","chrome","60.77","Windows 10","21","female","right","Tue Oct 22 2024 21:23:11 GMT+0200 (Mitteleuropäische Sommerzeit)","3","53","0","1729625897705"
"881","f","SpeechGestureMatch","../RequiredFiles/videos/JaDaumenrunter_m_no_sound.mp4","Ist der Ball in der blauen Box?","Blue","Green","J","negation","na","gesture","na","ThumbDown","male","speech-gesture","1536","864","chrome","60.77","Windows 10","21","female","right","Tue Oct 22 2024 21:23:17 GMT+0200 (Mitteleuropäische Sommerzeit)","3","54","1","1729625897705"
"886","f","SpeechGestureMatch","../RequiredFiles/videos/JaDaumenrunter_f_no_sound.mp4","Ist der Ball in der blauen Box?","Blue","Green","J","negation","na","gesture","na","ThumbDown","female","speech-gesture","1536","864","chrome","60.77","Windows 10","21","female","right","Tue Oct 22 2024 21:23:23 GMT+0200 (Mitteleuropäische Sommerzeit)","3","55","1","1729625897705"
"1568","j","SpeechGestureMatch","../RequiredFiles/videos/JaDaumenrunter_m.mp4","Ist der Ball in der blauen Box?","Blue","Green","J","negation","mismatch","gesture","yes","ThumbDown","male","speech-gesture","1536","864","chrome","60.77","Windows 10","21","female","right","Tue Oct 22 2024 21:23:30 GMT+0200 (Mitteleuropäische Sommerzeit)","3","56","0","1729625897705"
"1067","j","SpeechGestureMatch","../RequiredFiles/videos/NeinDaumenhoch_f.mp4","Ist der Ball in der blauen Box?","Green","Blue","J","affirmation","mismatch","gesture","no","ThumbUp","female","speech-gesture","1536","864","chrome","60.77","Windows 10","21","female","right","Tue Oct 22 2024 21:23:37 GMT+0200 (Mitteleuropäische Sommerzeit)","3","57","0","1729625897705"
"877","f","SpeechGestureMatch","../RequiredFiles/videos/JaDaumenrunter_f_no_sound.mp4","Ist der Ball in der grünen Box?","Blue","Green","F","negation","na","gesture","na","ThumbDown","female","speech-gesture","1536","864","chrome","60.77","Windows 10","21","female","right","Tue Oct 22 2024 21:23:44 GMT+0200 (Mitteleuropäische Sommerzeit)","3","58","0","1729625897705"
"770","j","SpeechGestureMatch","../RequiredFiles/videos/JaDaumenhoch_m_no_sound.mp4","Ist der Ball in der grünen Box?","Blue","Green","J","affirmation","na","gesture","na","ThumbUp","male","speech-gesture","1536","864","chrome","60.77","Windows 10","21","female","right","Tue Oct 22 2024 21:23:50 GMT+0200 (Mitteleuropäische Sommerzeit)","3","59","0","1729625897705"
"1297","j","SpeechGestureMatch","../RequiredFiles/videos/JaDaumenrunter_m.mp4","Ist der Ball in der blauen Box?","Blue","Green","J","negation","mismatch","gesture","yes","ThumbDown","male","speech-gesture","1536","864","chrome","60.77","Windows 10","21","female","right","Tue Oct 22 2024 21:23:57 GMT+0200 (Mitteleuropäische Sommerzeit)","3","60","0","1729625897705"
"1070","j","SpeechGestureMatch","../RequiredFiles/videos/JaDaumenrunter_f.mp4","Ist der Ball in der blauen Box?","Blue","Green","J","negation","mismatch","gesture","yes","ThumbDown","female","speech-gesture","1536","864","chrome","60.77","Windows 10","21","female","right","Tue Oct 22 2024 21:24:03 GMT+0200 (Mitteleuropäische Sommerzeit)","3","61","0","1729625897705"
"946","j","SpeechGestureMatch","../RequiredFiles/videos/JaDaumenrunter_f_no_sound.mp4","Ist der Ball in der grünen Box?","Green","Blue","J","negation","na","gesture","na","ThumbDown","female","speech-gesture","1536","864","chrome","60.77","Windows 10","21","female","right","Tue Oct 22 2024 21:24:10 GMT+0200 (Mitteleuropäische Sommerzeit)","3","62","0","1729625897705"
"726","f","SpeechGestureMatch","../RequiredFiles/videos/JaDaumenhoch_m_no_sound.mp4","Ist der Ball in der grünen Box?","Green","Blue","F","affirmation","na","gesture","na","ThumbUp","male","speech-gesture","1536","864","chrome","60.77","Windows 10","21","female","right","Tue Oct 22 2024 21:24:16 GMT+0200 (Mitteleuropäische Sommerzeit)","3","63","0","1729625897705"
"858","j","SpeechGestureMatch","../RequiredFiles/videos/NeinDaumenrunter_f.mp4","Ist der Ball in der blauen Box?","Blue","Green","J","negation","match","gesture","no","ThumbDown","female","speech-gesture","1536","864","chrome","60.77","Windows 10","21","female","right","Tue Oct 22 2024 21:24:22 GMT+0200 (Mitteleuropäische Sommerzeit)","3","64","0","1729625897705"
"874","f","SpeechGestureMatch","../RequiredFiles/videos/JaDaumenhoch_m.mp4","Ist der Ball in der grünen Box?","Green","Blue","F","affirmation","match","gesture","yes","ThumbUp","male","speech-gesture","1536","864","chrome","60.77","Windows 10","21","female","right","Tue Oct 22 2024 21:24:29 GMT+0200 (Mitteleuropäische Sommerzeit)","3","65","0","1729625897705"
"811","j","SpeechGestureMatch","../RequiredFiles/videos/JaDaumenhoch_f.mp4","Ist der Ball in der blauen Box?","Green","Blue","J","affirmation","match","gesture","yes","ThumbUp","female","speech-gesture","1536","864","chrome","60.77","Windows 10","21","female","right","Tue Oct 22 2024 21:24:35 GMT+0200 (Mitteleuropäische Sommerzeit)","3","66","0","1729625897705"
"1086","j","SpeechGestureMatch","../RequiredFiles/videos/JaDaumenrunter_m.mp4","Ist der Ball in der grünen Box?","Green","Blue","J","negation","mismatch","gesture","yes","ThumbDown","male","speech-gesture","1536","864","chrome","60.77","Windows 10","21","female","right","Tue Oct 22 2024 21:24:42 GMT+0200 (Mitteleuropäische Sommerzeit)","3","67","0","1729625897705"
"946","f","SpeechGestureMatch","../RequiredFiles/videos/NeinDaumenhoch_m.mp4","Ist der Ball in der blauen Box?","Blue","Green","F","affirmation","mismatch","gesture","no","ThumbUp","male","speech-gesture","1536","864","chrome","60.77","Windows 10","21","female","right","Tue Oct 22 2024 21:24:48 GMT+0200 (Mitteleuropäische Sommerzeit)","3","68","0","1729625897705"
"800","j","SpeechGestureMatch","../RequiredFiles/videos/NeinDaumenrunter_f.mp4","Ist der Ball in der grünen Box?","Green","Blue","J","negation","match","gesture","no","ThumbDown","female","speech-gesture","1536","864","chrome","60.77","Windows 10","21","female","right","Tue Oct 22 2024 21:24:55 GMT+0200 (Mitteleuropäische Sommerzeit)","3","69","0","1729625897705"
"778","j","SpeechGestureMatch","../RequiredFiles/videos/JaDaumenrunter_f.mp4","Ist der Ball in der blauen Box?","Blue","Green","J","negation","mismatch","gesture","yes","ThumbDown","female","speech-gesture","1536","864","chrome","60.77","Windows 10","21","female","right","Tue Oct 22 2024 21:25:01 GMT+0200 (Mitteleuropäische Sommerzeit)","3","70","0","1729625897705"
"756","j","SpeechGestureMatch","../RequiredFiles/videos/NeinDaumenhoch_m.mp4","Ist der Ball in der blauen Box?","Green","Blue","J","affirmation","mismatch","gesture","no","ThumbUp","male","speech-gesture","1536","864","chrome","60.77","Windows 10","21","female","right","Tue Oct 22 2024 21:25:07 GMT+0200 (Mitteleuropäische Sommerzeit)","3","71","0","1729625897705"
"735","f","SpeechGestureMatch","../RequiredFiles/videos/NeinDaumenhoch_m.mp4","Ist der Ball in der grünen Box?","Green","Blue","F","affirmation","mismatch","gesture","no","ThumbUp","male","speech-gesture","1536","864","chrome","60.77","Windows 10","21","female","right","Tue Oct 22 2024 21:25:14 GMT+0200 (Mitteleuropäische Sommerzeit)","3","72","0","1729625897705"
"853","f","SpeechGestureMatch","../RequiredFiles/videos/JaDaumenrunter_f.mp4","Ist der Ball in der blauen Box?","Green","Blue","F","negation","mismatch","gesture","yes","ThumbDown","female","speech-gesture","1536","864","chrome","60.77","Windows 10","21","female","right","Tue Oct 22 2024 21:25:20 GMT+0200 (Mitteleuropäische Sommerzeit)","3","73","0","1729625897705"
"826","f","SpeechGestureMatch","../RequiredFiles/videos/JaDaumenhoch_f.mp4","Ist der Ball in der blauen Box?","Blue","Green","F","affirmation","match","gesture","yes","ThumbUp","female","speech-gesture","1536","864","chrome","60.77","Windows 10","21","female","right","Tue Oct 22 2024 21:25:26 GMT+0200 (Mitteleuropäische Sommerzeit)","3","74","0","1729625897705"
"807","f","SpeechGestureMatch","../RequiredFiles/videos/NeinDaumenhoch_f.mp4","Ist der Ball in der blauen Box?","Blue","Green","F","affirmation","mismatch","gesture","no","ThumbUp","female","speech-gesture","1536","864","chrome","60.77","Windows 10","21","female","right","Tue Oct 22 2024 21:25:33 GMT+0200 (Mitteleuropäische Sommerzeit)","3","75","0","1729625897705"
"813","f","SpeechGestureMatch","../RequiredFiles/videos/NeinDaumenrunter_f_no_sound.mp4","Ist der Ball in der blauen Box?","Green","Blue","F","negation","na","gesture","na","ThumbDown","female","speech-gesture","1536","864","chrome","60.77","Windows 10","21","female","right","Tue Oct 22 2024 21:25:39 GMT+0200 (Mitteleuropäische Sommerzeit)","3","76","0","1729625897705"
"894","j","SpeechGestureMatch","../RequiredFiles/videos/JaDaumenhoch_m.mp4","Ist der Ball in der blauen Box?","Green","Blue","J","affirmation","match","gesture","yes","ThumbUp","male","speech-gesture","1536","864","chrome","60.77","Windows 10","21","female","right","Tue Oct 22 2024 21:25:46 GMT+0200 (Mitteleuropäische Sommerzeit)","3","77","0","1729625897705"
"811","f","SpeechGestureMatch","../RequiredFiles/videos/JaDaumenrunter_m_no_sound.mp4","Ist der Ball in der blauen Box?","Green","Blue","F","negation","na","gesture","na","ThumbDown","male","speech-gesture","1536","864","chrome","60.77","Windows 10","21","female","right","Tue Oct 22 2024 21:25:52 GMT+0200 (Mitteleuropäische Sommerzeit)","3","78","0","1729625897705"
"742","j","SpeechGestureMatch","../RequiredFiles/videos/NeinDaumenrunter_m_no_sound.mp4","Ist der Ball in der blauen Box?","Blue","Green","J","negation","na","gesture","na","ThumbDown","male","speech-gesture","1536","864","chrome","60.77","Windows 10","21","female","right","Tue Oct 22 2024 21:25:58 GMT+0200 (Mitteleuropäische Sommerzeit)","3","79","0","1729625897705"
"842","j","SpeechGestureMatch","../RequiredFiles/videos/NeinDaumenrunter_f_no_sound.mp4","Ist der Ball in der blauen Box?","Blue","Green","J","negation","na","gesture","na","ThumbDown","female","speech-gesture","1536","864","chrome","60.77","Windows 10","21","female","right","Tue Oct 22 2024 21:26:05 GMT+0200 (Mitteleuropäische Sommerzeit)","3","80","0","1729625897705"
