"rt","response","stim","video","question","box_colour_left","box_colour_right","correct_key","polarity","matching","modality","verbal","gesture","speaker","order","width","height","browser","vsync_rate","os","age","gender","handedness","date","blockNum","trialNum","error","vpNum"
"1869","f","SpeechGestureMatch","../RequiredFiles/videos/NeinDaumenhoch_m.mp4","Ist der Ball in der grünen Box?","Blue","Green","F","negation","mismatch","speech","no","ThumbUp","male","speech-gesture","1280","720","firefox","61.73","Windows 10","22","female","right","Sat Oct 12 2024 12:33:27 GMT+0200 (Mitteleuropäische Sommerzeit)","1","1","0","1728732311070"
"1483","j","SpeechGestureMatch","../RequiredFiles/videos/NeinDaumenrunter_f.mp4","Ist der Ball in der blauen Box?","Blue","Green","J","negation","match","speech","no","ThumbDown","female","speech-gesture","1280","720","firefox","61.73","Windows 10","22","female","right","Sat Oct 12 2024 12:33:34 GMT+0200 (Mitteleuropäische Sommerzeit)","1","2","0","1728732311070"
"1219","f","SpeechGestureMatch","../RequiredFiles/videos/JaDaumenhoch_f.mp4","Ist der Ball in der blauen Box?","Blue","Green","F","affirmation","match","speech","yes","ThumbUp","female","speech-gesture","1280","720","firefox","61.73","Windows 10","22","female","right","Sat Oct 12 2024 12:33:40 GMT+0200 (Mitteleuropäische Sommerzeit)","1","3","0","1728732311070"
"1391","j","SpeechGestureMatch","../RequiredFiles/videos/NeinDaumenrunter_f_no_gesture.mp4","Ist der Ball in der grünen Box?","Green","Blue","J","negation","na","speech","no","na","female","speech-gesture","1280","720","firefox","61.73","Windows 10","22","female","right","Sat Oct 12 2024 12:33:47 GMT+0200 (Mitteleuropäische Sommerzeit)","1","4","0","1728732311070"
"1354","j","SpeechGestureMatch","../RequiredFiles/videos/JaDaumenhoch_m_no_gesture.mp4","Ist der Ball in der grünen Box?","Blue","Green","J","affirmation","na","speech","yes","na","male","speech-gesture","1280","720","firefox","61.73","Windows 10","22","female","right","Sat Oct 12 2024 12:33:54 GMT+0200 (Mitteleuropäische Sommerzeit)","1","5","0","1728732311070"
"1494","f","SpeechGestureMatch","../RequiredFiles/videos/NeinDaumenrunter_f.mp4","Ist der Ball in der grünen Box?","Blue","Green","F","negation","match","speech","no","ThumbDown","female","speech-gesture","1280","720","firefox","61.73","Windows 10","22","female","right","Sat Oct 12 2024 12:34:01 GMT+0200 (Mitteleuropäische Sommerzeit)","1","6","0","1728732311070"
"1217","j","SpeechGestureMatch","../RequiredFiles/videos/JaDaumenrunter_m.mp4","Ist der Ball in der grünen Box?","Blue","Green","J","affirmation","mismatch","speech","yes","ThumbDown","male","speech-gesture","1280","720","firefox","61.73","Windows 10","22","female","right","Sat Oct 12 2024 12:34:08 GMT+0200 (Mitteleuropäische Sommerzeit)","1","7","0","1728732311070"
"1659","f","SpeechGestureMatch","../RequiredFiles/videos/NeinDaumenhoch_f.mp4","Ist der Ball in der grünen Box?","Blue","Green","F","negation","mismatch","speech","no","ThumbUp","female","speech-gesture","1280","720","firefox","61.73","Windows 10","22","female","right","Sat Oct 12 2024 12:34:15 GMT+0200 (Mitteleuropäische Sommerzeit)","1","8","0","1728732311070"
"1151","f","SpeechGestureMatch","../RequiredFiles/videos/NeinDaumenhoch_m.mp4","Ist der Ball in der blauen Box?","Green","Blue","F","negation","mismatch","speech","no","ThumbUp","male","speech-gesture","1280","720","firefox","61.73","Windows 10","22","female","right","Sat Oct 12 2024 12:34:22 GMT+0200 (Mitteleuropäische Sommerzeit)","1","9","0","1728732311070"
"928","j","SpeechGestureMatch","../RequiredFiles/videos/JaDaumenhoch_f.mp4","Ist der Ball in der blauen Box?","Green","Blue","J","affirmation","match","speech","yes","ThumbUp","female","speech-gesture","1280","720","firefox","61.73","Windows 10","22","female","right","Sat Oct 12 2024 12:34:28 GMT+0200 (Mitteleuropäische Sommerzeit)","1","10","0","1728732311070"
"985","j","SpeechGestureMatch","../RequiredFiles/videos/JaDaumenhoch_f.mp4","Ist der Ball in der grünen Box?","Blue","Green","J","affirmation","match","speech","yes","ThumbUp","female","speech-gesture","1280","720","firefox","61.73","Windows 10","22","female","right","Sat Oct 12 2024 12:34:35 GMT+0200 (Mitteleuropäische Sommerzeit)","1","11","0","1728732311070"
"1310","f","SpeechGestureMatch","../RequiredFiles/videos/JaDaumenhoch_f_no_gesture.mp4","Ist der Ball in der grünen Box?","Green","Blue","F","affirmation","na","speech","yes","na","female","speech-gesture","1280","720","firefox","61.73","Windows 10","22","female","right","Sat Oct 12 2024 12:34:42 GMT+0200 (Mitteleuropäische Sommerzeit)","1","12","0","1728732311070"
"1206","j","SpeechGestureMatch","../RequiredFiles/videos/NeinDaumenhoch_m_no_gesture.mp4","Ist der Ball in der blauen Box?","Blue","Green","J","negation","na","speech","no","na","male","speech-gesture","1280","720","firefox","61.73","Windows 10","22","female","right","Sat Oct 12 2024 12:34:49 GMT+0200 (Mitteleuropäische Sommerzeit)","1","13","0","1728732311070"
"1414","f","SpeechGestureMatch","../RequiredFiles/videos/NeinDaumenhoch_m_no_gesture.mp4","Ist der Ball in der blauen Box?","Green","Blue","F","negation","na","speech","no","na","male","speech-gesture","1280","720","firefox","61.73","Windows 10","22","female","right","Sat Oct 12 2024 12:34:56 GMT+0200 (Mitteleuropäische Sommerzeit)","1","14","0","1728732311070"
"1745","j","SpeechGestureMatch","../RequiredFiles/videos/NeinDaumenhoch_m.mp4","Ist der Ball in der grünen Box?","Green","Blue","J","negation","mismatch","speech","no","ThumbUp","male","speech-gesture","1280","720","firefox","61.73","Windows 10","22","female","right","Sat Oct 12 2024 12:35:03 GMT+0200 (Mitteleuropäische Sommerzeit)","1","15","0","1728732311070"
"1622","j","SpeechGestureMatch","../RequiredFiles/videos/JaDaumenrunter_m.mp4","Ist der Ball in der grünen Box?","Blue","Green","J","affirmation","mismatch","speech","yes","ThumbDown","male","speech-gesture","1280","720","firefox","61.73","Windows 10","22","female","right","Sat Oct 12 2024 12:35:10 GMT+0200 (Mitteleuropäische Sommerzeit)","1","16","0","1728732311070"
"1084","j","SpeechGestureMatch","../RequiredFiles/videos/JaDaumenrunter_m_no_gesture.mp4","Ist der Ball in der grünen Box?","Blue","Green","J","affirmation","na","speech","yes","na","male","speech-gesture","1280","720","firefox","61.73","Windows 10","22","female","right","Sat Oct 12 2024 12:35:17 GMT+0200 (Mitteleuropäische Sommerzeit)","1","17","0","1728732311070"
"932","f","SpeechGestureMatch","../RequiredFiles/videos/JaDaumenrunter_m.mp4","Ist der Ball in der blauen Box?","Blue","Green","F","affirmation","mismatch","speech","yes","ThumbDown","male","speech-gesture","1280","720","firefox","61.73","Windows 10","22","female","right","Sat Oct 12 2024 12:35:24 GMT+0200 (Mitteleuropäische Sommerzeit)","1","18","0","1728732311070"
"2079","f","SpeechGestureMatch","../RequiredFiles/videos/JaDaumenrunter_f.mp4","Ist der Ball in der grünen Box?","Green","Blue","F","affirmation","mismatch","speech","yes","ThumbDown","female","speech-gesture","1280","720","firefox","61.73","Windows 10","22","female","right","Sat Oct 12 2024 12:35:31 GMT+0200 (Mitteleuropäische Sommerzeit)","1","19","0","1728732311070"
"954","j","SpeechGestureMatch","../RequiredFiles/videos/JaDaumenrunter_m.mp4","Ist der Ball in der blauen Box?","Green","Blue","J","affirmation","mismatch","speech","yes","ThumbDown","male","speech-gesture","1280","720","firefox","61.73","Windows 10","22","female","right","Sat Oct 12 2024 12:35:38 GMT+0200 (Mitteleuropäische Sommerzeit)","1","20","0","1728732311070"
"1217","f","SpeechGestureMatch","../RequiredFiles/videos/NeinDaumenhoch_f.mp4","Ist der Ball in der blauen Box?","Green","Blue","F","negation","mismatch","speech","no","ThumbUp","female","speech-gesture","1280","720","firefox","61.73","Windows 10","22","female","right","Sat Oct 12 2024 12:35:44 GMT+0200 (Mitteleuropäische Sommerzeit)","1","21","0","1728732311070"
"1027","f","SpeechGestureMatch","../RequiredFiles/videos/JaDaumenhoch_f.mp4","Ist der Ball in der grünen Box?","Green","Blue","F","affirmation","match","speech","yes","ThumbUp","female","speech-gesture","1280","720","firefox","61.73","Windows 10","22","female","right","Sat Oct 12 2024 12:35:51 GMT+0200 (Mitteleuropäische Sommerzeit)","1","22","0","1728732311070"
"1062","j","SpeechGestureMatch","../RequiredFiles/videos/JaDaumenrunter_m_no_gesture.mp4","Ist der Ball in der blauen Box?","Green","Blue","J","affirmation","na","speech","yes","na","male","speech-gesture","1280","720","firefox","61.73","Windows 10","22","female","right","Sat Oct 12 2024 12:35:58 GMT+0200 (Mitteleuropäische Sommerzeit)","1","23","0","1728732311070"
"1519","j","SpeechGestureMatch","../RequiredFiles/videos/NeinDaumenhoch_m_no_gesture.mp4","Ist der Ball in der grünen Box?","Green","Blue","J","negation","na","speech","no","na","male","speech-gesture","1280","720","firefox","61.73","Windows 10","22","female","right","Sat Oct 12 2024 12:36:05 GMT+0200 (Mitteleuropäische Sommerzeit)","1","24","0","1728732311070"
"1430","f","SpeechGestureMatch","../RequiredFiles/videos/JaDaumenrunter_f.mp4","Ist der Ball in der blauen Box?","Blue","Green","F","affirmation","mismatch","speech","yes","ThumbDown","female","speech-gesture","1280","720","firefox","61.73","Windows 10","22","female","right","Sat Oct 12 2024 12:36:12 GMT+0200 (Mitteleuropäische Sommerzeit)","1","25","0","1728732311070"
"1208","f","SpeechGestureMatch","../RequiredFiles/videos/NeinDaumenrunter_f_no_gesture.mp4","Ist der Ball in der grünen Box?","Blue","Green","F","negation","na","speech","no","na","female","speech-gesture","1280","720","firefox","61.73","Windows 10","22","female","right","Sat Oct 12 2024 12:36:19 GMT+0200 (Mitteleuropäische Sommerzeit)","1","26","0","1728732311070"
"1746","f","SpeechGestureMatch","../RequiredFiles/videos/NeinDaumenrunter_m_no_gesture.mp4","Ist der Ball in der blauen Box?","Green","Blue","F","negation","na","speech","no","na","male","speech-gesture","1280","720","firefox","61.73","Windows 10","22","female","right","Sat Oct 12 2024 12:36:26 GMT+0200 (Mitteleuropäische Sommerzeit)","1","27","0","1728732311070"
"3436","j","SpeechGestureMatch","../RequiredFiles/videos/NeinDaumenhoch_f.mp4","Ist der Ball in der grünen Box?","Green","Blue","J","negation","mismatch","speech","no","ThumbUp","female","speech-gesture","1280","720","firefox","61.73","Windows 10","22","female","right","Sat Oct 12 2024 12:36:35 GMT+0200 (Mitteleuropäische Sommerzeit)","1","28","0","1728732311070"
"1274","j","SpeechGestureMatch","../RequiredFiles/videos/NeinDaumenrunter_f.mp4","Ist der Ball in der grünen Box?","Green","Blue","J","negation","match","speech","no","ThumbDown","female","speech-gesture","1280","720","firefox","61.73","Windows 10","22","female","right","Sat Oct 12 2024 12:36:42 GMT+0200 (Mitteleuropäische Sommerzeit)","1","29","0","1728732311070"
"979","j","SpeechGestureMatch","../RequiredFiles/videos/NeinDaumenhoch_f.mp4","Ist der Ball in der blauen Box?","Blue","Green","J","negation","mismatch","speech","no","ThumbUp","female","speech-gesture","1280","720","firefox","61.73","Windows 10","22","female","right","Sat Oct 12 2024 12:36:48 GMT+0200 (Mitteleuropäische Sommerzeit)","1","30","0","1728732311070"
"1402","f","SpeechGestureMatch","../RequiredFiles/videos/JaDaumenhoch_m_no_gesture.mp4","Ist der Ball in der blauen Box?","Blue","Green","F","affirmation","na","speech","yes","na","male","speech-gesture","1280","720","firefox","61.73","Windows 10","22","female","right","Sat Oct 12 2024 12:36:55 GMT+0200 (Mitteleuropäische Sommerzeit)","1","31","0","1728732311070"
"2698","j","SpeechGestureMatch","../RequiredFiles/videos/JaDaumenhoch_f.mp4","Ist der Ball in der grünen Box?","Blue","Green","J","affirmation","match","speech","yes","ThumbUp","female","speech-gesture","1280","720","firefox","61.73","Windows 10","22","female","right","Sat Oct 12 2024 12:37:03 GMT+0200 (Mitteleuropäische Sommerzeit)","1","32","0","1728732311070"
"1299","j","SpeechGestureMatch","../RequiredFiles/videos/JaDaumenrunter_f_no_gesture.mp4","Ist der Ball in der grünen Box?","Blue","Green","J","affirmation","na","speech","yes","na","female","speech-gesture","1280","720","firefox","61.73","Windows 10","22","female","right","Sat Oct 12 2024 12:37:10 GMT+0200 (Mitteleuropäische Sommerzeit)","1","33","0","1728732311070"
"1632","f","SpeechGestureMatch","../RequiredFiles/videos/NeinDaumenrunter_f.mp4","Ist der Ball in der blauen Box?","Green","Blue","F","negation","match","speech","no","ThumbDown","female","speech-gesture","1280","720","firefox","61.73","Windows 10","22","female","right","Sat Oct 12 2024 12:37:17 GMT+0200 (Mitteleuropäische Sommerzeit)","1","34","0","1728732311070"
"1377","f","SpeechGestureMatch","../RequiredFiles/videos/JaDaumenrunter_m_no_gesture.mp4","Ist der Ball in der grünen Box?","Green","Blue","F","affirmation","na","speech","yes","na","male","speech-gesture","1280","720","firefox","61.73","Windows 10","22","female","right","Sat Oct 12 2024 12:37:24 GMT+0200 (Mitteleuropäische Sommerzeit)","1","35","0","1728732311070"
"1250","f","SpeechGestureMatch","../RequiredFiles/videos/JaDaumenhoch_m.mp4","Ist der Ball in der blauen Box?","Blue","Green","F","affirmation","match","speech","yes","ThumbUp","male","speech-gesture","1280","720","firefox","61.73","Windows 10","22","female","right","Sat Oct 12 2024 12:37:31 GMT+0200 (Mitteleuropäische Sommerzeit)","1","36","0","1728732311070"
"1543","j","SpeechGestureMatch","../RequiredFiles/videos/NeinDaumenrunter_m.mp4","Ist der Ball in der grünen Box?","Green","Blue","J","negation","match","speech","no","ThumbDown","male","speech-gesture","1280","720","firefox","61.73","Windows 10","22","female","right","Sat Oct 12 2024 12:37:38 GMT+0200 (Mitteleuropäische Sommerzeit)","1","37","0","1728732311070"
"1410","f","SpeechGestureMatch","../RequiredFiles/videos/JaDaumenrunter_f_no_gesture.mp4","Ist der Ball in der blauen Box?","Blue","Green","F","affirmation","na","speech","yes","na","female","speech-gesture","1280","720","firefox","61.73","Windows 10","22","female","right","Sat Oct 12 2024 12:37:46 GMT+0200 (Mitteleuropäische Sommerzeit)","1","38","0","1728732311070"
"1001","j","SpeechGestureMatch","../RequiredFiles/videos/JaDaumenhoch_m.mp4","Ist der Ball in der grünen Box?","Blue","Green","J","affirmation","match","speech","yes","ThumbUp","male","speech-gesture","1280","720","firefox","61.73","Windows 10","22","female","right","Sat Oct 12 2024 12:37:52 GMT+0200 (Mitteleuropäische Sommerzeit)","1","39","0","1728732311070"
"892","j","SpeechGestureMatch","../RequiredFiles/videos/JaDaumenhoch_m_no_gesture.mp4","Ist der Ball in der blauen Box?","Green","Blue","J","affirmation","na","speech","yes","na","male","speech-gesture","1280","720","firefox","61.73","Windows 10","22","female","right","Sat Oct 12 2024 12:37:59 GMT+0200 (Mitteleuropäische Sommerzeit)","1","40","0","1728732311070"
"1031","f","SpeechGestureMatch","../RequiredFiles/videos/JaDaumenhoch_f.mp4","Ist der Ball in der grünen Box?","Green","Blue","F","affirmation","match","speech","yes","ThumbUp","female","speech-gesture","1280","720","firefox","61.73","Windows 10","22","female","right","Sat Oct 12 2024 12:38:05 GMT+0200 (Mitteleuropäische Sommerzeit)","1","41","0","1728732311070"
"1805","j","SpeechGestureMatch","../RequiredFiles/videos/JaDaumenhoch_f_no_gesture.mp4","Ist der Ball in der grünen Box?","Blue","Green","J","affirmation","na","speech","yes","na","female","speech-gesture","1280","720","firefox","61.73","Windows 10","22","female","right","Sat Oct 12 2024 12:38:13 GMT+0200 (Mitteleuropäische Sommerzeit)","1","42","0","1728732311070"
"1047","f","SpeechGestureMatch","../RequiredFiles/videos/JaDaumenhoch_m.mp4","Ist der Ball in der grünen Box?","Green","Blue","F","affirmation","match","speech","yes","ThumbUp","male","speech-gesture","1280","720","firefox","61.73","Windows 10","22","female","right","Sat Oct 12 2024 12:38:19 GMT+0200 (Mitteleuropäische Sommerzeit)","1","43","0","1728732311070"
"1328","j","SpeechGestureMatch","../RequiredFiles/videos/NeinDaumenrunter_m.mp4","Ist der Ball in der blauen Box?","Blue","Green","J","negation","match","speech","no","ThumbDown","male","speech-gesture","1280","720","firefox","61.73","Windows 10","22","female","right","Sat Oct 12 2024 12:38:26 GMT+0200 (Mitteleuropäische Sommerzeit)","1","44","0","1728732311070"
"1245","j","SpeechGestureMatch","../RequiredFiles/videos/NeinDaumenhoch_m.mp4","Ist der Ball in der grünen Box?","Green","Blue","J","negation","mismatch","speech","no","ThumbUp","male","speech-gesture","1280","720","firefox","61.73","Windows 10","22","female","right","Sat Oct 12 2024 12:38:33 GMT+0200 (Mitteleuropäische Sommerzeit)","1","45","0","1728732311070"
"1182","j","SpeechGestureMatch","../RequiredFiles/videos/NeinDaumenrunter_m_no_gesture.mp4","Ist der Ball in der blauen Box?","Blue","Green","J","negation","na","speech","no","na","male","speech-gesture","1280","720","firefox","61.73","Windows 10","22","female","right","Sat Oct 12 2024 12:38:40 GMT+0200 (Mitteleuropäische Sommerzeit)","1","46","0","1728732311070"
"904","f","SpeechGestureMatch","../RequiredFiles/videos/JaDaumenhoch_f.mp4","Ist der Ball in der blauen Box?","Blue","Green","F","affirmation","match","speech","yes","ThumbUp","female","speech-gesture","1280","720","firefox","61.73","Windows 10","22","female","right","Sat Oct 12 2024 12:38:46 GMT+0200 (Mitteleuropäische Sommerzeit)","1","47","0","1728732311070"
"1066","f","SpeechGestureMatch","../RequiredFiles/videos/JaDaumenrunter_f_no_gesture.mp4","Ist der Ball in der grünen Box?","Green","Blue","F","affirmation","na","speech","yes","na","female","speech-gesture","1280","720","firefox","61.73","Windows 10","22","female","right","Sat Oct 12 2024 12:38:53 GMT+0200 (Mitteleuropäische Sommerzeit)","1","48","0","1728732311070"
"1386","j","SpeechGestureMatch","../RequiredFiles/videos/JaDaumenrunter_f.mp4","Ist der Ball in der grünen Box?","Blue","Green","J","affirmation","mismatch","speech","yes","ThumbDown","female","speech-gesture","1280","720","firefox","61.73","Windows 10","22","female","right","Sat Oct 12 2024 12:39:00 GMT+0200 (Mitteleuropäische Sommerzeit)","1","49","0","1728732311070"
"1266","j","SpeechGestureMatch","../RequiredFiles/videos/JaDaumenrunter_f.mp4","Ist der Ball in der grünen Box?","Blue","Green","J","affirmation","mismatch","speech","yes","ThumbDown","female","speech-gesture","1280","720","firefox","61.73","Windows 10","22","female","right","Sat Oct 12 2024 12:39:07 GMT+0200 (Mitteleuropäische Sommerzeit)","1","50","0","1728732311070"
"1000","j","SpeechGestureMatch","../RequiredFiles/videos/JaDaumenhoch_f_no_gesture.mp4","Ist der Ball in der blauen Box?","Green","Blue","J","affirmation","na","speech","yes","na","female","speech-gesture","1280","720","firefox","61.73","Windows 10","22","female","right","Sat Oct 12 2024 12:39:13 GMT+0200 (Mitteleuropäische Sommerzeit)","1","51","0","1728732311070"
"1017","f","SpeechGestureMatch","../RequiredFiles/videos/NeinDaumenhoch_f.mp4","Ist der Ball in der blauen Box?","Green","Blue","F","negation","mismatch","speech","no","ThumbUp","female","speech-gesture","1280","720","firefox","61.73","Windows 10","22","female","right","Sat Oct 12 2024 12:39:20 GMT+0200 (Mitteleuropäische Sommerzeit)","1","52","0","1728732311070"
"1277","f","SpeechGestureMatch","../RequiredFiles/videos/NeinDaumenhoch_m.mp4","Ist der Ball in der grünen Box?","Blue","Green","F","negation","mismatch","speech","no","ThumbUp","male","speech-gesture","1280","720","firefox","61.73","Windows 10","22","female","right","Sat Oct 12 2024 12:39:27 GMT+0200 (Mitteleuropäische Sommerzeit)","1","53","0","1728732311070"
"1025","f","SpeechGestureMatch","../RequiredFiles/videos/NeinDaumenhoch_m_no_gesture.mp4","Ist der Ball in der grünen Box?","Blue","Green","F","negation","na","speech","no","na","male","speech-gesture","1280","720","firefox","61.73","Windows 10","22","female","right","Sat Oct 12 2024 12:39:33 GMT+0200 (Mitteleuropäische Sommerzeit)","1","54","0","1728732311070"
"1122","f","SpeechGestureMatch","../RequiredFiles/videos/NeinDaumenrunter_m_no_gesture.mp4","Ist der Ball in der grünen Box?","Blue","Green","F","negation","na","speech","no","na","male","speech-gesture","1280","720","firefox","61.73","Windows 10","22","female","right","Sat Oct 12 2024 12:39:40 GMT+0200 (Mitteleuropäische Sommerzeit)","1","55","0","1728732311070"
"1035","j","SpeechGestureMatch","../RequiredFiles/videos/JaDaumenhoch_m.mp4","Ist der Ball in der blauen Box?","Green","Blue","J","affirmation","match","speech","yes","ThumbUp","male","speech-gesture","1280","720","firefox","61.73","Windows 10","22","female","right","Sat Oct 12 2024 12:39:46 GMT+0200 (Mitteleuropäische Sommerzeit)","1","56","0","1728732311070"
"1743","j","SpeechGestureMatch","../RequiredFiles/videos/NeinDaumenhoch_f_no_gesture.mp4","Ist der Ball in der blauen Box?","Blue","Green","J","negation","na","speech","no","na","female","speech-gesture","1280","720","firefox","61.73","Windows 10","22","female","right","Sat Oct 12 2024 12:39:54 GMT+0200 (Mitteleuropäische Sommerzeit)","1","57","0","1728732311070"
"1325","j","SpeechGestureMatch","../RequiredFiles/videos/NeinDaumenhoch_m.mp4","Ist der Ball in der blauen Box?","Blue","Green","J","negation","mismatch","speech","no","ThumbUp","male","speech-gesture","1280","720","firefox","61.73","Windows 10","22","female","right","Sat Oct 12 2024 12:40:00 GMT+0200 (Mitteleuropäische Sommerzeit)","1","58","0","1728732311070"
"1053","f","SpeechGestureMatch","../RequiredFiles/videos/NeinDaumenrunter_m.mp4","Ist der Ball in der grünen Box?","Blue","Green","F","negation","match","speech","no","ThumbDown","male","speech-gesture","1280","720","firefox","61.73","Windows 10","22","female","right","Sat Oct 12 2024 12:40:07 GMT+0200 (Mitteleuropäische Sommerzeit)","1","59","0","1728732311070"
"1547","j","SpeechGestureMatch","../RequiredFiles/videos/NeinDaumenrunter_f_no_gesture.mp4","Ist der Ball in der blauen Box?","Blue","Green","J","negation","na","speech","no","na","female","speech-gesture","1280","720","firefox","61.73","Windows 10","22","female","right","Sat Oct 12 2024 12:40:14 GMT+0200 (Mitteleuropäische Sommerzeit)","1","60","0","1728732311070"
"1086","f","SpeechGestureMatch","../RequiredFiles/videos/NeinDaumenhoch_m.mp4","Ist der Ball in der blauen Box?","Green","Blue","F","negation","mismatch","speech","no","ThumbUp","male","speech-gesture","1280","720","firefox","61.73","Windows 10","22","female","right","Sat Oct 12 2024 12:40:21 GMT+0200 (Mitteleuropäische Sommerzeit)","1","61","0","1728732311070"
"968","f","SpeechGestureMatch","../RequiredFiles/videos/NeinDaumenhoch_f_no_gesture.mp4","Ist der Ball in der grünen Box?","Green","Blue","J","negation","na","speech","no","na","female","speech-gesture","1280","720","firefox","61.73","Windows 10","22","female","right","Sat Oct 12 2024 12:40:27 GMT+0200 (Mitteleuropäische Sommerzeit)","1","62","1","1728732311070"
"954","f","SpeechGestureMatch","../RequiredFiles/videos/NeinDaumenrunter_f.mp4","Ist der Ball in der grünen Box?","Blue","Green","F","negation","match","speech","no","ThumbDown","female","speech-gesture","1280","720","firefox","61.73","Windows 10","22","female","right","Sat Oct 12 2024 12:40:34 GMT+0200 (Mitteleuropäische Sommerzeit)","1","63","0","1728732311070"
"1090","j","SpeechGestureMatch","../RequiredFiles/videos/NeinDaumenrunter_f.mp4","Ist der Ball in der blauen Box?","Blue","Green","J","negation","match","speech","no","ThumbDown","female","speech-gesture","1280","720","firefox","61.73","Windows 10","22","female","right","Sat Oct 12 2024 12:40:41 GMT+0200 (Mitteleuropäische Sommerzeit)","1","64","0","1728732311070"
"915","j","SpeechGestureMatch","../RequiredFiles/videos/JaDaumenhoch_m.mp4","Ist der Ball in der blauen Box?","Green","Blue","J","affirmation","match","speech","yes","ThumbUp","male","speech-gesture","1280","720","firefox","61.73","Windows 10","22","female","right","Sat Oct 12 2024 12:40:47 GMT+0200 (Mitteleuropäische Sommerzeit)","1","65","0","1728732311070"
"902","j","SpeechGestureMatch","../RequiredFiles/videos/NeinDaumenhoch_f.mp4","Ist der Ball in der blauen Box?","Blue","Green","J","negation","mismatch","speech","no","ThumbUp","female","speech-gesture","1280","720","firefox","61.73","Windows 10","22","female","right","Sat Oct 12 2024 12:40:54 GMT+0200 (Mitteleuropäische Sommerzeit)","1","66","0","1728732311070"
"846","f","SpeechGestureMatch","../RequiredFiles/videos/NeinDaumenrunter_f.mp4","Ist der Ball in der blauen Box?","Green","Blue","F","negation","match","speech","no","ThumbDown","female","speech-gesture","1280","720","firefox","61.73","Windows 10","22","female","right","Sat Oct 12 2024 12:41:00 GMT+0200 (Mitteleuropäische Sommerzeit)","1","67","0","1728732311070"
"985","j","SpeechGestureMatch","../RequiredFiles/videos/JaDaumenrunter_f.mp4","Ist der Ball in der blauen Box?","Green","Blue","J","affirmation","mismatch","speech","yes","ThumbDown","female","speech-gesture","1280","720","firefox","61.73","Windows 10","22","female","right","Sat Oct 12 2024 12:41:07 GMT+0200 (Mitteleuropäische Sommerzeit)","1","68","0","1728732311070"
"1063","f","SpeechGestureMatch","../RequiredFiles/videos/JaDaumenrunter_m.mp4","Ist der Ball in der grünen Box?","Green","Blue","F","affirmation","mismatch","speech","yes","ThumbDown","male","speech-gesture","1280","720","firefox","61.73","Windows 10","22","female","right","Sat Oct 12 2024 12:41:13 GMT+0200 (Mitteleuropäische Sommerzeit)","1","69","0","1728732311070"
"952","j","SpeechGestureMatch","../RequiredFiles/videos/NeinDaumenhoch_f.mp4","Ist der Ball in der grünen Box?","Green","Blue","J","negation","mismatch","speech","no","ThumbUp","female","speech-gesture","1280","720","firefox","61.73","Windows 10","22","female","right","Sat Oct 12 2024 12:41:20 GMT+0200 (Mitteleuropäische Sommerzeit)","1","70","0","1728732311070"
"1008","j","SpeechGestureMatch","../RequiredFiles/videos/NeinDaumenrunter_f.mp4","Ist der Ball in der grünen Box?","Green","Blue","J","negation","match","speech","no","ThumbDown","female","speech-gesture","1280","720","firefox","61.73","Windows 10","22","female","right","Sat Oct 12 2024 12:41:27 GMT+0200 (Mitteleuropäische Sommerzeit)","1","71","0","1728732311070"
"1018","f","SpeechGestureMatch","../RequiredFiles/videos/NeinDaumenhoch_f_no_gesture.mp4","Ist der Ball in der blauen Box?","Green","Blue","F","negation","na","speech","no","na","female","speech-gesture","1280","720","firefox","61.73","Windows 10","22","female","right","Sat Oct 12 2024 12:41:33 GMT+0200 (Mitteleuropäische Sommerzeit)","1","72","0","1728732311070"
"788","j","SpeechGestureMatch","../RequiredFiles/videos/NeinDaumenrunter_m_no_gesture.mp4","Ist der Ball in der grünen Box?","Green","Blue","J","negation","na","speech","no","na","male","speech-gesture","1280","720","firefox","61.73","Windows 10","22","female","right","Sat Oct 12 2024 12:41:39 GMT+0200 (Mitteleuropäische Sommerzeit)","1","73","0","1728732311070"
"950","j","SpeechGestureMatch","../RequiredFiles/videos/JaDaumenrunter_f.mp4","Ist der Ball in der blauen Box?","Green","Blue","J","affirmation","mismatch","speech","yes","ThumbDown","female","speech-gesture","1280","720","firefox","61.73","Windows 10","22","female","right","Sat Oct 12 2024 12:41:46 GMT+0200 (Mitteleuropäische Sommerzeit)","1","74","0","1728732311070"
"852","j","SpeechGestureMatch","../RequiredFiles/videos/NeinDaumenrunter_m.mp4","Ist der Ball in der grünen Box?","Green","Blue","J","negation","match","speech","no","ThumbDown","male","speech-gesture","1280","720","firefox","61.73","Windows 10","22","female","right","Sat Oct 12 2024 12:41:52 GMT+0200 (Mitteleuropäische Sommerzeit)","1","75","0","1728732311070"
"1106","f","SpeechGestureMatch","../RequiredFiles/videos/NeinDaumenrunter_m.mp4","Ist der Ball in der blauen Box?","Green","Blue","F","negation","match","speech","no","ThumbDown","male","speech-gesture","1280","720","firefox","61.73","Windows 10","22","female","right","Sat Oct 12 2024 12:41:59 GMT+0200 (Mitteleuropäische Sommerzeit)","1","76","0","1728732311070"
"763","f","SpeechGestureMatch","../RequiredFiles/videos/JaDaumenhoch_f_no_gesture.mp4","Ist der Ball in der blauen Box?","Blue","Green","F","affirmation","na","speech","yes","na","female","speech-gesture","1280","720","firefox","61.73","Windows 10","22","female","right","Sat Oct 12 2024 12:42:05 GMT+0200 (Mitteleuropäische Sommerzeit)","1","77","0","1728732311070"
"908","f","SpeechGestureMatch","../RequiredFiles/videos/NeinDaumenrunter_m.mp4","Ist der Ball in der grünen Box?","Blue","Green","F","negation","match","speech","no","ThumbDown","male","speech-gesture","1280","720","firefox","61.73","Windows 10","22","female","right","Sat Oct 12 2024 12:42:12 GMT+0200 (Mitteleuropäische Sommerzeit)","1","78","0","1728732311070"
"4977","f","SpeechGestureMatch","../RequiredFiles/videos/NeinDaumenhoch_f_no_gesture.mp4","Ist der Ball in der grünen Box?","Blue","Green","F","negation","na","speech","no","na","female","speech-gesture","1280","720","firefox","61.73","Windows 10","22","female","right","Sat Oct 12 2024 12:42:22 GMT+0200 (Mitteleuropäische Sommerzeit)","1","79","0","1728732311070"
"1119","f","SpeechGestureMatch","../RequiredFiles/videos/NeinDaumenrunter_m.mp4","Ist der Ball in der blauen Box?","Green","Blue","F","negation","match","speech","no","ThumbDown","male","speech-gesture","1280","720","firefox","61.73","Windows 10","22","female","right","Sat Oct 12 2024 12:42:29 GMT+0200 (Mitteleuropäische Sommerzeit)","1","80","0","1728732311070"
"1051","j","SpeechGestureMatch","../RequiredFiles/videos/JaDaumenrunter_f_no_gesture.mp4","Ist der Ball in der blauen Box?","Green","Blue","J","affirmation","na","speech","yes","na","female","speech-gesture","1280","720","firefox","61.73","Windows 10","22","female","right","Sat Oct 12 2024 12:42:36 GMT+0200 (Mitteleuropäische Sommerzeit)","1","81","0","1728732311070"
"1077","f","SpeechGestureMatch","../RequiredFiles/videos/NeinDaumenhoch_f.mp4","Ist der Ball in der grünen Box?","Blue","Green","F","negation","mismatch","speech","no","ThumbUp","female","speech-gesture","1280","720","firefox","61.73","Windows 10","22","female","right","Sat Oct 12 2024 12:42:42 GMT+0200 (Mitteleuropäische Sommerzeit)","1","82","0","1728732311070"
"784","f","SpeechGestureMatch","../RequiredFiles/videos/JaDaumenhoch_m_no_gesture.mp4","Ist der Ball in der grünen Box?","Green","Blue","F","affirmation","na","speech","yes","na","male","speech-gesture","1280","720","firefox","61.73","Windows 10","22","female","right","Sat Oct 12 2024 12:42:49 GMT+0200 (Mitteleuropäische Sommerzeit)","1","83","0","1728732311070"
"977","f","SpeechGestureMatch","../RequiredFiles/videos/JaDaumenrunter_f.mp4","Ist der Ball in der grünen Box?","Green","Blue","F","affirmation","mismatch","speech","yes","ThumbDown","female","speech-gesture","1280","720","firefox","61.73","Windows 10","22","female","right","Sat Oct 12 2024 12:42:55 GMT+0200 (Mitteleuropäische Sommerzeit)","1","84","0","1728732311070"
"845","f","SpeechGestureMatch","../RequiredFiles/videos/JaDaumenhoch_m.mp4","Ist der Ball in der blauen Box?","Blue","Green","F","affirmation","match","speech","yes","ThumbUp","male","speech-gesture","1280","720","firefox","61.73","Windows 10","22","female","right","Sat Oct 12 2024 12:43:02 GMT+0200 (Mitteleuropäische Sommerzeit)","1","85","0","1728732311070"
"783","f","SpeechGestureMatch","../RequiredFiles/videos/JaDaumenrunter_f.mp4","Ist der Ball in der blauen Box?","Blue","Green","F","affirmation","mismatch","speech","yes","ThumbDown","female","speech-gesture","1280","720","firefox","61.73","Windows 10","22","female","right","Sat Oct 12 2024 12:43:08 GMT+0200 (Mitteleuropäische Sommerzeit)","1","86","0","1728732311070"
"722","f","SpeechGestureMatch","../RequiredFiles/videos/JaDaumenrunter_m.mp4","Ist der Ball in der grünen Box?","Green","Blue","F","affirmation","mismatch","speech","yes","ThumbDown","male","speech-gesture","1280","720","firefox","61.73","Windows 10","22","female","right","Sat Oct 12 2024 12:43:14 GMT+0200 (Mitteleuropäische Sommerzeit)","1","87","0","1728732311070"
"1051","j","SpeechGestureMatch","../RequiredFiles/videos/NeinDaumenhoch_m.mp4","Ist der Ball in der blauen Box?","Blue","Green","J","negation","mismatch","speech","no","ThumbUp","male","speech-gesture","1280","720","firefox","61.73","Windows 10","22","female","right","Sat Oct 12 2024 12:43:21 GMT+0200 (Mitteleuropäische Sommerzeit)","1","88","0","1728732311070"
"755","f","SpeechGestureMatch","../RequiredFiles/videos/JaDaumenrunter_m.mp4","Ist der Ball in der blauen Box?","Blue","Green","F","affirmation","mismatch","speech","yes","ThumbDown","male","speech-gesture","1280","720","firefox","61.73","Windows 10","22","female","right","Sat Oct 12 2024 12:43:27 GMT+0200 (Mitteleuropäische Sommerzeit)","1","89","0","1728732311070"
"862","j","SpeechGestureMatch","../RequiredFiles/videos/JaDaumenrunter_m.mp4","Ist der Ball in der blauen Box?","Green","Blue","J","affirmation","mismatch","speech","yes","ThumbDown","male","speech-gesture","1280","720","firefox","61.73","Windows 10","22","female","right","Sat Oct 12 2024 12:43:33 GMT+0200 (Mitteleuropäische Sommerzeit)","1","90","0","1728732311070"
"771","f","SpeechGestureMatch","../RequiredFiles/videos/JaDaumenhoch_m.mp4","Ist der Ball in der grünen Box?","Green","Blue","F","affirmation","match","speech","yes","ThumbUp","male","speech-gesture","1280","720","firefox","61.73","Windows 10","22","female","right","Sat Oct 12 2024 12:43:40 GMT+0200 (Mitteleuropäische Sommerzeit)","1","91","0","1728732311070"
"790","j","SpeechGestureMatch","../RequiredFiles/videos/NeinDaumenrunter_m.mp4","Ist der Ball in der blauen Box?","Blue","Green","J","negation","match","speech","no","ThumbDown","male","speech-gesture","1280","720","firefox","61.73","Windows 10","22","female","right","Sat Oct 12 2024 12:43:46 GMT+0200 (Mitteleuropäische Sommerzeit)","1","92","0","1728732311070"
"895","f","SpeechGestureMatch","../RequiredFiles/videos/NeinDaumenrunter_f_no_gesture.mp4","Ist der Ball in der blauen Box?","Green","Blue","F","negation","na","speech","no","na","female","speech-gesture","1280","720","firefox","61.73","Windows 10","22","female","right","Sat Oct 12 2024 12:43:52 GMT+0200 (Mitteleuropäische Sommerzeit)","1","93","0","1728732311070"
"764","f","SpeechGestureMatch","../RequiredFiles/videos/JaDaumenrunter_m_no_gesture.mp4","Ist der Ball in der blauen Box?","Blue","Green","F","affirmation","na","speech","yes","na","male","speech-gesture","1280","720","firefox","61.73","Windows 10","22","female","right","Sat Oct 12 2024 12:43:59 GMT+0200 (Mitteleuropäische Sommerzeit)","1","94","0","1728732311070"
"756","j","SpeechGestureMatch","../RequiredFiles/videos/JaDaumenhoch_m.mp4","Ist der Ball in der grünen Box?","Blue","Green","J","affirmation","match","speech","yes","ThumbUp","male","speech-gesture","1280","720","firefox","61.73","Windows 10","22","female","right","Sat Oct 12 2024 12:44:05 GMT+0200 (Mitteleuropäische Sommerzeit)","1","95","0","1728732311070"
"853","j","SpeechGestureMatch","../RequiredFiles/videos/JaDaumenhoch_f.mp4","Ist der Ball in der blauen Box?","Green","Blue","J","affirmation","match","speech","yes","ThumbUp","female","speech-gesture","1280","720","firefox","61.73","Windows 10","22","female","right","Sat Oct 12 2024 12:44:12 GMT+0200 (Mitteleuropäische Sommerzeit)","1","96","0","1728732311070"
"870","f","SpeechGestureMatch","../RequiredFiles/videos/NeinDaumenrunter_m.mp4","Ist der Ball in der blauen Box?","Green","Blue","F","negation","match","speech","no","ThumbDown","male","speech-gesture","1280","720","firefox","61.73","Windows 10","22","female","right","Sat Oct 12 2024 12:44:38 GMT+0200 (Mitteleuropäische Sommerzeit)","2","1","0","1728732311070"
"891","j","SpeechGestureMatch","../RequiredFiles/videos/NeinDaumenhoch_f.mp4","Ist der Ball in der grünen Box?","Green","Blue","J","negation","mismatch","speech","no","ThumbUp","female","speech-gesture","1280","720","firefox","61.73","Windows 10","22","female","right","Sat Oct 12 2024 12:44:45 GMT+0200 (Mitteleuropäische Sommerzeit)","2","2","0","1728732311070"
"1033","j","SpeechGestureMatch","../RequiredFiles/videos/JaDaumenrunter_f.mp4","Ist der Ball in der blauen Box?","Green","Blue","J","affirmation","mismatch","speech","yes","ThumbDown","female","speech-gesture","1280","720","firefox","61.73","Windows 10","22","female","right","Sat Oct 12 2024 12:44:51 GMT+0200 (Mitteleuropäische Sommerzeit)","2","3","0","1728732311070"
"769","j","SpeechGestureMatch","../RequiredFiles/videos/JaDaumenrunter_m.mp4","Ist der Ball in der blauen Box?","Green","Blue","J","affirmation","mismatch","speech","yes","ThumbDown","male","speech-gesture","1280","720","firefox","61.73","Windows 10","22","female","right","Sat Oct 12 2024 12:44:58 GMT+0200 (Mitteleuropäische Sommerzeit)","2","4","0","1728732311070"
"862","f","SpeechGestureMatch","../RequiredFiles/videos/NeinDaumenhoch_m.mp4","Ist der Ball in der grünen Box?","Blue","Green","F","negation","mismatch","speech","no","ThumbUp","male","speech-gesture","1280","720","firefox","61.73","Windows 10","22","female","right","Sat Oct 12 2024 12:45:04 GMT+0200 (Mitteleuropäische Sommerzeit)","2","5","0","1728732311070"
"976","j","SpeechGestureMatch","../RequiredFiles/videos/JaDaumenhoch_f.mp4","Ist der Ball in der grünen Box?","Blue","Green","J","affirmation","match","speech","yes","ThumbUp","female","speech-gesture","1280","720","firefox","61.73","Windows 10","22","female","right","Sat Oct 12 2024 12:45:11 GMT+0200 (Mitteleuropäische Sommerzeit)","2","6","0","1728732311070"
"829","j","SpeechGestureMatch","../RequiredFiles/videos/NeinDaumenrunter_m.mp4","Ist der Ball in der grünen Box?","Green","Blue","J","negation","match","speech","no","ThumbDown","male","speech-gesture","1280","720","firefox","61.73","Windows 10","22","female","right","Sat Oct 12 2024 12:45:17 GMT+0200 (Mitteleuropäische Sommerzeit)","2","7","0","1728732311070"
"970","f","SpeechGestureMatch","../RequiredFiles/videos/JaDaumenrunter_f.mp4","Ist der Ball in der grünen Box?","Green","Blue","F","affirmation","mismatch","speech","yes","ThumbDown","female","speech-gesture","1280","720","firefox","61.73","Windows 10","22","female","right","Sat Oct 12 2024 12:45:24 GMT+0200 (Mitteleuropäische Sommerzeit)","2","8","0","1728732311070"
"753","f","SpeechGestureMatch","../RequiredFiles/videos/JaDaumenhoch_m_no_gesture.mp4","Ist der Ball in der grünen Box?","Green","Blue","F","affirmation","na","speech","yes","na","male","speech-gesture","1280","720","firefox","61.73","Windows 10","22","female","right","Sat Oct 12 2024 12:45:30 GMT+0200 (Mitteleuropäische Sommerzeit)","2","9","0","1728732311070"
"853","j","SpeechGestureMatch","../RequiredFiles/videos/NeinDaumenrunter_f_no_gesture.mp4","Ist der Ball in der grünen Box?","Green","Blue","J","negation","na","speech","no","na","female","speech-gesture","1280","720","firefox","61.73","Windows 10","22","female","right","Sat Oct 12 2024 12:45:36 GMT+0200 (Mitteleuropäische Sommerzeit)","2","10","0","1728732311070"
"1220","j","SpeechGestureMatch","../RequiredFiles/videos/NeinDaumenrunter_m.mp4","Ist der Ball in der blauen Box?","Blue","Green","J","negation","match","speech","no","ThumbDown","male","speech-gesture","1280","720","firefox","61.73","Windows 10","22","female","right","Sat Oct 12 2024 12:45:43 GMT+0200 (Mitteleuropäische Sommerzeit)","2","11","0","1728732311070"
"966","f","SpeechGestureMatch","../RequiredFiles/videos/NeinDaumenrunter_m.mp4","Ist der Ball in der blauen Box?","Green","Blue","F","negation","match","speech","no","ThumbDown","male","speech-gesture","1280","720","firefox","61.73","Windows 10","22","female","right","Sat Oct 12 2024 12:45:50 GMT+0200 (Mitteleuropäische Sommerzeit)","2","12","0","1728732311070"
"911","f","SpeechGestureMatch","../RequiredFiles/videos/NeinDaumenhoch_f.mp4","Ist der Ball in der grünen Box?","Blue","Green","F","negation","mismatch","speech","no","ThumbUp","female","speech-gesture","1280","720","firefox","61.73","Windows 10","22","female","right","Sat Oct 12 2024 12:45:56 GMT+0200 (Mitteleuropäische Sommerzeit)","2","13","0","1728732311070"
"991","f","SpeechGestureMatch","../RequiredFiles/videos/JaDaumenrunter_m.mp4","Ist der Ball in der blauen Box?","Blue","Green","F","affirmation","mismatch","speech","yes","ThumbDown","male","speech-gesture","1280","720","firefox","61.73","Windows 10","22","female","right","Sat Oct 12 2024 12:46:03 GMT+0200 (Mitteleuropäische Sommerzeit)","2","14","0","1728732311070"
"969","j","SpeechGestureMatch","../RequiredFiles/videos/NeinDaumenhoch_f_no_gesture.mp4","Ist der Ball in der grünen Box?","Green","Blue","J","negation","na","speech","no","na","female","speech-gesture","1280","720","firefox","61.73","Windows 10","22","female","right","Sat Oct 12 2024 12:46:09 GMT+0200 (Mitteleuropäische Sommerzeit)","2","15","0","1728732311070"
"3481","f","SpeechGestureMatch","../RequiredFiles/videos/NeinDaumenhoch_m_no_gesture.mp4","Ist der Ball in der grünen Box?","Blue","Green","F","negation","na","speech","no","na","male","speech-gesture","1280","720","firefox","61.73","Windows 10","22","female","right","Sat Oct 12 2024 12:46:18 GMT+0200 (Mitteleuropäische Sommerzeit)","2","16","0","1728732311070"
"1178","j","SpeechGestureMatch","../RequiredFiles/videos/JaDaumenrunter_f_no_gesture.mp4","Ist der Ball in der blauen Box?","Green","Blue","J","affirmation","na","speech","yes","na","female","speech-gesture","1280","720","firefox","61.73","Windows 10","22","female","right","Sat Oct 12 2024 12:46:25 GMT+0200 (Mitteleuropäische Sommerzeit)","2","17","0","1728732311070"
"782","f","SpeechGestureMatch","../RequiredFiles/videos/JaDaumenhoch_m_no_gesture.mp4","Ist der Ball in der blauen Box?","Blue","Green","F","affirmation","na","speech","yes","na","male","speech-gesture","1280","720","firefox","61.73","Windows 10","22","female","right","Sat Oct 12 2024 12:46:31 GMT+0200 (Mitteleuropäische Sommerzeit)","2","18","0","1728732311070"
"924","j","SpeechGestureMatch","../RequiredFiles/videos/JaDaumenrunter_m.mp4","Ist der Ball in der grünen Box?","Green","Blue","F","affirmation","mismatch","speech","yes","ThumbDown","male","speech-gesture","1280","720","firefox","61.73","Windows 10","22","female","right","Sat Oct 12 2024 12:46:38 GMT+0200 (Mitteleuropäische Sommerzeit)","2","19","1","1728732311070"
"792","j","SpeechGestureMatch","../RequiredFiles/videos/JaDaumenrunter_m_no_gesture.mp4","Ist der Ball in der blauen Box?","Green","Blue","J","affirmation","na","speech","yes","na","male","speech-gesture","1280","720","firefox","61.73","Windows 10","22","female","right","Sat Oct 12 2024 12:46:44 GMT+0200 (Mitteleuropäische Sommerzeit)","2","20","0","1728732311070"
"852","f","SpeechGestureMatch","../RequiredFiles/videos/JaDaumenrunter_f_no_gesture.mp4","Ist der Ball in der grünen Box?","Green","Blue","F","affirmation","na","speech","yes","na","female","speech-gesture","1280","720","firefox","61.73","Windows 10","22","female","right","Sat Oct 12 2024 12:46:51 GMT+0200 (Mitteleuropäische Sommerzeit)","2","21","0","1728732311070"
"994","f","SpeechGestureMatch","../RequiredFiles/videos/NeinDaumenrunter_m_no_gesture.mp4","Ist der Ball in der grünen Box?","Blue","Green","F","negation","na","speech","no","na","male","speech-gesture","1280","720","firefox","61.73","Windows 10","22","female","right","Sat Oct 12 2024 12:46:57 GMT+0200 (Mitteleuropäische Sommerzeit)","2","22","0","1728732311070"
"850","j","SpeechGestureMatch","../RequiredFiles/videos/NeinDaumenrunter_m_no_gesture.mp4","Ist der Ball in der blauen Box?","Blue","Green","J","negation","na","speech","no","na","male","speech-gesture","1280","720","firefox","61.73","Windows 10","22","female","right","Sat Oct 12 2024 12:47:04 GMT+0200 (Mitteleuropäische Sommerzeit)","2","23","0","1728732311070"
"823","f","SpeechGestureMatch","../RequiredFiles/videos/NeinDaumenhoch_f_no_gesture.mp4","Ist der Ball in der grünen Box?","Blue","Green","F","negation","na","speech","no","na","female","speech-gesture","1280","720","firefox","61.73","Windows 10","22","female","right","Sat Oct 12 2024 12:47:10 GMT+0200 (Mitteleuropäische Sommerzeit)","2","24","0","1728732311070"
"877","f","SpeechGestureMatch","../RequiredFiles/videos/NeinDaumenrunter_f_no_gesture.mp4","Ist der Ball in der grünen Box?","Blue","Green","F","negation","na","speech","no","na","female","speech-gesture","1280","720","firefox","61.73","Windows 10","22","female","right","Sat Oct 12 2024 12:47:16 GMT+0200 (Mitteleuropäische Sommerzeit)","2","25","0","1728732311070"
"714","f","SpeechGestureMatch","../RequiredFiles/videos/JaDaumenrunter_m_no_gesture.mp4","Ist der Ball in der blauen Box?","Blue","Green","F","affirmation","na","speech","yes","na","male","speech-gesture","1280","720","firefox","61.73","Windows 10","22","female","right","Sat Oct 12 2024 12:47:23 GMT+0200 (Mitteleuropäische Sommerzeit)","2","26","0","1728732311070"
"1025","j","SpeechGestureMatch","../RequiredFiles/videos/JaDaumenhoch_f.mp4","Ist der Ball in der grünen Box?","Blue","Green","J","affirmation","match","speech","yes","ThumbUp","female","speech-gesture","1280","720","firefox","61.73","Windows 10","22","female","right","Sat Oct 12 2024 12:47:29 GMT+0200 (Mitteleuropäische Sommerzeit)","2","27","0","1728732311070"
"968","f","SpeechGestureMatch","../RequiredFiles/videos/JaDaumenhoch_m.mp4","Ist der Ball in der blauen Box?","Blue","Green","F","affirmation","match","speech","yes","ThumbUp","male","speech-gesture","1280","720","firefox","61.73","Windows 10","22","female","right","Sat Oct 12 2024 12:47:36 GMT+0200 (Mitteleuropäische Sommerzeit)","2","28","0","1728732311070"
"741","j","SpeechGestureMatch","../RequiredFiles/videos/JaDaumenhoch_m.mp4","Ist der Ball in der blauen Box?","Green","Blue","J","affirmation","match","speech","yes","ThumbUp","male","speech-gesture","1280","720","firefox","61.73","Windows 10","22","female","right","Sat Oct 12 2024 12:47:42 GMT+0200 (Mitteleuropäische Sommerzeit)","2","29","0","1728732311070"
"664","j","SpeechGestureMatch","../RequiredFiles/videos/JaDaumenhoch_m.mp4","Ist der Ball in der blauen Box?","Green","Blue","J","affirmation","match","speech","yes","ThumbUp","male","speech-gesture","1280","720","firefox","61.73","Windows 10","22","female","right","Sat Oct 12 2024 12:47:48 GMT+0200 (Mitteleuropäische Sommerzeit)","2","30","0","1728732311070"
"911","j","SpeechGestureMatch","../RequiredFiles/videos/NeinDaumenrunter_m_no_gesture.mp4","Ist der Ball in der grünen Box?","Green","Blue","J","negation","na","speech","no","na","male","speech-gesture","1280","720","firefox","61.73","Windows 10","22","female","right","Sat Oct 12 2024 12:47:55 GMT+0200 (Mitteleuropäische Sommerzeit)","2","31","0","1728732311070"
"829","j","SpeechGestureMatch","../RequiredFiles/videos/NeinDaumenhoch_m.mp4","Ist der Ball in der blauen Box?","Blue","Green","J","negation","mismatch","speech","no","ThumbUp","male","speech-gesture","1280","720","firefox","61.73","Windows 10","22","female","right","Sat Oct 12 2024 12:48:01 GMT+0200 (Mitteleuropäische Sommerzeit)","2","32","0","1728732311070"
"752","j","SpeechGestureMatch","../RequiredFiles/videos/NeinDaumenrunter_m.mp4","Ist der Ball in der blauen Box?","Blue","Green","J","negation","match","speech","no","ThumbDown","male","speech-gesture","1280","720","firefox","61.73","Windows 10","22","female","right","Sat Oct 12 2024 12:48:08 GMT+0200 (Mitteleuropäische Sommerzeit)","2","33","0","1728732311070"
"913","f","SpeechGestureMatch","../RequiredFiles/videos/JaDaumenhoch_f.mp4","Ist der Ball in der blauen Box?","Blue","Green","F","affirmation","match","speech","yes","ThumbUp","female","speech-gesture","1280","720","firefox","61.73","Windows 10","22","female","right","Sat Oct 12 2024 12:48:14 GMT+0200 (Mitteleuropäische Sommerzeit)","2","34","0","1728732311070"
"726","j","SpeechGestureMatch","../RequiredFiles/videos/NeinDaumenhoch_m.mp4","Ist der Ball in der blauen Box?","Blue","Green","J","negation","mismatch","speech","no","ThumbUp","male","speech-gesture","1280","720","firefox","61.73","Windows 10","22","female","right","Sat Oct 12 2024 12:48:20 GMT+0200 (Mitteleuropäische Sommerzeit)","2","35","0","1728732311070"
"965","f","SpeechGestureMatch","../RequiredFiles/videos/NeinDaumenrunter_f.mp4","Ist der Ball in der blauen Box?","Green","Blue","F","negation","match","speech","no","ThumbDown","female","speech-gesture","1280","720","firefox","61.73","Windows 10","22","female","right","Sat Oct 12 2024 12:48:27 GMT+0200 (Mitteleuropäische Sommerzeit)","2","36","0","1728732311070"
"807","f","SpeechGestureMatch","../RequiredFiles/videos/NeinDaumenhoch_f.mp4","Ist der Ball in der blauen Box?","Green","Blue","F","negation","mismatch","speech","no","ThumbUp","female","speech-gesture","1280","720","firefox","61.73","Windows 10","22","female","right","Sat Oct 12 2024 12:48:33 GMT+0200 (Mitteleuropäische Sommerzeit)","2","37","0","1728732311070"
"813","f","SpeechGestureMatch","../RequiredFiles/videos/JaDaumenrunter_f_no_gesture.mp4","Ist der Ball in der blauen Box?","Blue","Green","F","affirmation","na","speech","yes","na","female","speech-gesture","1280","720","firefox","61.73","Windows 10","22","female","right","Sat Oct 12 2024 12:48:40 GMT+0200 (Mitteleuropäische Sommerzeit)","2","38","0","1728732311070"
"892","f","SpeechGestureMatch","../RequiredFiles/videos/NeinDaumenrunter_f.mp4","Ist der Ball in der blauen Box?","Green","Blue","F","negation","match","speech","no","ThumbDown","female","speech-gesture","1280","720","firefox","61.73","Windows 10","22","female","right","Sat Oct 12 2024 12:48:46 GMT+0200 (Mitteleuropäische Sommerzeit)","2","39","0","1728732311070"
"880","f","SpeechGestureMatch","../RequiredFiles/videos/NeinDaumenhoch_f_no_gesture.mp4","Ist der Ball in der blauen Box?","Green","Blue","F","negation","na","speech","no","na","female","speech-gesture","1280","720","firefox","61.73","Windows 10","22","female","right","Sat Oct 12 2024 12:48:53 GMT+0200 (Mitteleuropäische Sommerzeit)","2","40","0","1728732311070"
"856","j","SpeechGestureMatch","../RequiredFiles/videos/JaDaumenrunter_f.mp4","Ist der Ball in der blauen Box?","Green","Blue","J","affirmation","mismatch","speech","yes","ThumbDown","female","speech-gesture","1280","720","firefox","61.73","Windows 10","22","female","right","Sat Oct 12 2024 12:48:59 GMT+0200 (Mitteleuropäische Sommerzeit)","2","41","0","1728732311070"
"931","f","SpeechGestureMatch","../RequiredFiles/videos/JaDaumenrunter_f.mp4","Ist der Ball in der blauen Box?","Blue","Green","F","affirmation","mismatch","speech","yes","ThumbDown","female","speech-gesture","1280","720","firefox","61.73","Windows 10","22","female","right","Sat Oct 12 2024 12:49:06 GMT+0200 (Mitteleuropäische Sommerzeit)","2","42","0","1728732311070"
"895","j","SpeechGestureMatch","../RequiredFiles/videos/JaDaumenrunter_f.mp4","Ist der Ball in der grünen Box?","Blue","Green","J","affirmation","mismatch","speech","yes","ThumbDown","female","speech-gesture","1280","720","firefox","61.73","Windows 10","22","female","right","Sat Oct 12 2024 12:49:12 GMT+0200 (Mitteleuropäische Sommerzeit)","2","43","0","1728732311070"
"702","f","SpeechGestureMatch","../RequiredFiles/videos/NeinDaumenrunter_m.mp4","Ist der Ball in der grünen Box?","Blue","Green","F","negation","match","speech","no","ThumbDown","male","speech-gesture","1280","720","firefox","61.73","Windows 10","22","female","right","Sat Oct 12 2024 12:49:18 GMT+0200 (Mitteleuropäische Sommerzeit)","2","44","0","1728732311070"
"773","j","SpeechGestureMatch","../RequiredFiles/videos/NeinDaumenrunter_f.mp4","Ist der Ball in der blauen Box?","Blue","Green","J","negation","match","speech","no","ThumbDown","female","speech-gesture","1280","720","firefox","61.73","Windows 10","22","female","right","Sat Oct 12 2024 12:49:25 GMT+0200 (Mitteleuropäische Sommerzeit)","2","45","0","1728732311070"
"803","j","SpeechGestureMatch","../RequiredFiles/videos/JaDaumenrunter_f.mp4","Ist der Ball in der grünen Box?","Blue","Green","J","affirmation","mismatch","speech","yes","ThumbDown","female","speech-gesture","1280","720","firefox","61.73","Windows 10","22","female","right","Sat Oct 12 2024 12:49:31 GMT+0200 (Mitteleuropäische Sommerzeit)","2","46","0","1728732311070"
"821","j","SpeechGestureMatch","../RequiredFiles/videos/JaDaumenhoch_f.mp4","Ist der Ball in der blauen Box?","Green","Blue","J","affirmation","match","speech","yes","ThumbUp","female","speech-gesture","1280","720","firefox","61.73","Windows 10","22","female","right","Sat Oct 12 2024 12:49:37 GMT+0200 (Mitteleuropäische Sommerzeit)","2","47","0","1728732311070"
"750","j","SpeechGestureMatch","../RequiredFiles/videos/JaDaumenhoch_f.mp4","Ist der Ball in der blauen Box?","Green","Blue","J","affirmation","match","speech","yes","ThumbUp","female","speech-gesture","1280","720","firefox","61.73","Windows 10","22","female","right","Sat Oct 12 2024 12:49:44 GMT+0200 (Mitteleuropäische Sommerzeit)","2","48","0","1728732311070"
"779","j","SpeechGestureMatch","../RequiredFiles/videos/NeinDaumenhoch_m.mp4","Ist der Ball in der grünen Box?","Green","Blue","J","negation","mismatch","speech","no","ThumbUp","male","speech-gesture","1280","720","firefox","61.73","Windows 10","22","female","right","Sat Oct 12 2024 12:49:50 GMT+0200 (Mitteleuropäische Sommerzeit)","2","49","0","1728732311070"
"874","f","SpeechGestureMatch","../RequiredFiles/videos/NeinDaumenrunter_f.mp4","Ist der Ball in der grünen Box?","Blue","Green","F","negation","match","speech","no","ThumbDown","female","speech-gesture","1280","720","firefox","61.73","Windows 10","22","female","right","Sat Oct 12 2024 12:49:57 GMT+0200 (Mitteleuropäische Sommerzeit)","2","50","0","1728732311070"
"830","j","SpeechGestureMatch","../RequiredFiles/videos/NeinDaumenrunter_f.mp4","Ist der Ball in der blauen Box?","Blue","Green","J","negation","match","speech","no","ThumbDown","female","speech-gesture","1280","720","firefox","61.73","Windows 10","22","female","right","Sat Oct 12 2024 12:50:03 GMT+0200 (Mitteleuropäische Sommerzeit)","2","51","0","1728732311070"
"775","j","SpeechGestureMatch","../RequiredFiles/videos/JaDaumenrunter_m.mp4","Ist der Ball in der blauen Box?","Green","Blue","J","affirmation","mismatch","speech","yes","ThumbDown","male","speech-gesture","1280","720","firefox","61.73","Windows 10","22","female","right","Sat Oct 12 2024 12:50:09 GMT+0200 (Mitteleuropäische Sommerzeit)","2","52","0","1728732311070"
"925","f","SpeechGestureMatch","../RequiredFiles/videos/NeinDaumenhoch_m_no_gesture.mp4","Ist der Ball in der blauen Box?","Green","Blue","F","negation","na","speech","no","na","male","speech-gesture","1280","720","firefox","61.73","Windows 10","22","female","right","Sat Oct 12 2024 12:50:16 GMT+0200 (Mitteleuropäische Sommerzeit)","2","53","0","1728732311070"
"778","f","SpeechGestureMatch","../RequiredFiles/videos/JaDaumenhoch_f.mp4","Ist der Ball in der blauen Box?","Blue","Green","F","affirmation","match","speech","yes","ThumbUp","female","speech-gesture","1280","720","firefox","61.73","Windows 10","22","female","right","Sat Oct 12 2024 12:50:22 GMT+0200 (Mitteleuropäische Sommerzeit)","2","54","0","1728732311070"
"779","f","SpeechGestureMatch","../RequiredFiles/videos/JaDaumenhoch_m.mp4","Ist der Ball in der grünen Box?","Green","Blue","F","affirmation","match","speech","yes","ThumbUp","male","speech-gesture","1280","720","firefox","61.73","Windows 10","22","female","right","Sat Oct 12 2024 12:50:28 GMT+0200 (Mitteleuropäische Sommerzeit)","2","55","0","1728732311070"
"811","j","SpeechGestureMatch","../RequiredFiles/videos/JaDaumenrunter_m_no_gesture.mp4","Ist der Ball in der grünen Box?","Blue","Green","J","affirmation","na","speech","yes","na","male","speech-gesture","1280","720","firefox","61.73","Windows 10","22","female","right","Sat Oct 12 2024 12:50:35 GMT+0200 (Mitteleuropäische Sommerzeit)","2","56","0","1728732311070"
"724","f","SpeechGestureMatch","../RequiredFiles/videos/JaDaumenhoch_m.mp4","Ist der Ball in der grünen Box?","Green","Blue","F","affirmation","match","speech","yes","ThumbUp","male","speech-gesture","1280","720","firefox","61.73","Windows 10","22","female","right","Sat Oct 12 2024 12:50:41 GMT+0200 (Mitteleuropäische Sommerzeit)","2","57","0","1728732311070"
"867","f","SpeechGestureMatch","../RequiredFiles/videos/JaDaumenhoch_f_no_gesture.mp4","Ist der Ball in der blauen Box?","Blue","Green","F","affirmation","na","speech","yes","na","female","speech-gesture","1280","720","firefox","61.73","Windows 10","22","female","right","Sat Oct 12 2024 12:50:47 GMT+0200 (Mitteleuropäische Sommerzeit)","2","58","0","1728732311070"
"893","f","SpeechGestureMatch","../RequiredFiles/videos/JaDaumenrunter_f.mp4","Ist der Ball in der grünen Box?","Green","Blue","F","affirmation","mismatch","speech","yes","ThumbDown","female","speech-gesture","1280","720","firefox","61.73","Windows 10","22","female","right","Sat Oct 12 2024 12:50:54 GMT+0200 (Mitteleuropäische Sommerzeit)","2","59","0","1728732311070"
"861","j","SpeechGestureMatch","../RequiredFiles/videos/NeinDaumenrunter_f.mp4","Ist der Ball in der grünen Box?","Green","Blue","J","negation","match","speech","no","ThumbDown","female","speech-gesture","1280","720","firefox","61.73","Windows 10","22","female","right","Sat Oct 12 2024 12:51:00 GMT+0200 (Mitteleuropäische Sommerzeit)","2","60","0","1728732311070"
"882","f","SpeechGestureMatch","../RequiredFiles/videos/NeinDaumenhoch_m.mp4","Ist der Ball in der blauen Box?","Green","Blue","F","negation","mismatch","speech","no","ThumbUp","male","speech-gesture","1280","720","firefox","61.73","Windows 10","22","female","right","Sat Oct 12 2024 12:51:07 GMT+0200 (Mitteleuropäische Sommerzeit)","2","61","0","1728732311070"
"1034","f","SpeechGestureMatch","../RequiredFiles/videos/NeinDaumenhoch_m.mp4","Ist der Ball in der blauen Box?","Green","Blue","F","negation","mismatch","speech","no","ThumbUp","male","speech-gesture","1280","720","firefox","61.73","Windows 10","22","female","right","Sat Oct 12 2024 12:51:14 GMT+0200 (Mitteleuropäische Sommerzeit)","2","62","0","1728732311070"
"1211","j","SpeechGestureMatch","../RequiredFiles/videos/JaDaumenhoch_f.mp4","Ist der Ball in der grünen Box?","Green","Blue","F","affirmation","match","speech","yes","ThumbUp","female","speech-gesture","1280","720","firefox","61.73","Windows 10","22","female","right","Sat Oct 12 2024 12:51:21 GMT+0200 (Mitteleuropäische Sommerzeit)","2","63","1","1728732311070"
"969","f","SpeechGestureMatch","../RequiredFiles/videos/JaDaumenrunter_m.mp4","Ist der Ball in der grünen Box?","Green","Blue","F","affirmation","mismatch","speech","yes","ThumbDown","male","speech-gesture","1280","720","firefox","61.73","Windows 10","22","female","right","Sat Oct 12 2024 12:51:27 GMT+0200 (Mitteleuropäische Sommerzeit)","2","64","0","1728732311070"
"732","f","SpeechGestureMatch","../RequiredFiles/videos/JaDaumenrunter_m.mp4","Ist der Ball in der blauen Box?","Blue","Green","F","affirmation","mismatch","speech","yes","ThumbDown","male","speech-gesture","1280","720","firefox","61.73","Windows 10","22","female","right","Sat Oct 12 2024 12:51:34 GMT+0200 (Mitteleuropäische Sommerzeit)","2","65","0","1728732311070"
"819","f","SpeechGestureMatch","../RequiredFiles/videos/NeinDaumenhoch_m.mp4","Ist der Ball in der grünen Box?","Blue","Green","F","negation","mismatch","speech","no","ThumbUp","male","speech-gesture","1280","720","firefox","61.73","Windows 10","22","female","right","Sat Oct 12 2024 12:51:40 GMT+0200 (Mitteleuropäische Sommerzeit)","2","66","0","1728732311070"
"902","f","SpeechGestureMatch","../RequiredFiles/videos/NeinDaumenrunter_f_no_gesture.mp4","Ist der Ball in der blauen Box?","Green","Blue","F","negation","na","speech","no","na","female","speech-gesture","1280","720","firefox","61.73","Windows 10","22","female","right","Sat Oct 12 2024 12:51:46 GMT+0200 (Mitteleuropäische Sommerzeit)","2","67","0","1728732311070"
"821","f","SpeechGestureMatch","../RequiredFiles/videos/NeinDaumenrunter_f.mp4","Ist der Ball in der grünen Box?","Blue","Green","F","negation","match","speech","no","ThumbDown","female","speech-gesture","1280","720","firefox","61.73","Windows 10","22","female","right","Sat Oct 12 2024 12:51:53 GMT+0200 (Mitteleuropäische Sommerzeit)","2","68","0","1728732311070"
"861","j","SpeechGestureMatch","../RequiredFiles/videos/NeinDaumenhoch_m_no_gesture.mp4","Ist der Ball in der blauen Box?","Blue","Green","J","negation","na","speech","no","na","male","speech-gesture","1280","720","firefox","61.73","Windows 10","22","female","right","Sat Oct 12 2024 12:51:59 GMT+0200 (Mitteleuropäische Sommerzeit)","2","69","0","1728732311070"
"771","f","SpeechGestureMatch","../RequiredFiles/videos/NeinDaumenrunter_m.mp4","Ist der Ball in der grünen Box?","Blue","Green","F","negation","match","speech","no","ThumbDown","male","speech-gesture","1280","720","firefox","61.73","Windows 10","22","female","right","Sat Oct 12 2024 12:52:06 GMT+0200 (Mitteleuropäische Sommerzeit)","2","70","0","1728732311070"
"792","j","SpeechGestureMatch","../RequiredFiles/videos/NeinDaumenrunter_f_no_gesture.mp4","Ist der Ball in der blauen Box?","Blue","Green","J","negation","na","speech","no","na","female","speech-gesture","1280","720","firefox","61.73","Windows 10","22","female","right","Sat Oct 12 2024 12:52:12 GMT+0200 (Mitteleuropäische Sommerzeit)","2","71","0","1728732311070"
"846","f","SpeechGestureMatch","../RequiredFiles/videos/JaDaumenhoch_f.mp4","Ist der Ball in der grünen Box?","Green","Blue","F","affirmation","match","speech","yes","ThumbUp","female","speech-gesture","1280","720","firefox","61.73","Windows 10","22","female","right","Sat Oct 12 2024 12:52:18 GMT+0200 (Mitteleuropäische Sommerzeit)","2","72","0","1728732311070"
"872","j","SpeechGestureMatch","../RequiredFiles/videos/NeinDaumenhoch_m.mp4","Ist der Ball in der grünen Box?","Green","Blue","J","negation","mismatch","speech","no","ThumbUp","male","speech-gesture","1280","720","firefox","61.73","Windows 10","22","female","right","Sat Oct 12 2024 12:52:25 GMT+0200 (Mitteleuropäische Sommerzeit)","2","73","0","1728732311070"
"717","j","SpeechGestureMatch","../RequiredFiles/videos/JaDaumenrunter_m.mp4","Ist der Ball in der grünen Box?","Blue","Green","J","affirmation","mismatch","speech","yes","ThumbDown","male","speech-gesture","1280","720","firefox","61.73","Windows 10","22","female","right","Sat Oct 12 2024 12:52:31 GMT+0200 (Mitteleuropäische Sommerzeit)","2","74","0","1728732311070"
"816","j","SpeechGestureMatch","../RequiredFiles/videos/JaDaumenhoch_f_no_gesture.mp4","Ist der Ball in der blauen Box?","Green","Blue","J","affirmation","na","speech","yes","na","female","speech-gesture","1280","720","firefox","61.73","Windows 10","22","female","right","Sat Oct 12 2024 12:52:37 GMT+0200 (Mitteleuropäische Sommerzeit)","2","75","0","1728732311070"
"765","f","SpeechGestureMatch","../RequiredFiles/videos/JaDaumenrunter_m_no_gesture.mp4","Ist der Ball in der grünen Box?","Green","Blue","F","affirmation","na","speech","yes","na","male","speech-gesture","1280","720","firefox","61.73","Windows 10","22","female","right","Sat Oct 12 2024 12:52:44 GMT+0200 (Mitteleuropäische Sommerzeit)","2","76","0","1728732311070"
"793","j","SpeechGestureMatch","../RequiredFiles/videos/JaDaumenrunter_m.mp4","Ist der Ball in der grünen Box?","Blue","Green","J","affirmation","mismatch","speech","yes","ThumbDown","male","speech-gesture","1280","720","firefox","61.73","Windows 10","22","female","right","Sat Oct 12 2024 12:52:50 GMT+0200 (Mitteleuropäische Sommerzeit)","2","77","0","1728732311070"
"752","j","SpeechGestureMatch","../RequiredFiles/videos/JaDaumenhoch_m_no_gesture.mp4","Ist der Ball in der grünen Box?","Blue","Green","J","affirmation","na","speech","yes","na","male","speech-gesture","1280","720","firefox","61.73","Windows 10","22","female","right","Sat Oct 12 2024 12:52:56 GMT+0200 (Mitteleuropäische Sommerzeit)","2","78","0","1728732311070"
"684","j","SpeechGestureMatch","../RequiredFiles/videos/JaDaumenhoch_m.mp4","Ist der Ball in der grünen Box?","Blue","Green","J","affirmation","match","speech","yes","ThumbUp","male","speech-gesture","1280","720","firefox","61.73","Windows 10","22","female","right","Sat Oct 12 2024 12:53:03 GMT+0200 (Mitteleuropäische Sommerzeit)","2","79","0","1728732311070"
"898","j","SpeechGestureMatch","../RequiredFiles/videos/NeinDaumenhoch_f_no_gesture.mp4","Ist der Ball in der blauen Box?","Blue","Green","J","negation","na","speech","no","na","female","speech-gesture","1280","720","firefox","61.73","Windows 10","22","female","right","Sat Oct 12 2024 12:53:09 GMT+0200 (Mitteleuropäische Sommerzeit)","2","80","0","1728732311070"
"981","f","SpeechGestureMatch","../RequiredFiles/videos/NeinDaumenhoch_f.mp4","Ist der Ball in der blauen Box?","Green","Blue","F","negation","mismatch","speech","no","ThumbUp","female","speech-gesture","1280","720","firefox","61.73","Windows 10","22","female","right","Sat Oct 12 2024 12:53:16 GMT+0200 (Mitteleuropäische Sommerzeit)","2","81","0","1728732311070"
"1212","f","SpeechGestureMatch","../RequiredFiles/videos/JaDaumenrunter_f.mp4","Ist der Ball in der blauen Box?","Blue","Green","F","affirmation","mismatch","speech","yes","ThumbDown","female","speech-gesture","1280","720","firefox","61.73","Windows 10","22","female","right","Sat Oct 12 2024 12:53:22 GMT+0200 (Mitteleuropäische Sommerzeit)","2","82","0","1728732311070"
"870","j","SpeechGestureMatch","../RequiredFiles/videos/JaDaumenhoch_m_no_gesture.mp4","Ist der Ball in der blauen Box?","Green","Blue","J","affirmation","na","speech","yes","na","male","speech-gesture","1280","720","firefox","61.73","Windows 10","22","female","right","Sat Oct 12 2024 12:53:29 GMT+0200 (Mitteleuropäische Sommerzeit)","2","83","0","1728732311070"
"1011","j","SpeechGestureMatch","../RequiredFiles/videos/NeinDaumenrunter_m.mp4","Ist der Ball in der grünen Box?","Green","Blue","J","negation","match","speech","no","ThumbDown","male","speech-gesture","1280","720","firefox","61.73","Windows 10","22","female","right","Sat Oct 12 2024 12:53:35 GMT+0200 (Mitteleuropäische Sommerzeit)","2","84","0","1728732311070"
"958","j","SpeechGestureMatch","../RequiredFiles/videos/JaDaumenrunter_f_no_gesture.mp4","Ist der Ball in der grünen Box?","Blue","Green","J","affirmation","na","speech","yes","na","female","speech-gesture","1280","720","firefox","61.73","Windows 10","22","female","right","Sat Oct 12 2024 12:53:42 GMT+0200 (Mitteleuropäische Sommerzeit)","2","85","0","1728732311070"
"756","j","SpeechGestureMatch","../RequiredFiles/videos/JaDaumenhoch_m.mp4","Ist der Ball in der grünen Box?","Blue","Green","J","affirmation","match","speech","yes","ThumbUp","male","speech-gesture","1280","720","firefox","61.73","Windows 10","22","female","right","Sat Oct 12 2024 12:53:48 GMT+0200 (Mitteleuropäische Sommerzeit)","2","86","0","1728732311070"
"962","j","SpeechGestureMatch","../RequiredFiles/videos/NeinDaumenhoch_f.mp4","Ist der Ball in der grünen Box?","Green","Blue","J","negation","mismatch","speech","no","ThumbUp","female","speech-gesture","1280","720","firefox","61.73","Windows 10","22","female","right","Sat Oct 12 2024 12:53:55 GMT+0200 (Mitteleuropäische Sommerzeit)","2","87","0","1728732311070"
"1295","f","SpeechGestureMatch","../RequiredFiles/videos/JaDaumenhoch_f_no_gesture.mp4","Ist der Ball in der grünen Box?","Green","Blue","F","affirmation","na","speech","yes","na","female","speech-gesture","1280","720","firefox","61.73","Windows 10","22","female","right","Sat Oct 12 2024 12:54:02 GMT+0200 (Mitteleuropäische Sommerzeit)","2","88","0","1728732311070"
"854","j","SpeechGestureMatch","../RequiredFiles/videos/NeinDaumenhoch_m_no_gesture.mp4","Ist der Ball in der grünen Box?","Green","Blue","J","negation","na","speech","no","na","male","speech-gesture","1280","720","firefox","61.73","Windows 10","22","female","right","Sat Oct 12 2024 12:54:08 GMT+0200 (Mitteleuropäische Sommerzeit)","2","89","0","1728732311070"
"1025","j","SpeechGestureMatch","../RequiredFiles/videos/NeinDaumenrunter_f.mp4","Ist der Ball in der grünen Box?","Green","Blue","J","negation","match","speech","no","ThumbDown","female","speech-gesture","1280","720","firefox","61.73","Windows 10","22","female","right","Sat Oct 12 2024 12:54:15 GMT+0200 (Mitteleuropäische Sommerzeit)","2","90","0","1728732311070"
"1300","j","SpeechGestureMatch","../RequiredFiles/videos/JaDaumenhoch_f_no_gesture.mp4","Ist der Ball in der grünen Box?","Blue","Green","J","affirmation","na","speech","yes","na","female","speech-gesture","1280","720","firefox","61.73","Windows 10","22","female","right","Sat Oct 12 2024 12:54:21 GMT+0200 (Mitteleuropäische Sommerzeit)","2","91","0","1728732311070"
"1145","j","SpeechGestureMatch","../RequiredFiles/videos/NeinDaumenhoch_f.mp4","Ist der Ball in der blauen Box?","Blue","Green","J","negation","mismatch","speech","no","ThumbUp","female","speech-gesture","1280","720","firefox","61.73","Windows 10","22","female","right","Sat Oct 12 2024 12:54:28 GMT+0200 (Mitteleuropäische Sommerzeit)","2","92","0","1728732311070"
"1085","f","SpeechGestureMatch","../RequiredFiles/videos/NeinDaumenrunter_m_no_gesture.mp4","Ist der Ball in der blauen Box?","Green","Blue","F","negation","na","speech","no","na","male","speech-gesture","1280","720","firefox","61.73","Windows 10","22","female","right","Sat Oct 12 2024 12:54:35 GMT+0200 (Mitteleuropäische Sommerzeit)","2","93","0","1728732311070"
"989","f","SpeechGestureMatch","../RequiredFiles/videos/NeinDaumenhoch_f.mp4","Ist der Ball in der grünen Box?","Blue","Green","F","negation","mismatch","speech","no","ThumbUp","female","speech-gesture","1280","720","firefox","61.73","Windows 10","22","female","right","Sat Oct 12 2024 12:54:41 GMT+0200 (Mitteleuropäische Sommerzeit)","2","94","0","1728732311070"
"847","j","SpeechGestureMatch","../RequiredFiles/videos/NeinDaumenhoch_f.mp4","Ist der Ball in der blauen Box?","Blue","Green","J","negation","mismatch","speech","no","ThumbUp","female","speech-gesture","1280","720","firefox","61.73","Windows 10","22","female","right","Sat Oct 12 2024 12:54:48 GMT+0200 (Mitteleuropäische Sommerzeit)","2","95","0","1728732311070"
"1665","f","SpeechGestureMatch","../RequiredFiles/videos/JaDaumenhoch_m.mp4","Ist der Ball in der blauen Box?","Blue","Green","F","affirmation","match","speech","yes","ThumbUp","male","speech-gesture","1280","720","firefox","61.73","Windows 10","22","female","right","Sat Oct 12 2024 12:54:55 GMT+0200 (Mitteleuropäische Sommerzeit)","2","96","0","1728732311070"
"1301","f","SpeechGestureMatch","../RequiredFiles/videos/NeinDaumenrunter_f_no_sound.mp4","Ist der Ball in der blauen Box?","Green","Blue","F","negation","na","gesture","na","ThumbDown","female","speech-gesture","1280","720","firefox","61.73","Windows 10","22","female","right","Sat Oct 12 2024 12:57:13 GMT+0200 (Mitteleuropäische Sommerzeit)","3","1","0","1728732311070"
"1563","j","SpeechGestureMatch","../RequiredFiles/videos/JaDaumenrunter_f.mp4","Ist der Ball in der grünen Box?","Green","Blue","J","negation","mismatch","gesture","yes","ThumbDown","female","speech-gesture","1280","720","firefox","61.73","Windows 10","22","female","right","Sat Oct 12 2024 12:57:20 GMT+0200 (Mitteleuropäische Sommerzeit)","3","2","0","1728732311070"
"1026","j","SpeechGestureMatch","../RequiredFiles/videos/JaDaumenhoch_f.mp4","Ist der Ball in der grünen Box?","Blue","Green","J","affirmation","match","gesture","yes","ThumbUp","female","speech-gesture","1280","720","firefox","61.73","Windows 10","22","female","right","Sat Oct 12 2024 12:57:26 GMT+0200 (Mitteleuropäische Sommerzeit)","3","3","0","1728732311070"
"896","j","SpeechGestureMatch","../RequiredFiles/videos/JaDaumenrunter_f_no_sound.mp4","Ist der Ball in der blauen Box?","Blue","Green","J","negation","na","gesture","na","ThumbDown","female","speech-gesture","1280","720","firefox","61.73","Windows 10","22","female","right","Sat Oct 12 2024 12:57:33 GMT+0200 (Mitteleuropäische Sommerzeit)","3","4","0","1728732311070"
"1046","j","SpeechGestureMatch","../RequiredFiles/videos/JaDaumenhoch_f.mp4","Ist der Ball in der blauen Box?","Green","Blue","J","affirmation","match","gesture","yes","ThumbUp","female","speech-gesture","1280","720","firefox","61.73","Windows 10","22","female","right","Sat Oct 12 2024 12:57:40 GMT+0200 (Mitteleuropäische Sommerzeit)","3","5","0","1728732311070"
"1473","j","SpeechGestureMatch","../RequiredFiles/videos/NeinDaumenhoch_m.mp4","Ist der Ball in der grünen Box?","Blue","Green","J","affirmation","mismatch","gesture","no","ThumbUp","male","speech-gesture","1280","720","firefox","61.73","Windows 10","22","female","right","Sat Oct 12 2024 12:57:47 GMT+0200 (Mitteleuropäische Sommerzeit)","3","6","0","1728732311070"
"1236","f","SpeechGestureMatch","../RequiredFiles/videos/NeinDaumenrunter_m.mp4","Ist der Ball in der grünen Box?","Blue","Green","F","negation","match","gesture","no","ThumbDown","male","speech-gesture","1280","720","firefox","61.73","Windows 10","22","female","right","Sat Oct 12 2024 12:57:53 GMT+0200 (Mitteleuropäische Sommerzeit)","3","7","0","1728732311070"
"758","j","SpeechGestureMatch","../RequiredFiles/videos/JaDaumenhoch_m.mp4","Ist der Ball in der blauen Box?","Green","Blue","J","affirmation","match","gesture","yes","ThumbUp","male","speech-gesture","1280","720","firefox","61.73","Windows 10","22","female","right","Sat Oct 12 2024 12:58:00 GMT+0200 (Mitteleuropäische Sommerzeit)","3","8","0","1728732311070"
"919","f","SpeechGestureMatch","../RequiredFiles/videos/JaDaumenhoch_f.mp4","Ist der Ball in der blauen Box?","Blue","Green","F","affirmation","match","gesture","yes","ThumbUp","female","speech-gesture","1280","720","firefox","61.73","Windows 10","22","female","right","Sat Oct 12 2024 12:58:06 GMT+0200 (Mitteleuropäische Sommerzeit)","3","9","0","1728732311070"
"1079","f","SpeechGestureMatch","../RequiredFiles/videos/JaDaumenhoch_m.mp4","Ist der Ball in der blauen Box?","Blue","Green","F","affirmation","match","gesture","yes","ThumbUp","male","speech-gesture","1280","720","firefox","61.73","Windows 10","22","female","right","Sat Oct 12 2024 12:58:13 GMT+0200 (Mitteleuropäische Sommerzeit)","3","10","0","1728732311070"
"873","j","SpeechGestureMatch","../RequiredFiles/videos/JaDaumenrunter_f_no_sound.mp4","Ist der Ball in der blauen Box?","Green","Blue","F","negation","na","gesture","na","ThumbDown","female","speech-gesture","1280","720","firefox","61.73","Windows 10","22","female","right","Sat Oct 12 2024 12:58:19 GMT+0200 (Mitteleuropäische Sommerzeit)","3","11","1","1728732311070"
"1490","j","SpeechGestureMatch","../RequiredFiles/videos/NeinDaumenrunter_f.mp4","Ist der Ball in der grünen Box?","Green","Blue","J","negation","match","gesture","no","ThumbDown","female","speech-gesture","1280","720","firefox","61.73","Windows 10","22","female","right","Sat Oct 12 2024 12:58:26 GMT+0200 (Mitteleuropäische Sommerzeit)","3","12","0","1728732311070"
"1658","j","SpeechGestureMatch","../RequiredFiles/videos/NeinDaumenhoch_f.mp4","Ist der Ball in der blauen Box?","Green","Blue","J","affirmation","mismatch","gesture","no","ThumbUp","female","speech-gesture","1280","720","firefox","61.73","Windows 10","22","female","right","Sat Oct 12 2024 12:58:34 GMT+0200 (Mitteleuropäische Sommerzeit)","3","13","0","1728732311070"
"1410","j","SpeechGestureMatch","../RequiredFiles/videos/JaDaumenrunter_m.mp4","Ist der Ball in der blauen Box?","Blue","Green","J","negation","mismatch","gesture","yes","ThumbDown","male","speech-gesture","1280","720","firefox","61.73","Windows 10","22","female","right","Sat Oct 12 2024 12:58:41 GMT+0200 (Mitteleuropäische Sommerzeit)","3","14","0","1728732311070"
"2020","j","SpeechGestureMatch","../RequiredFiles/videos/NeinDaumenhoch_f_no_sound.mp4","Ist der Ball in der grünen Box?","Blue","Green","J","affirmation","na","gesture","na","ThumbUp","female","speech-gesture","1280","720","firefox","61.73","Windows 10","22","female","right","Sat Oct 12 2024 12:58:48 GMT+0200 (Mitteleuropäische Sommerzeit)","3","15","0","1728732311070"
"964","j","SpeechGestureMatch","../RequiredFiles/videos/JaDaumenhoch_m.mp4","Ist der Ball in der grünen Box?","Blue","Green","J","affirmation","match","gesture","yes","ThumbUp","male","speech-gesture","1280","720","firefox","61.73","Windows 10","22","female","right","Sat Oct 12 2024 12:58:55 GMT+0200 (Mitteleuropäische Sommerzeit)","3","16","0","1728732311070"
"1210","f","SpeechGestureMatch","../RequiredFiles/videos/JaDaumenrunter_m.mp4","Ist der Ball in der grünen Box?","Blue","Green","F","negation","mismatch","gesture","yes","ThumbDown","male","speech-gesture","1280","720","firefox","61.73","Windows 10","22","female","right","Sat Oct 12 2024 12:59:02 GMT+0200 (Mitteleuropäische Sommerzeit)","3","17","0","1728732311070"
"1673","f","SpeechGestureMatch","../RequiredFiles/videos/JaDaumenrunter_m.mp4","Ist der Ball in der blauen Box?","Green","Blue","F","negation","mismatch","gesture","yes","ThumbDown","male","speech-gesture","1280","720","firefox","61.73","Windows 10","22","female","right","Sat Oct 12 2024 12:59:09 GMT+0200 (Mitteleuropäische Sommerzeit)","3","18","0","1728732311070"
"1459","f","SpeechGestureMatch","../RequiredFiles/videos/JaDaumenrunter_m.mp4","Ist der Ball in der blauen Box?","Green","Blue","F","negation","mismatch","gesture","yes","ThumbDown","male","speech-gesture","1280","720","firefox","61.73","Windows 10","22","female","right","Sat Oct 12 2024 12:59:16 GMT+0200 (Mitteleuropäische Sommerzeit)","3","19","0","1728732311070"
"1428","f","SpeechGestureMatch","../RequiredFiles/videos/NeinDaumenhoch_f_no_sound.mp4","Ist der Ball in der grünen Box?","Green","Blue","F","affirmation","na","gesture","na","ThumbUp","female","speech-gesture","1280","720","firefox","61.73","Windows 10","22","female","right","Sat Oct 12 2024 12:59:23 GMT+0200 (Mitteleuropäische Sommerzeit)","3","20","0","1728732311070"
"1759","f","SpeechGestureMatch","../RequiredFiles/videos/NeinDaumenhoch_m.mp4","Ist der Ball in der grünen Box?","Blue","Green","J","affirmation","mismatch","gesture","no","ThumbUp","male","speech-gesture","1280","720","firefox","61.73","Windows 10","22","female","right","Sat Oct 12 2024 12:59:30 GMT+0200 (Mitteleuropäische Sommerzeit)","3","21","1","1728732311070"
"1104","f","SpeechGestureMatch","../RequiredFiles/videos/NeinDaumenhoch_f.mp4","Ist der Ball in der blauen Box?","Blue","Green","F","affirmation","mismatch","gesture","no","ThumbUp","female","speech-gesture","1280","720","firefox","61.73","Windows 10","22","female","right","Sat Oct 12 2024 12:59:37 GMT+0200 (Mitteleuropäische Sommerzeit)","3","22","0","1728732311070"
"1688","f","SpeechGestureMatch","../RequiredFiles/videos/NeinDaumenhoch_m_no_sound.mp4","Ist der Ball in der grünen Box?","Green","Blue","F","affirmation","na","gesture","na","ThumbUp","male","speech-gesture","1280","720","firefox","61.73","Windows 10","22","female","right","Sat Oct 12 2024 12:59:44 GMT+0200 (Mitteleuropäische Sommerzeit)","3","23","0","1728732311070"
"789","j","SpeechGestureMatch","../RequiredFiles/videos/NeinDaumenhoch_m_no_sound.mp4","Ist der Ball in der blauen Box?","Green","Blue","J","affirmation","na","gesture","na","ThumbUp","male","speech-gesture","1280","720","firefox","61.73","Windows 10","22","female","right","Sat Oct 12 2024 12:59:50 GMT+0200 (Mitteleuropäische Sommerzeit)","3","24","0","1728732311070"
"1285","j","SpeechGestureMatch","../RequiredFiles/videos/NeinDaumenhoch_m.mp4","Ist der Ball in der blauen Box?","Green","Blue","J","affirmation","mismatch","gesture","no","ThumbUp","male","speech-gesture","1280","720","firefox","61.73","Windows 10","22","female","right","Sat Oct 12 2024 12:59:57 GMT+0200 (Mitteleuropäische Sommerzeit)","3","25","0","1728732311070"
"881","f","SpeechGestureMatch","../RequiredFiles/videos/JaDaumenhoch_m_no_sound.mp4","Ist der Ball in der grünen Box?","Green","Blue","F","affirmation","na","gesture","na","ThumbUp","male","speech-gesture","1280","720","firefox","61.73","Windows 10","22","female","right","Sat Oct 12 2024 13:00:04 GMT+0200 (Mitteleuropäische Sommerzeit)","3","26","0","1728732311070"
"868","f","SpeechGestureMatch","../RequiredFiles/videos/NeinDaumenhoch_m.mp4","Ist der Ball in der grünen Box?","Green","Blue","F","affirmation","mismatch","gesture","no","ThumbUp","male","speech-gesture","1280","720","firefox","61.73","Windows 10","22","female","right","Sat Oct 12 2024 13:00:10 GMT+0200 (Mitteleuropäische Sommerzeit)","3","27","0","1728732311070"
"1152","f","SpeechGestureMatch","../RequiredFiles/videos/JaDaumenrunter_m_no_sound.mp4","Ist der Ball in der grünen Box?","Blue","Green","F","negation","na","gesture","na","ThumbDown","male","speech-gesture","1280","720","firefox","61.73","Windows 10","22","female","right","Sat Oct 12 2024 13:00:17 GMT+0200 (Mitteleuropäische Sommerzeit)","3","28","0","1728732311070"
"964","f","SpeechGestureMatch","../RequiredFiles/videos/NeinDaumenhoch_m.mp4","Ist der Ball in der grünen Box?","Green","Blue","F","affirmation","mismatch","gesture","no","ThumbUp","male","speech-gesture","1280","720","firefox","61.73","Windows 10","22","female","right","Sat Oct 12 2024 13:00:23 GMT+0200 (Mitteleuropäische Sommerzeit)","3","29","0","1728732311070"
"912","f","SpeechGestureMatch","../RequiredFiles/videos/NeinDaumenhoch_m.mp4","Ist der Ball in der blauen Box?","Blue","Green","F","affirmation","mismatch","gesture","no","ThumbUp","male","speech-gesture","1280","720","firefox","61.73","Windows 10","22","female","right","Sat Oct 12 2024 13:00:30 GMT+0200 (Mitteleuropäische Sommerzeit)","3","30","0","1728732311070"
"899","j","SpeechGestureMatch","../RequiredFiles/videos/NeinDaumenrunter_f.mp4","Ist der Ball in der blauen Box?","Blue","Green","J","negation","match","gesture","no","ThumbDown","female","speech-gesture","1280","720","firefox","61.73","Windows 10","22","female","right","Sat Oct 12 2024 13:00:36 GMT+0200 (Mitteleuropäische Sommerzeit)","3","31","0","1728732311070"
"940","f","SpeechGestureMatch","../RequiredFiles/videos/JaDaumenhoch_f.mp4","Ist der Ball in der blauen Box?","Blue","Green","F","affirmation","match","gesture","yes","ThumbUp","female","speech-gesture","1280","720","firefox","61.73","Windows 10","22","female","right","Sat Oct 12 2024 13:00:43 GMT+0200 (Mitteleuropäische Sommerzeit)","3","32","0","1728732311070"
"1326","j","SpeechGestureMatch","../RequiredFiles/videos/NeinDaumenrunter_m_no_sound.mp4","Ist der Ball in der grünen Box?","Green","Blue","J","negation","na","gesture","na","ThumbDown","male","speech-gesture","1280","720","firefox","61.73","Windows 10","22","female","right","Sat Oct 12 2024 13:00:50 GMT+0200 (Mitteleuropäische Sommerzeit)","3","33","0","1728732311070"
"1426","f","SpeechGestureMatch","../RequiredFiles/videos/NeinDaumenrunter_f.mp4","Ist der Ball in der blauen Box?","Blue","Green","J","negation","match","gesture","no","ThumbDown","female","speech-gesture","1280","720","firefox","61.73","Windows 10","22","female","right","Sat Oct 12 2024 13:00:57 GMT+0200 (Mitteleuropäische Sommerzeit)","3","34","1","1728732311070"
"1705","f","SpeechGestureMatch","../RequiredFiles/videos/NeinDaumenrunter_m.mp4","Ist der Ball in der blauen Box?","Green","Blue","F","negation","match","gesture","no","ThumbDown","male","speech-gesture","1280","720","firefox","61.73","Windows 10","22","female","right","Sat Oct 12 2024 13:01:04 GMT+0200 (Mitteleuropäische Sommerzeit)","3","35","0","1728732311070"
"1621","j","SpeechGestureMatch","../RequiredFiles/videos/NeinDaumenhoch_f.mp4","Ist der Ball in der grünen Box?","Blue","Green","J","affirmation","mismatch","gesture","no","ThumbUp","female","speech-gesture","1280","720","firefox","61.73","Windows 10","22","female","right","Sat Oct 12 2024 13:01:11 GMT+0200 (Mitteleuropäische Sommerzeit)","3","36","0","1728732311070"
"1653","j","SpeechGestureMatch","../RequiredFiles/videos/JaDaumenrunter_m.mp4","Ist der Ball in der blauen Box?","Blue","Green","J","negation","mismatch","gesture","yes","ThumbDown","male","speech-gesture","1280","720","firefox","61.73","Windows 10","22","female","right","Sat Oct 12 2024 13:01:19 GMT+0200 (Mitteleuropäische Sommerzeit)","3","37","0","1728732311070"
"1222","j","SpeechGestureMatch","../RequiredFiles/videos/JaDaumenhoch_m.mp4","Ist der Ball in der blauen Box?","Green","Blue","J","affirmation","match","gesture","yes","ThumbUp","male","speech-gesture","1280","720","firefox","61.73","Windows 10","22","female","right","Sat Oct 12 2024 13:01:25 GMT+0200 (Mitteleuropäische Sommerzeit)","3","38","0","1728732311070"
"1105","j","SpeechGestureMatch","../RequiredFiles/videos/JaDaumenhoch_m_no_sound.mp4","Ist der Ball in der grünen Box?","Blue","Green","J","affirmation","na","gesture","na","ThumbUp","male","speech-gesture","1280","720","firefox","61.73","Windows 10","22","female","right","Sat Oct 12 2024 13:01:32 GMT+0200 (Mitteleuropäische Sommerzeit)","3","39","0","1728732311070"
"1215","f","SpeechGestureMatch","../RequiredFiles/videos/JaDaumenrunter_f.mp4","Ist der Ball in der blauen Box?","Green","Blue","F","negation","mismatch","gesture","yes","ThumbDown","female","speech-gesture","1280","720","firefox","61.73","Windows 10","22","female","right","Sat Oct 12 2024 13:01:39 GMT+0200 (Mitteleuropäische Sommerzeit)","3","40","0","1728732311070"
"959","j","SpeechGestureMatch","../RequiredFiles/videos/JaDaumenhoch_m_no_sound.mp4","Ist der Ball in der blauen Box?","Green","Blue","J","affirmation","na","gesture","na","ThumbUp","male","speech-gesture","1280","720","firefox","61.73","Windows 10","22","female","right","Sat Oct 12 2024 13:01:45 GMT+0200 (Mitteleuropäische Sommerzeit)","3","41","0","1728732311070"
"1031","f","SpeechGestureMatch","../RequiredFiles/videos/JaDaumenhoch_m.mp4","Ist der Ball in der grünen Box?","Green","Blue","F","affirmation","match","gesture","yes","ThumbUp","male","speech-gesture","1280","720","firefox","61.73","Windows 10","22","female","right","Sat Oct 12 2024 13:01:52 GMT+0200 (Mitteleuropäische Sommerzeit)","3","42","0","1728732311070"
"1131","f","SpeechGestureMatch","../RequiredFiles/videos/NeinDaumenrunter_m.mp4","Ist der Ball in der grünen Box?","Blue","Green","F","negation","match","gesture","no","ThumbDown","male","speech-gesture","1280","720","firefox","61.73","Windows 10","22","female","right","Sat Oct 12 2024 13:01:59 GMT+0200 (Mitteleuropäische Sommerzeit)","3","43","0","1728732311070"
"1033","j","SpeechGestureMatch","../RequiredFiles/videos/JaDaumenhoch_f_no_sound.mp4","Ist der Ball in der blauen Box?","Blue","Green","F","affirmation","na","gesture","na","ThumbUp","female","speech-gesture","1280","720","firefox","61.73","Windows 10","22","female","right","Sat Oct 12 2024 13:02:05 GMT+0200 (Mitteleuropäische Sommerzeit)","3","44","1","1728732311070"
"1013","f","SpeechGestureMatch","../RequiredFiles/videos/NeinDaumenrunter_m.mp4","Ist der Ball in der blauen Box?","Green","Blue","F","negation","match","gesture","no","ThumbDown","male","speech-gesture","1280","720","firefox","61.73","Windows 10","22","female","right","Sat Oct 12 2024 13:02:12 GMT+0200 (Mitteleuropäische Sommerzeit)","3","45","0","1728732311070"
"906","j","SpeechGestureMatch","../RequiredFiles/videos/JaDaumenhoch_f_no_sound.mp4","Ist der Ball in der blauen Box?","Green","Blue","J","affirmation","na","gesture","na","ThumbUp","female","speech-gesture","1280","720","firefox","61.73","Windows 10","22","female","right","Sat Oct 12 2024 13:02:18 GMT+0200 (Mitteleuropäische Sommerzeit)","3","46","0","1728732311070"
"1020","f","SpeechGestureMatch","../RequiredFiles/videos/JaDaumenrunter_m.mp4","Ist der Ball in der grünen Box?","Green","Blue","J","negation","mismatch","gesture","yes","ThumbDown","male","speech-gesture","1280","720","firefox","61.73","Windows 10","22","female","right","Sat Oct 12 2024 13:02:25 GMT+0200 (Mitteleuropäische Sommerzeit)","3","47","1","1728732311070"
"1080","f","SpeechGestureMatch","../RequiredFiles/videos/JaDaumenhoch_f_no_sound.mp4","Ist der Ball in der grünen Box?","Green","Blue","F","affirmation","na","gesture","na","ThumbUp","female","speech-gesture","1280","720","firefox","61.73","Windows 10","22","female","right","Sat Oct 12 2024 13:02:31 GMT+0200 (Mitteleuropäische Sommerzeit)","3","48","0","1728732311070"
"1655","f","SpeechGestureMatch","../RequiredFiles/videos/JaDaumenhoch_m.mp4","Ist der Ball in der grünen Box?","Green","Blue","F","affirmation","match","gesture","yes","ThumbUp","male","speech-gesture","1280","720","firefox","61.73","Windows 10","22","female","right","Sat Oct 12 2024 13:02:39 GMT+0200 (Mitteleuropäische Sommerzeit)","3","49","0","1728732311070"
"908","f","SpeechGestureMatch","../RequiredFiles/videos/NeinDaumenrunter_f.mp4","Ist der Ball in der grünen Box?","Green","Blue","J","negation","match","gesture","no","ThumbDown","female","speech-gesture","1280","720","firefox","61.73","Windows 10","22","female","right","Sat Oct 12 2024 13:02:45 GMT+0200 (Mitteleuropäische Sommerzeit)","3","50","1","1728732311070"
"1225","f","SpeechGestureMatch","../RequiredFiles/videos/JaDaumenrunter_m_no_sound.mp4","Ist der Ball in der blauen Box?","Green","Blue","F","negation","na","gesture","na","ThumbDown","male","speech-gesture","1280","720","firefox","61.73","Windows 10","22","female","right","Sat Oct 12 2024 13:02:52 GMT+0200 (Mitteleuropäische Sommerzeit)","3","51","0","1728732311070"
"1018","f","SpeechGestureMatch","../RequiredFiles/videos/JaDaumenrunter_f_no_sound.mp4","Ist der Ball in der grünen Box?","Blue","Green","F","negation","na","gesture","na","ThumbDown","female","speech-gesture","1280","720","firefox","61.73","Windows 10","22","female","right","Sat Oct 12 2024 13:02:59 GMT+0200 (Mitteleuropäische Sommerzeit)","3","52","0","1728732311070"
"905","f","SpeechGestureMatch","../RequiredFiles/videos/NeinDaumenhoch_f.mp4","Ist der Ball in der grünen Box?","Green","Blue","F","affirmation","mismatch","gesture","no","ThumbUp","female","speech-gesture","1280","720","firefox","61.73","Windows 10","22","female","right","Sat Oct 12 2024 13:03:05 GMT+0200 (Mitteleuropäische Sommerzeit)","3","53","0","1728732311070"
"1028","j","SpeechGestureMatch","../RequiredFiles/videos/JaDaumenrunter_m_no_sound.mp4","Ist der Ball in der grünen Box?","Green","Blue","J","negation","na","gesture","na","ThumbDown","male","speech-gesture","1280","720","firefox","61.73","Windows 10","22","female","right","Sat Oct 12 2024 13:03:12 GMT+0200 (Mitteleuropäische Sommerzeit)","3","54","0","1728732311070"
"1059","j","SpeechGestureMatch","../RequiredFiles/videos/NeinDaumenrunter_m_no_sound.mp4","Ist der Ball in der blauen Box?","Blue","Green","J","negation","na","gesture","na","ThumbDown","male","speech-gesture","1280","720","firefox","61.73","Windows 10","22","female","right","Sat Oct 12 2024 13:03:18 GMT+0200 (Mitteleuropäische Sommerzeit)","3","55","0","1728732311070"
"1380","f","SpeechGestureMatch","../RequiredFiles/videos/NeinDaumenhoch_f.mp4","Ist der Ball in der grünen Box?","Green","Blue","F","affirmation","mismatch","gesture","no","ThumbUp","female","speech-gesture","1280","720","firefox","61.73","Windows 10","22","female","right","Sat Oct 12 2024 13:03:25 GMT+0200 (Mitteleuropäische Sommerzeit)","3","56","0","1728732311070"
"1179","j","SpeechGestureMatch","../RequiredFiles/videos/NeinDaumenrunter_m.mp4","Ist der Ball in der grünen Box?","Green","Blue","J","negation","match","gesture","no","ThumbDown","male","speech-gesture","1280","720","firefox","61.73","Windows 10","22","female","right","Sat Oct 12 2024 13:03:32 GMT+0200 (Mitteleuropäische Sommerzeit)","3","57","0","1728732311070"
"3078","j","SpeechGestureMatch","../RequiredFiles/videos/JaDaumenrunter_f_no_sound.mp4","Ist der Ball in der grünen Box?","Green","Blue","J","negation","na","gesture","na","ThumbDown","female","speech-gesture","1280","720","firefox","61.73","Windows 10","22","female","right","Sat Oct 12 2024 13:03:41 GMT+0200 (Mitteleuropäische Sommerzeit)","3","58","0","1728732311070"
"1633","j","SpeechGestureMatch","../RequiredFiles/videos/NeinDaumenhoch_m.mp4","Ist der Ball in der blauen Box?","Green","Blue","J","affirmation","mismatch","gesture","no","ThumbUp","male","speech-gesture","1280","720","firefox","61.73","Windows 10","22","female","right","Sat Oct 12 2024 13:03:48 GMT+0200 (Mitteleuropäische Sommerzeit)","3","59","0","1728732311070"
"1347","f","SpeechGestureMatch","../RequiredFiles/videos/JaDaumenhoch_m.mp4","Ist der Ball in der blauen Box?","Blue","Green","F","affirmation","match","gesture","yes","ThumbUp","male","speech-gesture","1280","720","firefox","61.73","Windows 10","22","female","right","Sat Oct 12 2024 13:03:55 GMT+0200 (Mitteleuropäische Sommerzeit)","3","60","0","1728732311070"
"1123","f","SpeechGestureMatch","../RequiredFiles/videos/NeinDaumenrunter_m_no_sound.mp4","Ist der Ball in der blauen Box?","Green","Blue","F","negation","na","gesture","na","ThumbDown","male","speech-gesture","1280","720","firefox","61.73","Windows 10","22","female","right","Sat Oct 12 2024 13:04:01 GMT+0200 (Mitteleuropäische Sommerzeit)","3","61","0","1728732311070"
"1149","f","SpeechGestureMatch","../RequiredFiles/videos/NeinDaumenrunter_f.mp4","Ist der Ball in der grünen Box?","Blue","Green","F","negation","match","gesture","no","ThumbDown","female","speech-gesture","1280","720","firefox","61.73","Windows 10","22","female","right","Sat Oct 12 2024 13:04:08 GMT+0200 (Mitteleuropäische Sommerzeit)","3","62","0","1728732311070"
"2387","j","SpeechGestureMatch","../RequiredFiles/videos/NeinDaumenrunter_m.mp4","Ist der Ball in der blauen Box?","Blue","Green","J","negation","match","gesture","no","ThumbDown","male","speech-gesture","1280","720","firefox","61.73","Windows 10","22","female","right","Sat Oct 12 2024 13:04:16 GMT+0200 (Mitteleuropäische Sommerzeit)","3","63","0","1728732311070"
"1007","f","SpeechGestureMatch","../RequiredFiles/videos/JaDaumenhoch_m_no_sound.mp4","Ist der Ball in der blauen Box?","Blue","Green","F","affirmation","na","gesture","na","ThumbUp","male","speech-gesture","1280","720","firefox","61.73","Windows 10","22","female","right","Sat Oct 12 2024 13:04:23 GMT+0200 (Mitteleuropäische Sommerzeit)","3","64","0","1728732311070"
"1067","j","SpeechGestureMatch","../RequiredFiles/videos/JaDaumenrunter_m_no_sound.mp4","Ist der Ball in der blauen Box?","Blue","Green","J","negation","na","gesture","na","ThumbDown","male","speech-gesture","1280","720","firefox","61.73","Windows 10","22","female","right","Sat Oct 12 2024 13:04:29 GMT+0200 (Mitteleuropäische Sommerzeit)","3","65","0","1728732311070"
"1149","f","SpeechGestureMatch","../RequiredFiles/videos/NeinDaumenrunter_f_no_sound.mp4","Ist der Ball in der grünen Box?","Blue","Green","F","negation","na","gesture","na","ThumbDown","female","speech-gesture","1280","720","firefox","61.73","Windows 10","22","female","right","Sat Oct 12 2024 13:04:36 GMT+0200 (Mitteleuropäische Sommerzeit)","3","66","0","1728732311070"
"1174","j","SpeechGestureMatch","../RequiredFiles/videos/JaDaumenhoch_f.mp4","Ist der Ball in der blauen Box?","Green","Blue","J","affirmation","match","gesture","yes","ThumbUp","female","speech-gesture","1280","720","firefox","61.73","Windows 10","22","female","right","Sat Oct 12 2024 13:04:43 GMT+0200 (Mitteleuropäische Sommerzeit)","3","67","0","1728732311070"
"1023","f","SpeechGestureMatch","../RequiredFiles/videos/JaDaumenhoch_f.mp4","Ist der Ball in der grünen Box?","Green","Blue","F","affirmation","match","gesture","yes","ThumbUp","female","speech-gesture","1280","720","firefox","61.73","Windows 10","22","female","right","Sat Oct 12 2024 13:04:49 GMT+0200 (Mitteleuropäische Sommerzeit)","3","68","0","1728732311070"
"1168","f","SpeechGestureMatch","../RequiredFiles/videos/NeinDaumenrunter_m_no_sound.mp4","Ist der Ball in der grünen Box?","Blue","Green","F","negation","na","gesture","na","ThumbDown","male","speech-gesture","1280","720","firefox","61.73","Windows 10","22","female","right","Sat Oct 12 2024 13:04:56 GMT+0200 (Mitteleuropäische Sommerzeit)","3","69","0","1728732311070"
"1562","f","SpeechGestureMatch","../RequiredFiles/videos/JaDaumenhoch_f.mp4","Ist der Ball in der grünen Box?","Green","Blue","F","affirmation","match","gesture","yes","ThumbUp","female","speech-gesture","1280","720","firefox","61.73","Windows 10","22","female","right","Sat Oct 12 2024 13:05:03 GMT+0200 (Mitteleuropäische Sommerzeit)","3","70","0","1728732311070"
"1250","j","SpeechGestureMatch","../RequiredFiles/videos/NeinDaumenhoch_m_no_sound.mp4","Ist der Ball in der blauen Box?","Blue","Green","F","affirmation","na","gesture","na","ThumbUp","male","speech-gesture","1280","720","firefox","61.73","Windows 10","22","female","right","Sat Oct 12 2024 13:05:10 GMT+0200 (Mitteleuropäische Sommerzeit)","3","71","1","1728732311070"
"1058","j","SpeechGestureMatch","../RequiredFiles/videos/NeinDaumenhoch_m_no_sound.mp4","Ist der Ball in der grünen Box?","Blue","Green","J","affirmation","na","gesture","na","ThumbUp","male","speech-gesture","1280","720","firefox","61.73","Windows 10","22","female","right","Sat Oct 12 2024 13:05:17 GMT+0200 (Mitteleuropäische Sommerzeit)","3","72","0","1728732311070"
"1377","j","SpeechGestureMatch","../RequiredFiles/videos/NeinDaumenrunter_f_no_sound.mp4","Ist der Ball in der blauen Box?","Blue","Green","J","negation","na","gesture","na","ThumbDown","female","speech-gesture","1280","720","firefox","61.73","Windows 10","22","female","right","Sat Oct 12 2024 13:05:24 GMT+0200 (Mitteleuropäische Sommerzeit)","3","73","0","1728732311070"
"1442","f","SpeechGestureMatch","../RequiredFiles/videos/JaDaumenrunter_m.mp4","Ist der Ball in der grünen Box?","Blue","Green","F","negation","mismatch","gesture","yes","ThumbDown","male","speech-gesture","1280","720","firefox","61.73","Windows 10","22","female","right","Sat Oct 12 2024 13:05:31 GMT+0200 (Mitteleuropäische Sommerzeit)","3","74","0","1728732311070"
"1327","j","SpeechGestureMatch","../RequiredFiles/videos/NeinDaumenrunter_m.mp4","Ist der Ball in der grünen Box?","Green","Blue","J","negation","match","gesture","no","ThumbDown","male","speech-gesture","1280","720","firefox","61.73","Windows 10","22","female","right","Sat Oct 12 2024 13:05:38 GMT+0200 (Mitteleuropäische Sommerzeit)","3","75","0","1728732311070"
"1238","j","SpeechGestureMatch","../RequiredFiles/videos/JaDaumenrunter_f.mp4","Ist der Ball in der grünen Box?","Green","Blue","J","negation","mismatch","gesture","yes","ThumbDown","female","speech-gesture","1280","720","firefox","61.73","Windows 10","22","female","right","Sat Oct 12 2024 13:05:44 GMT+0200 (Mitteleuropäische Sommerzeit)","3","76","0","1728732311070"
"1142","j","SpeechGestureMatch","../RequiredFiles/videos/NeinDaumenhoch_m.mp4","Ist der Ball in der blauen Box?","Blue","Green","F","affirmation","mismatch","gesture","no","ThumbUp","male","speech-gesture","1280","720","firefox","61.73","Windows 10","22","female","right","Sat Oct 12 2024 13:05:51 GMT+0200 (Mitteleuropäische Sommerzeit)","3","77","1","1728732311070"
"1016","j","SpeechGestureMatch","../RequiredFiles/videos/NeinDaumenhoch_f_no_sound.mp4","Ist der Ball in der blauen Box?","Green","Blue","J","affirmation","na","gesture","na","ThumbUp","female","speech-gesture","1280","720","firefox","61.73","Windows 10","22","female","right","Sat Oct 12 2024 13:05:58 GMT+0200 (Mitteleuropäische Sommerzeit)","3","78","0","1728732311070"
"1145","j","SpeechGestureMatch","../RequiredFiles/videos/NeinDaumenrunter_f.mp4","Ist der Ball in der grünen Box?","Blue","Green","F","negation","match","gesture","no","ThumbDown","female","speech-gesture","1280","720","firefox","61.73","Windows 10","22","female","right","Sat Oct 12 2024 13:06:04 GMT+0200 (Mitteleuropäische Sommerzeit)","3","79","1","1728732311070"
