"rt","response","stim","video","question","box_colour_left","box_colour_right","correct_key","polarity","matching","modality","verbal","gesture","speaker","order","width","height","browser","vsync_rate","os","age","gender","handedness","date","blockNum","trialNum","error","vpNum"
"19234","j","SpeechGestureMatch","../RequiredFiles/videos/NeinKopfNein_m.mp4","Ist der Ball in der blauen Box?","Blue","Green","J","negation","match","speech","no","HeadShake","male","speech-gesture","1920","1080","firefox","61.92","Windows 10","21","male","right","Wed Oct 23 2024 17:44:57 GMT+0200 (Central European Summer Time)","1","1","0","1729701120447"
"1557","f","SpeechGestureMatch","../RequiredFiles/videos/NeinKopfNein_m.mp4","Ist der Ball in der blauen Box?","Green","Blue","F","negation","match","speech","no","HeadShake","male","speech-gesture","1920","1080","firefox","61.92","Windows 10","21","male","right","Wed Oct 23 2024 17:45:05 GMT+0200 (Central European Summer Time)","1","2","0","1729701120447"
"1052","j","SpeechGestureMatch","../RequiredFiles/videos/NeinKopfJa_m.mp4","Ist der Ball in der grünen Box?","Green","Blue","J","negation","mismatch","speech","no","HeadNod","male","speech-gesture","1920","1080","firefox","61.92","Windows 10","21","male","right","Wed Oct 23 2024 17:45:11 GMT+0200 (Central European Summer Time)","1","3","0","1729701120447"
"1193","f","SpeechGestureMatch","../RequiredFiles/videos/NeinKopfJa_m.mp4","Ist der Ball in der grünen Box?","Blue","Green","F","negation","mismatch","speech","no","HeadNod","male","speech-gesture","1920","1080","firefox","61.92","Windows 10","21","male","right","Wed Oct 23 2024 17:45:18 GMT+0200 (Central European Summer Time)","1","4","0","1729701120447"
"958","j","SpeechGestureMatch","../RequiredFiles/videos/NeinKopfJa_m.mp4","Ist der Ball in der blauen Box?","Blue","Green","J","negation","mismatch","speech","no","HeadNod","male","speech-gesture","1920","1080","firefox","61.92","Windows 10","21","male","right","Wed Oct 23 2024 17:45:24 GMT+0200 (Central European Summer Time)","1","5","0","1729701120447"
"1244","j","SpeechGestureMatch","../RequiredFiles/videos/NeinKopfJa_f.mp4","Ist der Ball in der grünen Box?","Green","Blue","J","negation","mismatch","speech","no","HeadNod","female","speech-gesture","1920","1080","firefox","61.92","Windows 10","21","male","right","Wed Oct 23 2024 17:45:31 GMT+0200 (Central European Summer Time)","1","6","0","1729701120447"
"1203","j","SpeechGestureMatch","../RequiredFiles/videos/JaKopfJa_m_no_gesture.mp4","Ist der Ball in der grünen Box?","Blue","Green","J","affirmation","na","speech","yes","na","male","speech-gesture","1920","1080","firefox","61.92","Windows 10","21","male","right","Wed Oct 23 2024 17:45:38 GMT+0200 (Central European Summer Time)","1","7","0","1729701120447"
"873","j","SpeechGestureMatch","../RequiredFiles/videos/JaKopfNein_f.mp4","Ist der Ball in der blauen Box?","Green","Blue","J","affirmation","mismatch","speech","yes","HeadShake","female","speech-gesture","1920","1080","firefox","61.92","Windows 10","21","male","right","Wed Oct 23 2024 17:45:44 GMT+0200 (Central European Summer Time)","1","8","0","1729701120447"
"833","f","SpeechGestureMatch","../RequiredFiles/videos/NeinKopfJa_m.mp4","Ist der Ball in der blauen Box?","Green","Blue","F","negation","mismatch","speech","no","HeadNod","male","speech-gesture","1920","1080","firefox","61.92","Windows 10","21","male","right","Wed Oct 23 2024 17:45:51 GMT+0200 (Central European Summer Time)","1","9","0","1729701120447"
"31153","j","SpeechGestureMatch","../RequiredFiles/videos/JaKopfNein_f.mp4","Ist der Ball in der grünen Box?","Blue","Green","J","affirmation","mismatch","speech","yes","HeadShake","female","speech-gesture","1920","1080","firefox","61.92","Windows 10","21","male","right","Wed Oct 23 2024 17:46:27 GMT+0200 (Central European Summer Time)","1","10","0","1729701120447"
"1841","f","SpeechGestureMatch","../RequiredFiles/videos/NeinKopfNein_f.mp4","Ist der Ball in der blauen Box?","Green","Blue","F","negation","match","speech","no","HeadShake","female","speech-gesture","1920","1080","firefox","61.92","Windows 10","21","male","right","Wed Oct 23 2024 17:46:35 GMT+0200 (Central European Summer Time)","1","11","0","1729701120447"
"1443","j","SpeechGestureMatch","../RequiredFiles/videos/JaKopfNein_m_no_gesture.mp4","Ist der Ball in der blauen Box?","Green","Blue","J","affirmation","na","speech","yes","na","male","speech-gesture","1920","1080","firefox","61.92","Windows 10","21","male","right","Wed Oct 23 2024 17:46:42 GMT+0200 (Central European Summer Time)","1","12","0","1729701120447"
"2543","j","SpeechGestureMatch","../RequiredFiles/videos/NeinKopfNein_f.mp4","Ist der Ball in der blauen Box?","Blue","Green","J","negation","match","speech","no","HeadShake","female","speech-gesture","1920","1080","firefox","61.92","Windows 10","21","male","right","Wed Oct 23 2024 17:46:50 GMT+0200 (Central European Summer Time)","1","13","0","1729701120447"
"1686","j","SpeechGestureMatch","../RequiredFiles/videos/NeinKopfNein_f.mp4","Ist der Ball in der grünen Box?","Green","Blue","J","negation","match","speech","no","HeadShake","female","speech-gesture","1920","1080","firefox","61.92","Windows 10","21","male","right","Wed Oct 23 2024 17:46:57 GMT+0200 (Central European Summer Time)","1","14","0","1729701120447"
"1119","f","SpeechGestureMatch","../RequiredFiles/videos/NeinKopfNein_f_no_gesture.mp4","Ist der Ball in der blauen Box?","Green","Blue","F","negation","na","speech","no","na","female","speech-gesture","1920","1080","firefox","61.92","Windows 10","21","male","right","Wed Oct 23 2024 17:47:04 GMT+0200 (Central European Summer Time)","1","15","0","1729701120447"
"6173","j","SpeechGestureMatch","../RequiredFiles/videos/NeinKopfJa_f_no_gesture.mp4","Ist der Ball in der grünen Box?","Green","Blue","J","negation","na","speech","no","na","female","speech-gesture","1920","1080","firefox","61.92","Windows 10","21","male","right","Wed Oct 23 2024 17:47:15 GMT+0200 (Central European Summer Time)","1","16","0","1729701120447"
"1418","f","SpeechGestureMatch","../RequiredFiles/videos/JaKopfJa_m.mp4","Ist der Ball in der blauen Box?","Blue","Green","F","affirmation","match","speech","yes","HeadNod","male","speech-gesture","1920","1080","firefox","61.92","Windows 10","21","male","right","Wed Oct 23 2024 17:47:22 GMT+0200 (Central European Summer Time)","1","17","0","1729701120447"
"1316","j","SpeechGestureMatch","../RequiredFiles/videos/NeinKopfNein_f_no_gesture.mp4","Ist der Ball in der blauen Box?","Blue","Green","J","negation","na","speech","no","na","female","speech-gesture","1920","1080","firefox","61.92","Windows 10","21","male","right","Wed Oct 23 2024 17:47:29 GMT+0200 (Central European Summer Time)","1","18","0","1729701120447"
"7218","f","SpeechGestureMatch","../RequiredFiles/videos/JaKopfNein_f_no_gesture.mp4","Ist der Ball in der grünen Box?","Green","Blue","F","affirmation","na","speech","yes","na","female","speech-gesture","1920","1080","firefox","61.92","Windows 10","21","male","right","Wed Oct 23 2024 17:47:42 GMT+0200 (Central European Summer Time)","1","19","0","1729701120447"
"1427","f","SpeechGestureMatch","../RequiredFiles/videos/JaKopfJa_f.mp4","Ist der Ball in der blauen Box?","Blue","Green","F","affirmation","match","speech","yes","HeadNod","female","speech-gesture","1920","1080","firefox","61.92","Windows 10","21","male","right","Wed Oct 23 2024 17:47:49 GMT+0200 (Central European Summer Time)","1","20","0","1729701120447"
"4158","f","SpeechGestureMatch","../RequiredFiles/videos/NeinKopfJa_m_no_gesture.mp4","Ist der Ball in der grünen Box?","Blue","Green","F","negation","na","speech","no","na","male","speech-gesture","1920","1080","firefox","61.92","Windows 10","21","male","right","Wed Oct 23 2024 17:47:59 GMT+0200 (Central European Summer Time)","1","21","0","1729701120447"
"1595","j","SpeechGestureMatch","../RequiredFiles/videos/NeinKopfJa_m_no_gesture.mp4","Ist der Ball in der grünen Box?","Green","Blue","J","negation","na","speech","no","na","male","speech-gesture","1920","1080","firefox","61.92","Windows 10","21","male","right","Wed Oct 23 2024 17:48:06 GMT+0200 (Central European Summer Time)","1","22","0","1729701120447"
"1685","f","SpeechGestureMatch","../RequiredFiles/videos/NeinKopfJa_f.mp4","Ist der Ball in der grünen Box?","Blue","Green","F","negation","mismatch","speech","no","HeadNod","female","speech-gesture","1920","1080","firefox","61.92","Windows 10","21","male","right","Wed Oct 23 2024 17:48:13 GMT+0200 (Central European Summer Time)","1","23","0","1729701120447"
"1380","f","SpeechGestureMatch","../RequiredFiles/videos/JaKopfJa_m.mp4","Ist der Ball in der grünen Box?","Green","Blue","F","affirmation","match","speech","yes","HeadNod","male","speech-gesture","1920","1080","firefox","61.92","Windows 10","21","male","right","Wed Oct 23 2024 17:48:20 GMT+0200 (Central European Summer Time)","1","24","0","1729701120447"
"1043","f","SpeechGestureMatch","../RequiredFiles/videos/JaKopfNein_f.mp4","Ist der Ball in der blauen Box?","Blue","Green","F","affirmation","mismatch","speech","yes","HeadShake","female","speech-gesture","1920","1080","firefox","61.92","Windows 10","21","male","right","Wed Oct 23 2024 17:48:26 GMT+0200 (Central European Summer Time)","1","25","0","1729701120447"
"1020","j","SpeechGestureMatch","../RequiredFiles/videos/NeinKopfNein_f.mp4","Ist der Ball in der grünen Box?","Green","Blue","J","negation","match","speech","no","HeadShake","female","speech-gesture","1920","1080","firefox","61.92","Windows 10","21","male","right","Wed Oct 23 2024 17:48:33 GMT+0200 (Central European Summer Time)","1","26","0","1729701120447"
"1310","f","SpeechGestureMatch","../RequiredFiles/videos/NeinKopfNein_m.mp4","Ist der Ball in der blauen Box?","Green","Blue","F","negation","match","speech","no","HeadShake","male","speech-gesture","1920","1080","firefox","61.92","Windows 10","21","male","right","Wed Oct 23 2024 17:48:40 GMT+0200 (Central European Summer Time)","1","27","0","1729701120447"
"1067","j","SpeechGestureMatch","../RequiredFiles/videos/NeinKopfNein_m_no_gesture.mp4","Ist der Ball in der blauen Box?","Blue","Green","J","negation","na","speech","no","na","male","speech-gesture","1920","1080","firefox","61.92","Windows 10","21","male","right","Wed Oct 23 2024 17:48:46 GMT+0200 (Central European Summer Time)","1","28","0","1729701120447"
"1140","j","SpeechGestureMatch","../RequiredFiles/videos/NeinKopfNein_f_no_gesture.mp4","Ist der Ball in der grünen Box?","Green","Blue","J","negation","na","speech","no","na","female","speech-gesture","1920","1080","firefox","61.92","Windows 10","21","male","right","Wed Oct 23 2024 17:48:53 GMT+0200 (Central European Summer Time)","1","29","0","1729701120447"
"1128","f","SpeechGestureMatch","../RequiredFiles/videos/NeinKopfJa_f.mp4","Ist der Ball in der blauen Box?","Green","Blue","F","negation","mismatch","speech","no","HeadNod","female","speech-gesture","1920","1080","firefox","61.92","Windows 10","21","male","right","Wed Oct 23 2024 17:49:00 GMT+0200 (Central European Summer Time)","1","30","0","1729701120447"
"1423","f","SpeechGestureMatch","../RequiredFiles/videos/JaKopfNein_m_no_gesture.mp4","Ist der Ball in der blauen Box?","Blue","Green","F","affirmation","na","speech","yes","na","male","speech-gesture","1920","1080","firefox","61.92","Windows 10","21","male","right","Wed Oct 23 2024 17:49:07 GMT+0200 (Central European Summer Time)","1","31","0","1729701120447"
"1163","f","SpeechGestureMatch","../RequiredFiles/videos/JaKopfJa_f_no_gesture.mp4","Ist der Ball in der grünen Box?","Green","Blue","F","affirmation","na","speech","yes","na","female","speech-gesture","1920","1080","firefox","61.92","Windows 10","21","male","right","Wed Oct 23 2024 17:49:13 GMT+0200 (Central European Summer Time)","1","32","0","1729701120447"
"2526","j","SpeechGestureMatch","../RequiredFiles/videos/JaKopfJa_f.mp4","Ist der Ball in der blauen Box?","Green","Blue","J","affirmation","match","speech","yes","HeadNod","female","speech-gesture","1920","1080","firefox","61.92","Windows 10","21","male","right","Wed Oct 23 2024 17:49:21 GMT+0200 (Central European Summer Time)","1","33","0","1729701120447"
"982","f","SpeechGestureMatch","../RequiredFiles/videos/NeinKopfNein_m.mp4","Ist der Ball in der grünen Box?","Blue","Green","F","negation","match","speech","no","HeadShake","male","speech-gesture","1920","1080","firefox","61.92","Windows 10","21","male","right","Wed Oct 23 2024 17:49:28 GMT+0200 (Central European Summer Time)","1","34","0","1729701120447"
"1001","f","SpeechGestureMatch","../RequiredFiles/videos/JaKopfNein_m.mp4","Ist der Ball in der grünen Box?","Green","Blue","F","affirmation","mismatch","speech","yes","HeadShake","male","speech-gesture","1920","1080","firefox","61.92","Windows 10","21","male","right","Wed Oct 23 2024 17:49:34 GMT+0200 (Central European Summer Time)","1","35","0","1729701120447"
"2490","j","SpeechGestureMatch","../RequiredFiles/videos/JaKopfNein_m.mp4","Ist der Ball in der grünen Box?","Blue","Green","J","affirmation","mismatch","speech","yes","HeadShake","male","speech-gesture","1920","1080","firefox","61.92","Windows 10","21","male","right","Wed Oct 23 2024 17:49:42 GMT+0200 (Central European Summer Time)","1","36","0","1729701120447"
"1240","j","SpeechGestureMatch","../RequiredFiles/videos/JaKopfJa_m.mp4","Ist der Ball in der blauen Box?","Green","Blue","J","affirmation","match","speech","yes","HeadNod","male","speech-gesture","1920","1080","firefox","61.92","Windows 10","21","male","right","Wed Oct 23 2024 17:49:49 GMT+0200 (Central European Summer Time)","1","37","0","1729701120447"
"754","j","SpeechGestureMatch","../RequiredFiles/videos/JaKopfJa_m.mp4","Ist der Ball in der blauen Box?","Green","Blue","J","affirmation","match","speech","yes","HeadNod","male","speech-gesture","1920","1080","firefox","61.92","Windows 10","21","male","right","Wed Oct 23 2024 17:49:56 GMT+0200 (Central European Summer Time)","1","38","0","1729701120447"
"1029","j","SpeechGestureMatch","../RequiredFiles/videos/NeinKopfNein_m.mp4","Ist der Ball in der grünen Box?","Green","Blue","J","negation","match","speech","no","HeadShake","male","speech-gesture","1920","1080","firefox","61.92","Windows 10","21","male","right","Wed Oct 23 2024 17:50:02 GMT+0200 (Central European Summer Time)","1","39","0","1729701120447"
"1148","f","SpeechGestureMatch","../RequiredFiles/videos/JaKopfNein_m.mp4","Ist der Ball in der grünen Box?","Green","Blue","F","affirmation","mismatch","speech","yes","HeadShake","male","speech-gesture","1920","1080","firefox","61.92","Windows 10","21","male","right","Wed Oct 23 2024 17:50:09 GMT+0200 (Central European Summer Time)","1","40","0","1729701120447"
"1300","j","SpeechGestureMatch","../RequiredFiles/videos/NeinKopfJa_f_no_gesture.mp4","Ist der Ball in der blauen Box?","Blue","Green","J","negation","na","speech","no","na","female","speech-gesture","1920","1080","firefox","61.92","Windows 10","21","male","right","Wed Oct 23 2024 17:50:16 GMT+0200 (Central European Summer Time)","1","41","0","1729701120447"
"1557","f","SpeechGestureMatch","../RequiredFiles/videos/NeinKopfJa_f_no_gesture.mp4","Ist der Ball in der grünen Box?","Blue","Green","F","negation","na","speech","no","na","female","speech-gesture","1920","1080","firefox","61.92","Windows 10","21","male","right","Wed Oct 23 2024 17:50:23 GMT+0200 (Central European Summer Time)","1","42","0","1729701120447"
"1229","j","SpeechGestureMatch","../RequiredFiles/videos/NeinKopfJa_m.mp4","Ist der Ball in der blauen Box?","Blue","Green","J","negation","mismatch","speech","no","HeadNod","male","speech-gesture","1920","1080","firefox","61.92","Windows 10","21","male","right","Wed Oct 23 2024 17:50:29 GMT+0200 (Central European Summer Time)","1","43","0","1729701120447"
"906","f","SpeechGestureMatch","../RequiredFiles/videos/JaKopfJa_m_no_gesture.mp4","Ist der Ball in der grünen Box?","Green","Blue","F","affirmation","na","speech","yes","na","male","speech-gesture","1920","1080","firefox","61.92","Windows 10","21","male","right","Wed Oct 23 2024 17:50:36 GMT+0200 (Central European Summer Time)","1","44","0","1729701120447"
"963","f","SpeechGestureMatch","../RequiredFiles/videos/NeinKopfNein_f_no_gesture.mp4","Ist der Ball in der grünen Box?","Blue","Green","F","negation","na","speech","no","na","female","speech-gesture","1920","1080","firefox","61.92","Windows 10","21","male","right","Wed Oct 23 2024 17:50:42 GMT+0200 (Central European Summer Time)","1","45","0","1729701120447"
"824","j","SpeechGestureMatch","../RequiredFiles/videos/JaKopfNein_f.mp4","Ist der Ball in der grünen Box?","Blue","Green","J","affirmation","mismatch","speech","yes","HeadShake","female","speech-gesture","1920","1080","firefox","61.92","Windows 10","21","male","right","Wed Oct 23 2024 17:50:49 GMT+0200 (Central European Summer Time)","1","46","0","1729701120447"
"1533","j","SpeechGestureMatch","../RequiredFiles/videos/NeinKopfJa_m.mp4","Ist der Ball in der grünen Box?","Green","Blue","J","negation","mismatch","speech","no","HeadNod","male","speech-gesture","1920","1080","firefox","61.92","Windows 10","21","male","right","Wed Oct 23 2024 17:50:56 GMT+0200 (Central European Summer Time)","1","47","0","1729701120447"
"1050","f","SpeechGestureMatch","../RequiredFiles/videos/JaKopfNein_f.mp4","Ist der Ball in der blauen Box?","Blue","Green","F","affirmation","mismatch","speech","yes","HeadShake","female","speech-gesture","1920","1080","firefox","61.92","Windows 10","21","male","right","Wed Oct 23 2024 17:51:02 GMT+0200 (Central European Summer Time)","1","48","0","1729701120447"
"1417","j","SpeechGestureMatch","../RequiredFiles/videos/JaKopfJa_f_no_gesture.mp4","Ist der Ball in der grünen Box?","Blue","Green","J","affirmation","na","speech","yes","na","female","speech-gesture","1920","1080","firefox","61.92","Windows 10","21","male","right","Wed Oct 23 2024 17:51:09 GMT+0200 (Central European Summer Time)","1","49","0","1729701120447"
"991","j","SpeechGestureMatch","../RequiredFiles/videos/NeinKopfJa_f.mp4","Ist der Ball in der blauen Box?","Blue","Green","J","negation","mismatch","speech","no","HeadNod","female","speech-gesture","1920","1080","firefox","61.92","Windows 10","21","male","right","Wed Oct 23 2024 17:51:16 GMT+0200 (Central European Summer Time)","1","50","0","1729701120447"
"967","f","SpeechGestureMatch","../RequiredFiles/videos/NeinKopfNein_f.mp4","Ist der Ball in der grünen Box?","Blue","Green","F","negation","match","speech","no","HeadShake","female","speech-gesture","1920","1080","firefox","61.92","Windows 10","21","male","right","Wed Oct 23 2024 17:51:22 GMT+0200 (Central European Summer Time)","1","51","0","1729701120447"
"878","f","SpeechGestureMatch","../RequiredFiles/videos/NeinKopfNein_f.mp4","Ist der Ball in der blauen Box?","Green","Blue","F","negation","match","speech","no","HeadShake","female","speech-gesture","1920","1080","firefox","61.92","Windows 10","21","male","right","Wed Oct 23 2024 17:51:29 GMT+0200 (Central European Summer Time)","1","52","0","1729701120447"
"660","j","SpeechGestureMatch","../RequiredFiles/videos/JaKopfJa_f.mp4","Ist der Ball in der blauen Box?","Green","Blue","J","affirmation","match","speech","yes","HeadNod","female","speech-gesture","1920","1080","firefox","61.92","Windows 10","21","male","right","Wed Oct 23 2024 17:51:35 GMT+0200 (Central European Summer Time)","1","53","0","1729701120447"
"892","j","SpeechGestureMatch","../RequiredFiles/videos/NeinKopfNein_m_no_gesture.mp4","Ist der Ball in der grünen Box?","Green","Blue","J","negation","na","speech","no","na","male","speech-gesture","1920","1080","firefox","61.92","Windows 10","21","male","right","Wed Oct 23 2024 17:51:41 GMT+0200 (Central European Summer Time)","1","54","0","1729701120447"
"1375","j","SpeechGestureMatch","../RequiredFiles/videos/JaKopfNein_f_no_gesture.mp4","Ist der Ball in der grünen Box?","Blue","Green","J","affirmation","na","speech","yes","na","female","speech-gesture","1920","1080","firefox","61.92","Windows 10","21","male","right","Wed Oct 23 2024 17:51:48 GMT+0200 (Central European Summer Time)","1","55","0","1729701120447"
"1006","j","SpeechGestureMatch","../RequiredFiles/videos/JaKopfNein_f_no_gesture.mp4","Ist der Ball in der blauen Box?","Green","Blue","J","affirmation","na","speech","yes","na","female","speech-gesture","1920","1080","firefox","61.92","Windows 10","21","male","right","Wed Oct 23 2024 17:51:55 GMT+0200 (Central European Summer Time)","1","56","0","1729701120447"
"886","f","SpeechGestureMatch","../RequiredFiles/videos/JaKopfNein_f.mp4","Ist der Ball in der grünen Box?","Green","Blue","F","affirmation","mismatch","speech","yes","HeadShake","female","speech-gesture","1920","1080","firefox","61.92","Windows 10","21","male","right","Wed Oct 23 2024 17:52:01 GMT+0200 (Central European Summer Time)","1","57","0","1729701120447"
"727","f","SpeechGestureMatch","../RequiredFiles/videos/JaKopfNein_f_no_gesture.mp4","Ist der Ball in der blauen Box?","Blue","Green","F","affirmation","na","speech","yes","na","female","speech-gesture","1920","1080","firefox","61.92","Windows 10","21","male","right","Wed Oct 23 2024 17:52:08 GMT+0200 (Central European Summer Time)","1","58","0","1729701120447"
"848","j","SpeechGestureMatch","../RequiredFiles/videos/JaKopfNein_m.mp4","Ist der Ball in der blauen Box?","Green","Blue","J","affirmation","mismatch","speech","yes","HeadShake","male","speech-gesture","1920","1080","firefox","61.92","Windows 10","21","male","right","Wed Oct 23 2024 17:52:14 GMT+0200 (Central European Summer Time)","1","59","0","1729701120447"
"779","j","SpeechGestureMatch","../RequiredFiles/videos/JaKopfNein_m.mp4","Ist der Ball in der blauen Box?","Green","Blue","J","affirmation","mismatch","speech","yes","HeadShake","male","speech-gesture","1920","1080","firefox","61.92","Windows 10","21","male","right","Wed Oct 23 2024 17:52:20 GMT+0200 (Central European Summer Time)","1","60","0","1729701120447"
"752","j","SpeechGestureMatch","../RequiredFiles/videos/NeinKopfJa_f.mp4","Ist der Ball in der blauen Box?","Blue","Green","J","negation","mismatch","speech","no","HeadNod","female","speech-gesture","1920","1080","firefox","61.92","Windows 10","21","male","right","Wed Oct 23 2024 17:52:27 GMT+0200 (Central European Summer Time)","1","61","0","1729701120447"
"1045","f","SpeechGestureMatch","../RequiredFiles/videos/JaKopfJa_m_no_gesture.mp4","Ist der Ball in der blauen Box?","Blue","Green","F","affirmation","na","speech","yes","na","male","speech-gesture","1920","1080","firefox","61.92","Windows 10","21","male","right","Wed Oct 23 2024 17:52:33 GMT+0200 (Central European Summer Time)","1","62","0","1729701120447"
"925","j","SpeechGestureMatch","../RequiredFiles/videos/NeinKopfJa_f.mp4","Ist der Ball in der grünen Box?","Green","Blue","J","negation","mismatch","speech","no","HeadNod","female","speech-gesture","1920","1080","firefox","61.92","Windows 10","21","male","right","Wed Oct 23 2024 17:52:40 GMT+0200 (Central European Summer Time)","1","63","0","1729701120447"
"1303","f","SpeechGestureMatch","../RequiredFiles/videos/NeinKopfJa_f.mp4","Ist der Ball in der grünen Box?","Blue","Green","F","negation","mismatch","speech","no","HeadNod","female","speech-gesture","1920","1080","firefox","61.92","Windows 10","21","male","right","Wed Oct 23 2024 17:52:46 GMT+0200 (Central European Summer Time)","1","64","0","1729701120447"
"900","j","SpeechGestureMatch","../RequiredFiles/videos/NeinKopfNein_m.mp4","Ist der Ball in der blauen Box?","Blue","Green","J","negation","match","speech","no","HeadShake","male","speech-gesture","1920","1080","firefox","61.92","Windows 10","21","male","right","Wed Oct 23 2024 17:52:53 GMT+0200 (Central European Summer Time)","1","65","0","1729701120447"
"1157","f","SpeechGestureMatch","../RequiredFiles/videos/NeinKopfNein_m_no_gesture.mp4","Ist der Ball in der blauen Box?","Green","Blue","F","negation","na","speech","no","na","male","speech-gesture","1920","1080","firefox","61.92","Windows 10","21","male","right","Wed Oct 23 2024 17:53:00 GMT+0200 (Central European Summer Time)","1","66","0","1729701120447"
"1491","j","SpeechGestureMatch","../RequiredFiles/videos/JaKopfNein_f.mp4","Ist der Ball in der blauen Box?","Green","Blue","J","affirmation","mismatch","speech","yes","HeadShake","female","speech-gesture","1920","1080","firefox","61.92","Windows 10","21","male","right","Wed Oct 23 2024 17:53:07 GMT+0200 (Central European Summer Time)","1","67","0","1729701120447"
"765","f","SpeechGestureMatch","../RequiredFiles/videos/NeinKopfNein_m_no_gesture.mp4","Ist der Ball in der grünen Box?","Blue","Green","F","negation","na","speech","no","na","male","speech-gesture","1920","1080","firefox","61.92","Windows 10","21","male","right","Wed Oct 23 2024 17:53:13 GMT+0200 (Central European Summer Time)","1","68","0","1729701120447"
"963","j","SpeechGestureMatch","../RequiredFiles/videos/NeinKopfNein_f.mp4","Ist der Ball in der blauen Box?","Blue","Green","J","negation","match","speech","no","HeadShake","female","speech-gesture","1920","1080","firefox","61.92","Windows 10","21","male","right","Wed Oct 23 2024 17:53:19 GMT+0200 (Central European Summer Time)","1","69","0","1729701120447"
"1128","f","SpeechGestureMatch","../RequiredFiles/videos/JaKopfNein_m.mp4","Ist der Ball in der blauen Box?","Blue","Green","F","affirmation","mismatch","speech","yes","HeadShake","male","speech-gesture","1920","1080","firefox","61.92","Windows 10","21","male","right","Wed Oct 23 2024 17:53:26 GMT+0200 (Central European Summer Time)","1","70","0","1729701120447"
"807","j","SpeechGestureMatch","../RequiredFiles/videos/JaKopfJa_m.mp4","Ist der Ball in der grünen Box?","Blue","Green","J","affirmation","match","speech","yes","HeadNod","male","speech-gesture","1920","1080","firefox","61.92","Windows 10","21","male","right","Wed Oct 23 2024 17:53:32 GMT+0200 (Central European Summer Time)","1","71","0","1729701120447"
"906","f","SpeechGestureMatch","../RequiredFiles/videos/NeinKopfJa_f_no_gesture.mp4","Ist der Ball in der blauen Box?","Green","Blue","F","negation","na","speech","no","na","female","speech-gesture","1920","1080","firefox","61.92","Windows 10","21","male","right","Wed Oct 23 2024 17:53:39 GMT+0200 (Central European Summer Time)","1","72","0","1729701120447"
"737","f","SpeechGestureMatch","../RequiredFiles/videos/NeinKopfJa_f.mp4","Ist der Ball in der blauen Box?","Green","Blue","F","negation","mismatch","speech","no","HeadNod","female","speech-gesture","1920","1080","firefox","61.92","Windows 10","21","male","right","Wed Oct 23 2024 17:53:45 GMT+0200 (Central European Summer Time)","1","73","0","1729701120447"
"773","f","SpeechGestureMatch","../RequiredFiles/videos/NeinKopfJa_m.mp4","Ist der Ball in der grünen Box?","Blue","Green","F","negation","mismatch","speech","no","HeadNod","male","speech-gesture","1920","1080","firefox","61.92","Windows 10","21","male","right","Wed Oct 23 2024 17:53:51 GMT+0200 (Central European Summer Time)","1","74","0","1729701120447"
"918","f","SpeechGestureMatch","../RequiredFiles/videos/JaKopfJa_f_no_gesture.mp4","Ist der Ball in der blauen Box?","Green","Blue","J","affirmation","na","speech","yes","na","female","speech-gesture","1920","1080","firefox","61.92","Windows 10","21","male","right","Wed Oct 23 2024 17:53:58 GMT+0200 (Central European Summer Time)","1","75","1","1729701120447"
"1034","f","SpeechGestureMatch","../RequiredFiles/videos/JaKopfNein_m.mp4","Ist der Ball in der blauen Box?","Blue","Green","F","affirmation","mismatch","speech","yes","HeadShake","male","speech-gesture","1920","1080","firefox","61.92","Windows 10","21","male","right","Wed Oct 23 2024 17:54:04 GMT+0200 (Central European Summer Time)","1","76","0","1729701120447"
"1625","f","SpeechGestureMatch","../RequiredFiles/videos/NeinKopfNein_f.mp4","Ist der Ball in der grünen Box?","Blue","Green","F","negation","match","speech","no","HeadShake","female","speech-gesture","1920","1080","firefox","61.92","Windows 10","21","male","right","Wed Oct 23 2024 17:54:12 GMT+0200 (Central European Summer Time)","1","77","0","1729701120447"
"983","j","SpeechGestureMatch","../RequiredFiles/videos/JaKopfJa_m.mp4","Ist der Ball in der grünen Box?","Blue","Green","J","affirmation","match","speech","yes","HeadNod","male","speech-gesture","1920","1080","firefox","61.92","Windows 10","21","male","right","Wed Oct 23 2024 17:54:18 GMT+0200 (Central European Summer Time)","1","78","0","1729701120447"
"877","f","SpeechGestureMatch","../RequiredFiles/videos/JaKopfJa_m.mp4","Ist der Ball in der blauen Box?","Blue","Green","F","affirmation","match","speech","yes","HeadNod","male","speech-gesture","1920","1080","firefox","61.92","Windows 10","21","male","right","Wed Oct 23 2024 17:54:25 GMT+0200 (Central European Summer Time)","1","79","0","1729701120447"
"853","f","SpeechGestureMatch","../RequiredFiles/videos/JaKopfJa_m.mp4","Ist der Ball in der grünen Box?","Green","Blue","F","affirmation","match","speech","yes","HeadNod","male","speech-gesture","1920","1080","firefox","61.92","Windows 10","21","male","right","Wed Oct 23 2024 17:54:31 GMT+0200 (Central European Summer Time)","1","80","0","1729701120447"
"663","f","SpeechGestureMatch","../RequiredFiles/videos/NeinKopfJa_m_no_gesture.mp4","Ist der Ball in der blauen Box?","Blue","Green","J","negation","na","speech","no","na","male","speech-gesture","1920","1080","firefox","61.92","Windows 10","21","male","right","Wed Oct 23 2024 17:54:37 GMT+0200 (Central European Summer Time)","1","81","1","1729701120447"
"1548","f","SpeechGestureMatch","../RequiredFiles/videos/NeinKopfJa_m_no_gesture.mp4","Ist der Ball in der blauen Box?","Green","Blue","F","negation","na","speech","no","na","male","speech-gesture","1920","1080","firefox","61.92","Windows 10","21","male","right","Wed Oct 23 2024 17:54:44 GMT+0200 (Central European Summer Time)","1","82","0","1729701120447"
"958","f","SpeechGestureMatch","../RequiredFiles/videos/JaKopfJa_f.mp4","Ist der Ball in der grünen Box?","Green","Blue","F","affirmation","match","speech","yes","HeadNod","female","speech-gesture","1920","1080","firefox","61.92","Windows 10","21","male","right","Wed Oct 23 2024 17:54:51 GMT+0200 (Central European Summer Time)","1","83","0","1729701120447"
"860","f","SpeechGestureMatch","../RequiredFiles/videos/NeinKopfNein_m.mp4","Ist der Ball in der grünen Box?","Blue","Green","F","negation","match","speech","no","HeadShake","male","speech-gesture","1920","1080","firefox","61.92","Windows 10","21","male","right","Wed Oct 23 2024 17:54:57 GMT+0200 (Central European Summer Time)","1","84","0","1729701120447"
"920","j","SpeechGestureMatch","../RequiredFiles/videos/JaKopfNein_m.mp4","Ist der Ball in der grünen Box?","Blue","Green","J","affirmation","mismatch","speech","yes","HeadShake","male","speech-gesture","1920","1080","firefox","61.92","Windows 10","21","male","right","Wed Oct 23 2024 17:55:04 GMT+0200 (Central European Summer Time)","1","85","0","1729701120447"
"842","j","SpeechGestureMatch","../RequiredFiles/videos/JaKopfJa_f.mp4","Ist der Ball in der grünen Box?","Blue","Green","J","affirmation","match","speech","yes","HeadNod","female","speech-gesture","1920","1080","firefox","61.92","Windows 10","21","male","right","Wed Oct 23 2024 17:55:10 GMT+0200 (Central European Summer Time)","1","86","0","1729701120447"
"892","f","SpeechGestureMatch","../RequiredFiles/videos/JaKopfJa_f.mp4","Ist der Ball in der blauen Box?","Blue","Green","F","affirmation","match","speech","yes","HeadNod","female","speech-gesture","1920","1080","firefox","61.92","Windows 10","21","male","right","Wed Oct 23 2024 17:55:16 GMT+0200 (Central European Summer Time)","1","87","0","1729701120447"
"1007","j","SpeechGestureMatch","../RequiredFiles/videos/JaKopfNein_m_no_gesture.mp4","Ist der Ball in der grünen Box?","Blue","Green","J","affirmation","na","speech","yes","na","male","speech-gesture","1920","1080","firefox","61.92","Windows 10","21","male","right","Wed Oct 23 2024 17:55:23 GMT+0200 (Central European Summer Time)","1","88","0","1729701120447"
"875","j","SpeechGestureMatch","../RequiredFiles/videos/JaKopfJa_f.mp4","Ist der Ball in der grünen Box?","Blue","Green","J","affirmation","match","speech","yes","HeadNod","female","speech-gesture","1920","1080","firefox","61.92","Windows 10","21","male","right","Wed Oct 23 2024 17:55:29 GMT+0200 (Central European Summer Time)","1","89","0","1729701120447"
"841","f","SpeechGestureMatch","../RequiredFiles/videos/JaKopfJa_f.mp4","Ist der Ball in der grünen Box?","Green","Blue","F","affirmation","match","speech","yes","HeadNod","female","speech-gesture","1920","1080","firefox","61.92","Windows 10","21","male","right","Wed Oct 23 2024 17:55:36 GMT+0200 (Central European Summer Time)","1","90","0","1729701120447"
"964","f","SpeechGestureMatch","../RequiredFiles/videos/NeinKopfJa_m.mp4","Ist der Ball in der blauen Box?","Green","Blue","F","negation","mismatch","speech","no","HeadNod","male","speech-gesture","1920","1080","firefox","61.92","Windows 10","21","male","right","Wed Oct 23 2024 17:55:42 GMT+0200 (Central European Summer Time)","1","91","0","1729701120447"
"958","f","SpeechGestureMatch","../RequiredFiles/videos/JaKopfNein_m_no_gesture.mp4","Ist der Ball in der grünen Box?","Green","Blue","F","affirmation","na","speech","yes","na","male","speech-gesture","1920","1080","firefox","61.92","Windows 10","21","male","right","Wed Oct 23 2024 17:55:49 GMT+0200 (Central European Summer Time)","1","92","0","1729701120447"
"919","f","SpeechGestureMatch","../RequiredFiles/videos/JaKopfNein_f.mp4","Ist der Ball in der grünen Box?","Green","Blue","F","affirmation","mismatch","speech","yes","HeadShake","female","speech-gesture","1920","1080","firefox","61.92","Windows 10","21","male","right","Wed Oct 23 2024 17:55:55 GMT+0200 (Central European Summer Time)","1","93","0","1729701120447"
"965","j","SpeechGestureMatch","../RequiredFiles/videos/NeinKopfNein_m.mp4","Ist der Ball in der grünen Box?","Green","Blue","J","negation","match","speech","no","HeadShake","male","speech-gesture","1920","1080","firefox","61.92","Windows 10","21","male","right","Wed Oct 23 2024 17:56:02 GMT+0200 (Central European Summer Time)","1","94","0","1729701120447"
"1225","f","SpeechGestureMatch","../RequiredFiles/videos/JaKopfJa_f_no_gesture.mp4","Ist der Ball in der blauen Box?","Blue","Green","F","affirmation","na","speech","yes","na","female","speech-gesture","1920","1080","firefox","61.92","Windows 10","21","male","right","Wed Oct 23 2024 17:56:08 GMT+0200 (Central European Summer Time)","1","95","0","1729701120447"
"731","j","SpeechGestureMatch","../RequiredFiles/videos/JaKopfJa_m_no_gesture.mp4","Ist der Ball in der blauen Box?","Green","Blue","J","affirmation","na","speech","yes","na","male","speech-gesture","1920","1080","firefox","61.92","Windows 10","21","male","right","Wed Oct 23 2024 17:56:15 GMT+0200 (Central European Summer Time)","1","96","0","1729701120447"
"1639","f","SpeechGestureMatch","../RequiredFiles/videos/JaKopfJa_f.mp4","Ist der Ball in der grünen Box?","Green","Blue","F","affirmation","match","speech","yes","HeadNod","female","speech-gesture","1920","1080","firefox","61.92","Windows 10","21","male","right","Wed Oct 23 2024 17:56:41 GMT+0200 (Central European Summer Time)","2","1","0","1729701120447"
"1034","j","SpeechGestureMatch","../RequiredFiles/videos/NeinKopfJa_f.mp4","Ist der Ball in der blauen Box?","Blue","Green","J","negation","mismatch","speech","no","HeadNod","female","speech-gesture","1920","1080","firefox","61.92","Windows 10","21","male","right","Wed Oct 23 2024 17:56:47 GMT+0200 (Central European Summer Time)","2","2","0","1729701120447"
"1094","j","SpeechGestureMatch","../RequiredFiles/videos/JaKopfJa_m.mp4","Ist der Ball in der grünen Box?","Blue","Green","J","affirmation","match","speech","yes","HeadNod","male","speech-gesture","1920","1080","firefox","61.92","Windows 10","21","male","right","Wed Oct 23 2024 17:56:54 GMT+0200 (Central European Summer Time)","2","3","0","1729701120447"
"939","f","SpeechGestureMatch","../RequiredFiles/videos/NeinKopfJa_f.mp4","Ist der Ball in der grünen Box?","Blue","Green","F","negation","mismatch","speech","no","HeadNod","female","speech-gesture","1920","1080","firefox","61.92","Windows 10","21","male","right","Wed Oct 23 2024 17:57:00 GMT+0200 (Central European Summer Time)","2","4","0","1729701120447"
"979","f","SpeechGestureMatch","../RequiredFiles/videos/NeinKopfNein_m_no_gesture.mp4","Ist der Ball in der grünen Box?","Blue","Green","F","negation","na","speech","no","na","male","speech-gesture","1920","1080","firefox","61.92","Windows 10","21","male","right","Wed Oct 23 2024 17:57:07 GMT+0200 (Central European Summer Time)","2","5","0","1729701120447"
"1255","j","SpeechGestureMatch","../RequiredFiles/videos/NeinKopfJa_m.mp4","Ist der Ball in der blauen Box?","Blue","Green","J","negation","mismatch","speech","no","HeadNod","male","speech-gesture","1920","1080","firefox","61.92","Windows 10","21","male","right","Wed Oct 23 2024 17:57:14 GMT+0200 (Central European Summer Time)","2","6","0","1729701120447"
"963","j","SpeechGestureMatch","../RequiredFiles/videos/NeinKopfJa_m.mp4","Ist der Ball in der blauen Box?","Blue","Green","J","negation","mismatch","speech","no","HeadNod","male","speech-gesture","1920","1080","firefox","61.92","Windows 10","21","male","right","Wed Oct 23 2024 17:57:20 GMT+0200 (Central European Summer Time)","2","7","0","1729701120447"
"1047","f","SpeechGestureMatch","../RequiredFiles/videos/NeinKopfJa_m_no_gesture.mp4","Ist der Ball in der grünen Box?","Blue","Green","F","negation","na","speech","no","na","male","speech-gesture","1920","1080","firefox","61.92","Windows 10","21","male","right","Wed Oct 23 2024 17:57:27 GMT+0200 (Central European Summer Time)","2","8","0","1729701120447"
"1273","j","SpeechGestureMatch","../RequiredFiles/videos/NeinKopfJa_f_no_gesture.mp4","Ist der Ball in der blauen Box?","Green","Blue","F","negation","na","speech","no","na","female","speech-gesture","1920","1080","firefox","61.92","Windows 10","21","male","right","Wed Oct 23 2024 17:57:34 GMT+0200 (Central European Summer Time)","2","9","1","1729701120447"
"1109","f","SpeechGestureMatch","../RequiredFiles/videos/JaKopfNein_m.mp4","Ist der Ball in der blauen Box?","Blue","Green","F","affirmation","mismatch","speech","yes","HeadShake","male","speech-gesture","1920","1080","firefox","61.92","Windows 10","21","male","right","Wed Oct 23 2024 17:57:40 GMT+0200 (Central European Summer Time)","2","10","0","1729701120447"
"1303","j","SpeechGestureMatch","../RequiredFiles/videos/JaKopfNein_m.mp4","Ist der Ball in der blauen Box?","Green","Blue","J","affirmation","mismatch","speech","yes","HeadShake","male","speech-gesture","1920","1080","firefox","61.92","Windows 10","21","male","right","Wed Oct 23 2024 17:57:47 GMT+0200 (Central European Summer Time)","2","11","0","1729701120447"
"808","f","SpeechGestureMatch","../RequiredFiles/videos/JaKopfNein_m.mp4","Ist der Ball in der grünen Box?","Green","Blue","F","affirmation","mismatch","speech","yes","HeadShake","male","speech-gesture","1920","1080","firefox","61.92","Windows 10","21","male","right","Wed Oct 23 2024 17:57:54 GMT+0200 (Central European Summer Time)","2","12","0","1729701120447"
"1358","f","SpeechGestureMatch","../RequiredFiles/videos/NeinKopfJa_f.mp4","Ist der Ball in der blauen Box?","Green","Blue","F","negation","mismatch","speech","no","HeadNod","female","speech-gesture","1920","1080","firefox","61.92","Windows 10","21","male","right","Wed Oct 23 2024 17:58:00 GMT+0200 (Central European Summer Time)","2","13","0","1729701120447"
"1366","f","SpeechGestureMatch","../RequiredFiles/videos/JaKopfJa_m.mp4","Ist der Ball in der blauen Box?","Blue","Green","F","affirmation","match","speech","yes","HeadNod","male","speech-gesture","1920","1080","firefox","61.92","Windows 10","21","male","right","Wed Oct 23 2024 17:58:07 GMT+0200 (Central European Summer Time)","2","14","0","1729701120447"
"2609","j","SpeechGestureMatch","../RequiredFiles/videos/JaKopfNein_m.mp4","Ist der Ball in der blauen Box?","Blue","Green","F","affirmation","mismatch","speech","yes","HeadShake","male","speech-gesture","1920","1080","firefox","61.92","Windows 10","21","male","right","Wed Oct 23 2024 17:58:15 GMT+0200 (Central European Summer Time)","2","15","1","1729701120447"
"986","f","SpeechGestureMatch","../RequiredFiles/videos/JaKopfNein_f_no_gesture.mp4","Ist der Ball in der blauen Box?","Blue","Green","F","affirmation","na","speech","yes","na","female","speech-gesture","1920","1080","firefox","61.92","Windows 10","21","male","right","Wed Oct 23 2024 17:58:22 GMT+0200 (Central European Summer Time)","2","16","0","1729701120447"
"972","f","SpeechGestureMatch","../RequiredFiles/videos/JaKopfJa_f_no_gesture.mp4","Ist der Ball in der grünen Box?","Green","Blue","F","affirmation","na","speech","yes","na","female","speech-gesture","1920","1080","firefox","61.92","Windows 10","21","male","right","Wed Oct 23 2024 17:58:28 GMT+0200 (Central European Summer Time)","2","17","0","1729701120447"
"1163","j","SpeechGestureMatch","../RequiredFiles/videos/JaKopfJa_f_no_gesture.mp4","Ist der Ball in der blauen Box?","Green","Blue","J","affirmation","na","speech","yes","na","female","speech-gesture","1920","1080","firefox","61.92","Windows 10","21","male","right","Wed Oct 23 2024 17:58:35 GMT+0200 (Central European Summer Time)","2","18","0","1729701120447"
"778","f","SpeechGestureMatch","../RequiredFiles/videos/NeinKopfJa_f.mp4","Ist der Ball in der blauen Box?","Green","Blue","F","negation","mismatch","speech","no","HeadNod","female","speech-gesture","1920","1080","firefox","61.92","Windows 10","21","male","right","Wed Oct 23 2024 17:58:42 GMT+0200 (Central European Summer Time)","2","19","0","1729701120447"
"808","j","SpeechGestureMatch","../RequiredFiles/videos/NeinKopfJa_f_no_gesture.mp4","Ist der Ball in der blauen Box?","Blue","Green","J","negation","na","speech","no","na","female","speech-gesture","1920","1080","firefox","61.92","Windows 10","21","male","right","Wed Oct 23 2024 17:58:48 GMT+0200 (Central European Summer Time)","2","20","0","1729701120447"
"1061","j","SpeechGestureMatch","../RequiredFiles/videos/NeinKopfJa_f.mp4","Ist der Ball in der grünen Box?","Green","Blue","J","negation","mismatch","speech","no","HeadNod","female","speech-gesture","1920","1080","firefox","61.92","Windows 10","21","male","right","Wed Oct 23 2024 17:58:54 GMT+0200 (Central European Summer Time)","2","21","0","1729701120447"
"755","f","SpeechGestureMatch","../RequiredFiles/videos/JaKopfNein_f.mp4","Ist der Ball in der grünen Box?","Green","Blue","F","affirmation","mismatch","speech","yes","HeadShake","female","speech-gesture","1920","1080","firefox","61.92","Windows 10","21","male","right","Wed Oct 23 2024 17:59:01 GMT+0200 (Central European Summer Time)","2","22","0","1729701120447"
"1021","j","SpeechGestureMatch","../RequiredFiles/videos/JaKopfJa_f.mp4","Ist der Ball in der blauen Box?","Green","Blue","J","affirmation","match","speech","yes","HeadNod","female","speech-gesture","1920","1080","firefox","61.92","Windows 10","21","male","right","Wed Oct 23 2024 17:59:07 GMT+0200 (Central European Summer Time)","2","23","0","1729701120447"
"846","f","SpeechGestureMatch","../RequiredFiles/videos/NeinKopfNein_m.mp4","Ist der Ball in der blauen Box?","Green","Blue","F","negation","match","speech","no","HeadShake","male","speech-gesture","1920","1080","firefox","61.92","Windows 10","21","male","right","Wed Oct 23 2024 17:59:14 GMT+0200 (Central European Summer Time)","2","24","0","1729701120447"
"954","j","SpeechGestureMatch","../RequiredFiles/videos/NeinKopfJa_m.mp4","Ist der Ball in der grünen Box?","Green","Blue","J","negation","mismatch","speech","no","HeadNod","male","speech-gesture","1920","1080","firefox","61.92","Windows 10","21","male","right","Wed Oct 23 2024 17:59:20 GMT+0200 (Central European Summer Time)","2","25","0","1729701120447"
"755","j","SpeechGestureMatch","../RequiredFiles/videos/JaKopfNein_f.mp4","Ist der Ball in der blauen Box?","Green","Blue","J","affirmation","mismatch","speech","yes","HeadShake","female","speech-gesture","1920","1080","firefox","61.92","Windows 10","21","male","right","Wed Oct 23 2024 17:59:27 GMT+0200 (Central European Summer Time)","2","26","0","1729701120447"
"817","j","SpeechGestureMatch","../RequiredFiles/videos/NeinKopfJa_m.mp4","Ist der Ball in der grünen Box?","Green","Blue","J","negation","mismatch","speech","no","HeadNod","male","speech-gesture","1920","1080","firefox","61.92","Windows 10","21","male","right","Wed Oct 23 2024 17:59:33 GMT+0200 (Central European Summer Time)","2","27","0","1729701120447"
"872","j","SpeechGestureMatch","../RequiredFiles/videos/NeinKopfNein_m.mp4","Ist der Ball in der blauen Box?","Blue","Green","J","negation","match","speech","no","HeadShake","male","speech-gesture","1920","1080","firefox","61.92","Windows 10","21","male","right","Wed Oct 23 2024 17:59:39 GMT+0200 (Central European Summer Time)","2","28","0","1729701120447"
"732","f","SpeechGestureMatch","../RequiredFiles/videos/JaKopfJa_m.mp4","Ist der Ball in der blauen Box?","Blue","Green","F","affirmation","match","speech","yes","HeadNod","male","speech-gesture","1920","1080","firefox","61.92","Windows 10","21","male","right","Wed Oct 23 2024 17:59:45 GMT+0200 (Central European Summer Time)","2","29","0","1729701120447"
"1329","j","SpeechGestureMatch","../RequiredFiles/videos/JaKopfNein_m.mp4","Ist der Ball in der grünen Box?","Blue","Green","J","affirmation","mismatch","speech","yes","HeadShake","male","speech-gesture","1920","1080","firefox","61.92","Windows 10","21","male","right","Wed Oct 23 2024 17:59:52 GMT+0200 (Central European Summer Time)","2","30","0","1729701120447"
"1102","f","SpeechGestureMatch","../RequiredFiles/videos/NeinKopfNein_f.mp4","Ist der Ball in der blauen Box?","Green","Blue","F","negation","match","speech","no","HeadShake","female","speech-gesture","1920","1080","firefox","61.92","Windows 10","21","male","right","Wed Oct 23 2024 17:59:59 GMT+0200 (Central European Summer Time)","2","31","0","1729701120447"
"921","f","SpeechGestureMatch","../RequiredFiles/videos/JaKopfNein_f.mp4","Ist der Ball in der blauen Box?","Blue","Green","F","affirmation","mismatch","speech","yes","HeadShake","female","speech-gesture","1920","1080","firefox","61.92","Windows 10","21","male","right","Wed Oct 23 2024 18:00:05 GMT+0200 (Central European Summer Time)","2","32","0","1729701120447"
"906","j","SpeechGestureMatch","../RequiredFiles/videos/NeinKopfNein_f_no_gesture.mp4","Ist der Ball in der grünen Box?","Blue","Green","F","negation","na","speech","no","na","female","speech-gesture","1920","1080","firefox","61.92","Windows 10","21","male","right","Wed Oct 23 2024 18:00:12 GMT+0200 (Central European Summer Time)","2","33","1","1729701120447"
"896","j","SpeechGestureMatch","../RequiredFiles/videos/NeinKopfNein_m_no_gesture.mp4","Ist der Ball in der blauen Box?","Blue","Green","J","negation","na","speech","no","na","male","speech-gesture","1920","1080","firefox","61.92","Windows 10","21","male","right","Wed Oct 23 2024 18:00:18 GMT+0200 (Central European Summer Time)","2","34","0","1729701120447"
"976","f","SpeechGestureMatch","../RequiredFiles/videos/NeinKopfNein_m.mp4","Ist der Ball in der blauen Box?","Green","Blue","F","negation","match","speech","no","HeadShake","male","speech-gesture","1920","1080","firefox","61.92","Windows 10","21","male","right","Wed Oct 23 2024 18:00:25 GMT+0200 (Central European Summer Time)","2","35","0","1729701120447"
"795","f","SpeechGestureMatch","../RequiredFiles/videos/JaKopfJa_f_no_gesture.mp4","Ist der Ball in der blauen Box?","Blue","Green","F","affirmation","na","speech","yes","na","female","speech-gesture","1920","1080","firefox","61.92","Windows 10","21","male","right","Wed Oct 23 2024 18:00:31 GMT+0200 (Central European Summer Time)","2","36","0","1729701120447"
"1131","f","SpeechGestureMatch","../RequiredFiles/videos/NeinKopfNein_m.mp4","Ist der Ball in der grünen Box?","Blue","Green","F","negation","match","speech","no","HeadShake","male","speech-gesture","1920","1080","firefox","61.92","Windows 10","21","male","right","Wed Oct 23 2024 18:00:38 GMT+0200 (Central European Summer Time)","2","37","0","1729701120447"
"1264","f","SpeechGestureMatch","../RequiredFiles/videos/JaKopfJa_f.mp4","Ist der Ball in der grünen Box?","Green","Blue","F","affirmation","match","speech","yes","HeadNod","female","speech-gesture","1920","1080","firefox","61.92","Windows 10","21","male","right","Wed Oct 23 2024 18:00:45 GMT+0200 (Central European Summer Time)","2","38","0","1729701120447"
"872","j","SpeechGestureMatch","../RequiredFiles/videos/JaKopfNein_f_no_gesture.mp4","Ist der Ball in der grünen Box?","Blue","Green","J","affirmation","na","speech","yes","na","female","speech-gesture","1920","1080","firefox","61.92","Windows 10","21","male","right","Wed Oct 23 2024 18:00:51 GMT+0200 (Central European Summer Time)","2","39","0","1729701120447"
"811","f","SpeechGestureMatch","../RequiredFiles/videos/JaKopfJa_f.mp4","Ist der Ball in der blauen Box?","Blue","Green","F","affirmation","match","speech","yes","HeadNod","female","speech-gesture","1920","1080","firefox","61.92","Windows 10","21","male","right","Wed Oct 23 2024 18:00:57 GMT+0200 (Central European Summer Time)","2","40","0","1729701120447"
"1750","f","SpeechGestureMatch","../RequiredFiles/videos/NeinKopfJa_m.mp4","Ist der Ball in der blauen Box?","Green","Blue","F","negation","mismatch","speech","no","HeadNod","male","speech-gesture","1920","1080","firefox","61.92","Windows 10","21","male","right","Wed Oct 23 2024 18:01:05 GMT+0200 (Central European Summer Time)","2","41","0","1729701120447"
"1525","f","SpeechGestureMatch","../RequiredFiles/videos/NeinKopfNein_f.mp4","Ist der Ball in der grünen Box?","Blue","Green","F","negation","match","speech","no","HeadShake","female","speech-gesture","1920","1080","firefox","61.92","Windows 10","21","male","right","Wed Oct 23 2024 18:01:12 GMT+0200 (Central European Summer Time)","2","42","0","1729701120447"
"1077","f","SpeechGestureMatch","../RequiredFiles/videos/JaKopfJa_m.mp4","Ist der Ball in der grünen Box?","Green","Blue","F","affirmation","match","speech","yes","HeadNod","male","speech-gesture","1920","1080","firefox","61.92","Windows 10","21","male","right","Wed Oct 23 2024 18:01:18 GMT+0200 (Central European Summer Time)","2","43","0","1729701120447"
"964","j","SpeechGestureMatch","../RequiredFiles/videos/NeinKopfNein_f.mp4","Ist der Ball in der blauen Box?","Blue","Green","J","negation","match","speech","no","HeadShake","female","speech-gesture","1920","1080","firefox","61.92","Windows 10","21","male","right","Wed Oct 23 2024 18:01:25 GMT+0200 (Central European Summer Time)","2","44","0","1729701120447"
"863","j","SpeechGestureMatch","../RequiredFiles/videos/JaKopfNein_f.mp4","Ist der Ball in der blauen Box?","Green","Blue","J","affirmation","mismatch","speech","yes","HeadShake","female","speech-gesture","1920","1080","firefox","61.92","Windows 10","21","male","right","Wed Oct 23 2024 18:01:31 GMT+0200 (Central European Summer Time)","2","45","0","1729701120447"
"867","j","SpeechGestureMatch","../RequiredFiles/videos/JaKopfNein_f_no_gesture.mp4","Ist der Ball in der blauen Box?","Green","Blue","J","affirmation","na","speech","yes","na","female","speech-gesture","1920","1080","firefox","61.92","Windows 10","21","male","right","Wed Oct 23 2024 18:01:38 GMT+0200 (Central European Summer Time)","2","46","0","1729701120447"
"855","j","SpeechGestureMatch","../RequiredFiles/videos/NeinKopfNein_f_no_gesture.mp4","Ist der Ball in der grünen Box?","Green","Blue","J","negation","na","speech","no","na","female","speech-gesture","1920","1080","firefox","61.92","Windows 10","21","male","right","Wed Oct 23 2024 18:01:44 GMT+0200 (Central European Summer Time)","2","47","0","1729701120447"
"867","f","SpeechGestureMatch","../RequiredFiles/videos/JaKopfJa_f.mp4","Ist der Ball in der blauen Box?","Blue","Green","F","affirmation","match","speech","yes","HeadNod","female","speech-gesture","1920","1080","firefox","61.92","Windows 10","21","male","right","Wed Oct 23 2024 18:01:50 GMT+0200 (Central European Summer Time)","2","48","0","1729701120447"
"826","j","SpeechGestureMatch","../RequiredFiles/videos/JaKopfNein_m_no_gesture.mp4","Ist der Ball in der grünen Box?","Blue","Green","J","affirmation","na","speech","yes","na","male","speech-gesture","1920","1080","firefox","61.92","Windows 10","21","male","right","Wed Oct 23 2024 18:01:57 GMT+0200 (Central European Summer Time)","2","49","0","1729701120447"
"1072","j","SpeechGestureMatch","../RequiredFiles/videos/NeinKopfNein_m.mp4","Ist der Ball in der blauen Box?","Blue","Green","J","negation","match","speech","no","HeadShake","male","speech-gesture","1920","1080","firefox","61.92","Windows 10","21","male","right","Wed Oct 23 2024 18:02:03 GMT+0200 (Central European Summer Time)","2","50","0","1729701120447"
"1562","f","SpeechGestureMatch","../RequiredFiles/videos/JaKopfNein_m_no_gesture.mp4","Ist der Ball in der blauen Box?","Blue","Green","F","affirmation","na","speech","yes","na","male","speech-gesture","1920","1080","firefox","61.92","Windows 10","21","male","right","Wed Oct 23 2024 18:02:10 GMT+0200 (Central European Summer Time)","2","51","0","1729701120447"
"1034","j","SpeechGestureMatch","../RequiredFiles/videos/NeinKopfNein_m.mp4","Ist der Ball in der grünen Box?","Green","Blue","J","negation","match","speech","no","HeadShake","male","speech-gesture","1920","1080","firefox","61.92","Windows 10","21","male","right","Wed Oct 23 2024 18:02:17 GMT+0200 (Central European Summer Time)","2","52","0","1729701120447"
"998","f","SpeechGestureMatch","../RequiredFiles/videos/NeinKopfJa_m_no_gesture.mp4","Ist der Ball in der blauen Box?","Green","Blue","F","negation","na","speech","no","na","male","speech-gesture","1920","1080","firefox","61.92","Windows 10","21","male","right","Wed Oct 23 2024 18:02:24 GMT+0200 (Central European Summer Time)","2","53","0","1729701120447"
"756","j","SpeechGestureMatch","../RequiredFiles/videos/NeinKopfNein_f_no_gesture.mp4","Ist der Ball in der blauen Box?","Blue","Green","J","negation","na","speech","no","na","female","speech-gesture","1920","1080","firefox","61.92","Windows 10","21","male","right","Wed Oct 23 2024 18:02:30 GMT+0200 (Central European Summer Time)","2","54","0","1729701120447"
"927","j","SpeechGestureMatch","../RequiredFiles/videos/JaKopfNein_m.mp4","Ist der Ball in der blauen Box?","Green","Blue","J","affirmation","mismatch","speech","yes","HeadShake","male","speech-gesture","1920","1080","firefox","61.92","Windows 10","21","male","right","Wed Oct 23 2024 18:02:36 GMT+0200 (Central European Summer Time)","2","55","0","1729701120447"
"856","f","SpeechGestureMatch","../RequiredFiles/videos/JaKopfJa_m.mp4","Ist der Ball in der grünen Box?","Green","Blue","F","affirmation","match","speech","yes","HeadNod","male","speech-gesture","1920","1080","firefox","61.92","Windows 10","21","male","right","Wed Oct 23 2024 18:02:43 GMT+0200 (Central European Summer Time)","2","56","0","1729701120447"
"719","j","SpeechGestureMatch","../RequiredFiles/videos/NeinKopfNein_m.mp4","Ist der Ball in der grünen Box?","Blue","Green","F","negation","match","speech","no","HeadShake","male","speech-gesture","1920","1080","firefox","61.92","Windows 10","21","male","right","Wed Oct 23 2024 18:02:49 GMT+0200 (Central European Summer Time)","2","57","1","1729701120447"
"1576","f","SpeechGestureMatch","../RequiredFiles/videos/JaKopfNein_f.mp4","Ist der Ball in der blauen Box?","Blue","Green","F","affirmation","mismatch","speech","yes","HeadShake","female","speech-gesture","1920","1080","firefox","61.92","Windows 10","21","male","right","Wed Oct 23 2024 18:02:56 GMT+0200 (Central European Summer Time)","2","58","0","1729701120447"
"1028","j","SpeechGestureMatch","../RequiredFiles/videos/NeinKopfJa_m_no_gesture.mp4","Ist der Ball in der blauen Box?","Blue","Green","J","negation","na","speech","no","na","male","speech-gesture","1920","1080","firefox","61.92","Windows 10","21","male","right","Wed Oct 23 2024 18:03:03 GMT+0200 (Central European Summer Time)","2","59","0","1729701120447"
"1029","j","SpeechGestureMatch","../RequiredFiles/videos/JaKopfJa_f_no_gesture.mp4","Ist der Ball in der grünen Box?","Blue","Green","J","affirmation","na","speech","yes","na","female","speech-gesture","1920","1080","firefox","61.92","Windows 10","21","male","right","Wed Oct 23 2024 18:03:09 GMT+0200 (Central European Summer Time)","2","60","0","1729701120447"
"1662","j","SpeechGestureMatch","../RequiredFiles/videos/JaKopfJa_f.mp4","Ist der Ball in der blauen Box?","Green","Blue","J","affirmation","match","speech","yes","HeadNod","female","speech-gesture","1920","1080","firefox","61.92","Windows 10","21","male","right","Wed Oct 23 2024 18:03:16 GMT+0200 (Central European Summer Time)","2","61","0","1729701120447"
"766","j","SpeechGestureMatch","../RequiredFiles/videos/JaKopfJa_m.mp4","Ist der Ball in der blauen Box?","Green","Blue","J","affirmation","match","speech","yes","HeadNod","male","speech-gesture","1920","1080","firefox","61.92","Windows 10","21","male","right","Wed Oct 23 2024 18:03:23 GMT+0200 (Central European Summer Time)","2","62","0","1729701120447"
"739","j","SpeechGestureMatch","../RequiredFiles/videos/JaKopfJa_m.mp4","Ist der Ball in der blauen Box?","Green","Blue","J","affirmation","match","speech","yes","HeadNod","male","speech-gesture","1920","1080","firefox","61.92","Windows 10","21","male","right","Wed Oct 23 2024 18:03:29 GMT+0200 (Central European Summer Time)","2","63","0","1729701120447"
"1009","f","SpeechGestureMatch","../RequiredFiles/videos/NeinKopfJa_m.mp4","Ist der Ball in der grünen Box?","Blue","Green","F","negation","mismatch","speech","no","HeadNod","male","speech-gesture","1920","1080","firefox","61.92","Windows 10","21","male","right","Wed Oct 23 2024 18:03:35 GMT+0200 (Central European Summer Time)","2","64","0","1729701120447"
"891","j","SpeechGestureMatch","../RequiredFiles/videos/JaKopfJa_f.mp4","Ist der Ball in der grünen Box?","Blue","Green","J","affirmation","match","speech","yes","HeadNod","female","speech-gesture","1920","1080","firefox","61.92","Windows 10","21","male","right","Wed Oct 23 2024 18:03:42 GMT+0200 (Central European Summer Time)","2","65","0","1729701120447"
"992","j","SpeechGestureMatch","../RequiredFiles/videos/JaKopfNein_m.mp4","Ist der Ball in der grünen Box?","Blue","Green","J","affirmation","mismatch","speech","yes","HeadShake","male","speech-gesture","1920","1080","firefox","61.92","Windows 10","21","male","right","Wed Oct 23 2024 18:03:48 GMT+0200 (Central European Summer Time)","2","66","0","1729701120447"
"799","j","SpeechGestureMatch","../RequiredFiles/videos/JaKopfJa_m.mp4","Ist der Ball in der grünen Box?","Blue","Green","J","affirmation","match","speech","yes","HeadNod","male","speech-gesture","1920","1080","firefox","61.92","Windows 10","21","male","right","Wed Oct 23 2024 18:03:55 GMT+0200 (Central European Summer Time)","2","67","0","1729701120447"
"921","j","SpeechGestureMatch","../RequiredFiles/videos/JaKopfNein_f.mp4","Ist der Ball in der grünen Box?","Blue","Green","J","affirmation","mismatch","speech","yes","HeadShake","female","speech-gesture","1920","1080","firefox","61.92","Windows 10","21","male","right","Wed Oct 23 2024 18:04:01 GMT+0200 (Central European Summer Time)","2","68","0","1729701120447"
"866","f","SpeechGestureMatch","../RequiredFiles/videos/JaKopfJa_m_no_gesture.mp4","Ist der Ball in der grünen Box?","Green","Blue","F","affirmation","na","speech","yes","na","male","speech-gesture","1920","1080","firefox","61.92","Windows 10","21","male","right","Wed Oct 23 2024 18:04:07 GMT+0200 (Central European Summer Time)","2","69","0","1729701120447"
"792","j","SpeechGestureMatch","../RequiredFiles/videos/JaKopfNein_m_no_gesture.mp4","Ist der Ball in der blauen Box?","Green","Blue","J","affirmation","na","speech","yes","na","male","speech-gesture","1920","1080","firefox","61.92","Windows 10","21","male","right","Wed Oct 23 2024 18:04:14 GMT+0200 (Central European Summer Time)","2","70","0","1729701120447"
"782","j","SpeechGestureMatch","../RequiredFiles/videos/JaKopfJa_m_no_gesture.mp4","Ist der Ball in der blauen Box?","Green","Blue","J","affirmation","na","speech","yes","na","male","speech-gesture","1920","1080","firefox","61.92","Windows 10","21","male","right","Wed Oct 23 2024 18:04:20 GMT+0200 (Central European Summer Time)","2","71","0","1729701120447"
"1008","j","SpeechGestureMatch","../RequiredFiles/videos/NeinKopfNein_f.mp4","Ist der Ball in der grünen Box?","Green","Blue","J","negation","match","speech","no","HeadShake","female","speech-gesture","1920","1080","firefox","61.92","Windows 10","21","male","right","Wed Oct 23 2024 18:04:27 GMT+0200 (Central European Summer Time)","2","72","0","1729701120447"
"1097","j","SpeechGestureMatch","../RequiredFiles/videos/NeinKopfJa_f.mp4","Ist der Ball in der grünen Box?","Green","Blue","J","negation","mismatch","speech","no","HeadNod","female","speech-gesture","1920","1080","firefox","61.92","Windows 10","21","male","right","Wed Oct 23 2024 18:04:33 GMT+0200 (Central European Summer Time)","2","73","0","1729701120447"
"1002","j","SpeechGestureMatch","../RequiredFiles/videos/JaKopfJa_m_no_gesture.mp4","Ist der Ball in der grünen Box?","Blue","Green","J","affirmation","na","speech","yes","na","male","speech-gesture","1920","1080","firefox","61.92","Windows 10","21","male","right","Wed Oct 23 2024 18:04:40 GMT+0200 (Central European Summer Time)","2","74","0","1729701120447"
"876","f","SpeechGestureMatch","../RequiredFiles/videos/JaKopfNein_f_no_gesture.mp4","Ist der Ball in der grünen Box?","Green","Blue","F","affirmation","na","speech","yes","na","female","speech-gesture","1920","1080","firefox","61.92","Windows 10","21","male","right","Wed Oct 23 2024 18:04:46 GMT+0200 (Central European Summer Time)","2","75","0","1729701120447"
"1458","f","SpeechGestureMatch","../RequiredFiles/videos/NeinKopfNein_f.mp4","Ist der Ball in der grünen Box?","Blue","Green","F","negation","match","speech","no","HeadShake","female","speech-gesture","1920","1080","firefox","61.92","Windows 10","21","male","right","Wed Oct 23 2024 18:04:53 GMT+0200 (Central European Summer Time)","2","76","0","1729701120447"
"1982","j","SpeechGestureMatch","../RequiredFiles/videos/NeinKopfJa_m_no_gesture.mp4","Ist der Ball in der grünen Box?","Green","Blue","J","negation","na","speech","no","na","male","speech-gesture","1920","1080","firefox","61.92","Windows 10","21","male","right","Wed Oct 23 2024 18:05:01 GMT+0200 (Central European Summer Time)","2","77","0","1729701120447"
"1100","j","SpeechGestureMatch","../RequiredFiles/videos/NeinKopfJa_f.mp4","Ist der Ball in der blauen Box?","Blue","Green","J","negation","mismatch","speech","no","HeadNod","female","speech-gesture","1920","1080","firefox","61.92","Windows 10","21","male","right","Wed Oct 23 2024 18:05:07 GMT+0200 (Central European Summer Time)","2","78","0","1729701120447"
"1233","f","SpeechGestureMatch","../RequiredFiles/videos/NeinKopfJa_f.mp4","Ist der Ball in der grünen Box?","Blue","Green","F","negation","mismatch","speech","no","HeadNod","female","speech-gesture","1920","1080","firefox","61.92","Windows 10","21","male","right","Wed Oct 23 2024 18:05:14 GMT+0200 (Central European Summer Time)","2","79","0","1729701120447"
"905","f","SpeechGestureMatch","../RequiredFiles/videos/NeinKopfJa_f_no_gesture.mp4","Ist der Ball in der grünen Box?","Blue","Green","F","negation","na","speech","no","na","female","speech-gesture","1920","1080","firefox","61.92","Windows 10","21","male","right","Wed Oct 23 2024 18:05:21 GMT+0200 (Central European Summer Time)","2","80","0","1729701120447"
"1421","f","SpeechGestureMatch","../RequiredFiles/videos/JaKopfJa_m_no_gesture.mp4","Ist der Ball in der blauen Box?","Blue","Green","F","affirmation","na","speech","yes","na","male","speech-gesture","1920","1080","firefox","61.92","Windows 10","21","male","right","Wed Oct 23 2024 18:05:28 GMT+0200 (Central European Summer Time)","2","81","0","1729701120447"
"938","f","SpeechGestureMatch","../RequiredFiles/videos/JaKopfNein_m_no_gesture.mp4","Ist der Ball in der grünen Box?","Green","Blue","F","affirmation","na","speech","yes","na","male","speech-gesture","1920","1080","firefox","61.92","Windows 10","21","male","right","Wed Oct 23 2024 18:05:34 GMT+0200 (Central European Summer Time)","2","82","0","1729701120447"
"864","j","SpeechGestureMatch","../RequiredFiles/videos/NeinKopfNein_f.mp4","Ist der Ball in der grünen Box?","Green","Blue","J","negation","match","speech","no","HeadShake","female","speech-gesture","1920","1080","firefox","61.92","Windows 10","21","male","right","Wed Oct 23 2024 18:05:40 GMT+0200 (Central European Summer Time)","2","83","0","1729701120447"
"898","f","SpeechGestureMatch","../RequiredFiles/videos/NeinKopfNein_f_no_gesture.mp4","Ist der Ball in der blauen Box?","Green","Blue","F","negation","na","speech","no","na","female","speech-gesture","1920","1080","firefox","61.92","Windows 10","21","male","right","Wed Oct 23 2024 18:05:47 GMT+0200 (Central European Summer Time)","2","84","0","1729701120447"
"1275","f","SpeechGestureMatch","../RequiredFiles/videos/NeinKopfNein_m_no_gesture.mp4","Ist der Ball in der blauen Box?","Green","Blue","F","negation","na","speech","no","na","male","speech-gesture","1920","1080","firefox","61.92","Windows 10","21","male","right","Wed Oct 23 2024 18:05:54 GMT+0200 (Central European Summer Time)","2","85","0","1729701120447"
"988","j","SpeechGestureMatch","../RequiredFiles/videos/NeinKopfNein_f.mp4","Ist der Ball in der blauen Box?","Blue","Green","J","negation","match","speech","no","HeadShake","female","speech-gesture","1920","1080","firefox","61.92","Windows 10","21","male","right","Wed Oct 23 2024 18:06:00 GMT+0200 (Central European Summer Time)","2","86","0","1729701120447"
"933","j","SpeechGestureMatch","../RequiredFiles/videos/NeinKopfNein_m_no_gesture.mp4","Ist der Ball in der grünen Box?","Green","Blue","J","negation","na","speech","no","na","male","speech-gesture","1920","1080","firefox","61.92","Windows 10","21","male","right","Wed Oct 23 2024 18:06:07 GMT+0200 (Central European Summer Time)","2","87","0","1729701120447"
"1176","j","SpeechGestureMatch","../RequiredFiles/videos/JaKopfNein_f.mp4","Ist der Ball in der grünen Box?","Blue","Green","J","affirmation","mismatch","speech","yes","HeadShake","female","speech-gesture","1920","1080","firefox","61.92","Windows 10","21","male","right","Wed Oct 23 2024 18:06:13 GMT+0200 (Central European Summer Time)","2","88","0","1729701120447"
"1386","j","SpeechGestureMatch","../RequiredFiles/videos/JaKopfNein_f.mp4","Ist der Ball in der grünen Box?","Green","Blue","F","affirmation","mismatch","speech","yes","HeadShake","female","speech-gesture","1920","1080","firefox","61.92","Windows 10","21","male","right","Wed Oct 23 2024 18:06:20 GMT+0200 (Central European Summer Time)","2","89","1","1729701120447"
"3701","f","SpeechGestureMatch","../RequiredFiles/videos/NeinKopfJa_f_no_gesture.mp4","Ist der Ball in der grünen Box?","Green","Blue","J","negation","na","speech","no","na","female","speech-gesture","1920","1080","firefox","61.92","Windows 10","21","male","right","Wed Oct 23 2024 18:06:29 GMT+0200 (Central European Summer Time)","2","90","1","1729701120447"
"940","j","SpeechGestureMatch","../RequiredFiles/videos/NeinKopfNein_m.mp4","Ist der Ball in der grünen Box?","Green","Blue","J","negation","match","speech","no","HeadShake","male","speech-gesture","1920","1080","firefox","61.92","Windows 10","21","male","right","Wed Oct 23 2024 18:06:36 GMT+0200 (Central European Summer Time)","2","91","0","1729701120447"
"1065","f","SpeechGestureMatch","../RequiredFiles/videos/NeinKopfJa_m.mp4","Ist der Ball in der blauen Box?","Green","Blue","F","negation","mismatch","speech","no","HeadNod","male","speech-gesture","1920","1080","firefox","61.92","Windows 10","21","male","right","Wed Oct 23 2024 18:06:43 GMT+0200 (Central European Summer Time)","2","92","0","1729701120447"
"1433","j","SpeechGestureMatch","../RequiredFiles/videos/JaKopfJa_f.mp4","Ist der Ball in der grünen Box?","Blue","Green","J","affirmation","match","speech","yes","HeadNod","female","speech-gesture","1920","1080","firefox","61.92","Windows 10","21","male","right","Wed Oct 23 2024 18:06:50 GMT+0200 (Central European Summer Time)","2","93","0","1729701120447"
"949","f","SpeechGestureMatch","../RequiredFiles/videos/NeinKopfJa_m.mp4","Ist der Ball in der grünen Box?","Blue","Green","F","negation","mismatch","speech","no","HeadNod","male","speech-gesture","1920","1080","firefox","61.92","Windows 10","21","male","right","Wed Oct 23 2024 18:06:56 GMT+0200 (Central European Summer Time)","2","94","0","1729701120447"
"1027","f","SpeechGestureMatch","../RequiredFiles/videos/JaKopfNein_m.mp4","Ist der Ball in der grünen Box?","Green","Blue","F","affirmation","mismatch","speech","yes","HeadShake","male","speech-gesture","1920","1080","firefox","61.92","Windows 10","21","male","right","Wed Oct 23 2024 18:07:03 GMT+0200 (Central European Summer Time)","2","95","0","1729701120447"
"1997","f","SpeechGestureMatch","../RequiredFiles/videos/NeinKopfNein_f.mp4","Ist der Ball in der blauen Box?","Green","Blue","F","negation","match","speech","no","HeadShake","female","speech-gesture","1920","1080","firefox","61.92","Windows 10","21","male","right","Wed Oct 23 2024 18:07:10 GMT+0200 (Central European Summer Time)","2","96","0","1729701120447"
"842","j","SpeechGestureMatch","../RequiredFiles/videos/NeinKopfNein_m_no_sound.mp4","Ist der Ball in der blauen Box?","Blue","Green","J","negation","na","gesture","na","HeadShake","male","speech-gesture","1920","1080","firefox","61.92","Windows 10","21","male","right","Wed Oct 23 2024 18:08:47 GMT+0200 (Central European Summer Time)","3","1","0","1729701120447"
"2607","f","SpeechGestureMatch","../RequiredFiles/videos/JaKopfNein_m.mp4","Ist der Ball in der grünen Box?","Blue","Green","F","negation","mismatch","gesture","yes","HeadShake","male","speech-gesture","1920","1080","firefox","61.92","Windows 10","21","male","right","Wed Oct 23 2024 18:08:55 GMT+0200 (Central European Summer Time)","3","2","0","1729701120447"
"1015","j","SpeechGestureMatch","../RequiredFiles/videos/JaKopfJa_f.mp4","Ist der Ball in der blauen Box?","Green","Blue","J","affirmation","match","gesture","yes","HeadNod","female","speech-gesture","1920","1080","firefox","61.92","Windows 10","21","male","right","Wed Oct 23 2024 18:09:02 GMT+0200 (Central European Summer Time)","3","3","0","1729701120447"
"1161","j","SpeechGestureMatch","../RequiredFiles/videos/NeinKopfJa_m.mp4","Ist der Ball in der grünen Box?","Blue","Green","J","affirmation","mismatch","gesture","no","HeadNod","male","speech-gesture","1920","1080","firefox","61.92","Windows 10","21","male","right","Wed Oct 23 2024 18:09:08 GMT+0200 (Central European Summer Time)","3","4","0","1729701120447"
"1047","f","SpeechGestureMatch","../RequiredFiles/videos/NeinKopfJa_m.mp4","Ist der Ball in der blauen Box?","Blue","Green","F","affirmation","mismatch","gesture","no","HeadNod","male","speech-gesture","1920","1080","firefox","61.92","Windows 10","21","male","right","Wed Oct 23 2024 18:09:15 GMT+0200 (Central European Summer Time)","3","5","0","1729701120447"
"1171","j","SpeechGestureMatch","../RequiredFiles/videos/JaKopfNein_m_no_sound.mp4","Ist der Ball in der grünen Box?","Green","Blue","J","negation","na","gesture","na","HeadShake","male","speech-gesture","1920","1080","firefox","61.92","Windows 10","21","male","right","Wed Oct 23 2024 18:09:22 GMT+0200 (Central European Summer Time)","3","6","0","1729701120447"
"1977","f","SpeechGestureMatch","../RequiredFiles/videos/JaKopfJa_m.mp4","Ist der Ball in der grünen Box?","Green","Blue","F","affirmation","match","gesture","yes","HeadNod","male","speech-gesture","1920","1080","firefox","61.92","Windows 10","21","male","right","Wed Oct 23 2024 18:09:29 GMT+0200 (Central European Summer Time)","3","7","0","1729701120447"
"1050","f","SpeechGestureMatch","../RequiredFiles/videos/NeinKopfNein_m_no_sound.mp4","Ist der Ball in der blauen Box?","Green","Blue","F","negation","na","gesture","na","HeadShake","male","speech-gesture","1920","1080","firefox","61.92","Windows 10","21","male","right","Wed Oct 23 2024 18:09:36 GMT+0200 (Central European Summer Time)","3","8","0","1729701120447"
"1123","f","SpeechGestureMatch","../RequiredFiles/videos/JaKopfNein_f_no_sound.mp4","Ist der Ball in der blauen Box?","Green","Blue","F","negation","na","gesture","na","HeadShake","female","speech-gesture","1920","1080","firefox","61.92","Windows 10","21","male","right","Wed Oct 23 2024 18:09:42 GMT+0200 (Central European Summer Time)","3","9","0","1729701120447"
"847","j","SpeechGestureMatch","../RequiredFiles/videos/NeinKopfJa_m_no_sound.mp4","Ist der Ball in der grünen Box?","Blue","Green","J","affirmation","na","gesture","na","HeadNod","male","speech-gesture","1920","1080","firefox","61.92","Windows 10","21","male","right","Wed Oct 23 2024 18:09:49 GMT+0200 (Central European Summer Time)","3","10","0","1729701120447"
"2016","j","SpeechGestureMatch","../RequiredFiles/videos/NeinKopfJa_f.mp4","Ist der Ball in der grünen Box?","Green","Blue","F","affirmation","mismatch","gesture","no","HeadNod","female","speech-gesture","1920","1080","firefox","61.92","Windows 10","21","male","right","Wed Oct 23 2024 18:09:56 GMT+0200 (Central European Summer Time)","3","11","1","1729701120447"
"1422","j","SpeechGestureMatch","../RequiredFiles/videos/NeinKopfNein_f.mp4","Ist der Ball in der grünen Box?","Green","Blue","J","negation","match","gesture","no","HeadShake","female","speech-gesture","1920","1080","firefox","61.92","Windows 10","21","male","right","Wed Oct 23 2024 18:10:03 GMT+0200 (Central European Summer Time)","3","12","0","1729701120447"
"1608","j","SpeechGestureMatch","../RequiredFiles/videos/JaKopfNein_m.mp4","Ist der Ball in der blauen Box?","Blue","Green","J","negation","mismatch","gesture","yes","HeadShake","male","speech-gesture","1920","1080","firefox","61.92","Windows 10","21","male","right","Wed Oct 23 2024 18:10:11 GMT+0200 (Central European Summer Time)","3","13","0","1729701120447"
"904","f","SpeechGestureMatch","../RequiredFiles/videos/JaKopfJa_f.mp4","Ist der Ball in der grünen Box?","Green","Blue","F","affirmation","match","gesture","yes","HeadNod","female","speech-gesture","1920","1080","firefox","61.92","Windows 10","21","male","right","Wed Oct 23 2024 18:10:17 GMT+0200 (Central European Summer Time)","3","14","0","1729701120447"
"1236","f","SpeechGestureMatch","../RequiredFiles/videos/NeinKopfNein_f.mp4","Ist der Ball in der blauen Box?","Green","Blue","F","negation","match","gesture","no","HeadShake","female","speech-gesture","1920","1080","firefox","61.92","Windows 10","21","male","right","Wed Oct 23 2024 18:10:24 GMT+0200 (Central European Summer Time)","3","15","0","1729701120447"
"969","f","SpeechGestureMatch","../RequiredFiles/videos/JaKopfJa_m.mp4","Ist der Ball in der grünen Box?","Green","Blue","F","affirmation","match","gesture","yes","HeadNod","male","speech-gesture","1920","1080","firefox","61.92","Windows 10","21","male","right","Wed Oct 23 2024 18:10:30 GMT+0200 (Central European Summer Time)","3","16","0","1729701120447"
"1311","j","SpeechGestureMatch","../RequiredFiles/videos/NeinKopfNein_f_no_sound.mp4","Ist der Ball in der grünen Box?","Green","Blue","J","negation","na","gesture","na","HeadShake","female","speech-gesture","1920","1080","firefox","61.92","Windows 10","21","male","right","Wed Oct 23 2024 18:10:37 GMT+0200 (Central European Summer Time)","3","17","0","1729701120447"
"1646","j","SpeechGestureMatch","../RequiredFiles/videos/NeinKopfJa_f.mp4","Ist der Ball in der grünen Box?","Blue","Green","J","affirmation","mismatch","gesture","no","HeadNod","female","speech-gesture","1920","1080","firefox","61.92","Windows 10","21","male","right","Wed Oct 23 2024 18:10:44 GMT+0200 (Central European Summer Time)","3","18","0","1729701120447"
"1844","j","SpeechGestureMatch","../RequiredFiles/videos/NeinKopfJa_m.mp4","Ist der Ball in der blauen Box?","Green","Blue","J","affirmation","mismatch","gesture","no","HeadNod","male","speech-gesture","1920","1080","firefox","61.92","Windows 10","21","male","right","Wed Oct 23 2024 18:10:52 GMT+0200 (Central European Summer Time)","3","19","0","1729701120447"
"1205","j","SpeechGestureMatch","../RequiredFiles/videos/JaKopfNein_m_no_sound.mp4","Ist der Ball in der blauen Box?","Blue","Green","J","negation","na","gesture","na","HeadShake","male","speech-gesture","1920","1080","firefox","61.92","Windows 10","21","male","right","Wed Oct 23 2024 18:10:58 GMT+0200 (Central European Summer Time)","3","20","0","1729701120447"
"1048","f","SpeechGestureMatch","../RequiredFiles/videos/NeinKopfJa_m_no_sound.mp4","Ist der Ball in der grünen Box?","Green","Blue","F","affirmation","na","gesture","na","HeadNod","male","speech-gesture","1920","1080","firefox","61.92","Windows 10","21","male","right","Wed Oct 23 2024 18:11:05 GMT+0200 (Central European Summer Time)","3","21","0","1729701120447"
"1188","f","SpeechGestureMatch","../RequiredFiles/videos/JaKopfNein_m_no_sound.mp4","Ist der Ball in der grünen Box?","Blue","Green","F","negation","na","gesture","na","HeadShake","male","speech-gesture","1920","1080","firefox","61.92","Windows 10","21","male","right","Wed Oct 23 2024 18:11:12 GMT+0200 (Central European Summer Time)","3","22","0","1729701120447"
"893","f","SpeechGestureMatch","../RequiredFiles/videos/JaKopfJa_f_no_sound.mp4","Ist der Ball in der blauen Box?","Blue","Green","F","affirmation","na","gesture","na","HeadNod","female","speech-gesture","1920","1080","firefox","61.92","Windows 10","21","male","right","Wed Oct 23 2024 18:11:18 GMT+0200 (Central European Summer Time)","3","23","0","1729701120447"
"1061","j","SpeechGestureMatch","../RequiredFiles/videos/NeinKopfJa_m_no_sound.mp4","Ist der Ball in der blauen Box?","Green","Blue","J","affirmation","na","gesture","na","HeadNod","male","speech-gesture","1920","1080","firefox","61.92","Windows 10","21","male","right","Wed Oct 23 2024 18:11:25 GMT+0200 (Central European Summer Time)","3","24","0","1729701120447"
"1637","j","SpeechGestureMatch","../RequiredFiles/videos/JaKopfNein_m.mp4","Ist der Ball in der grünen Box?","Green","Blue","J","negation","mismatch","gesture","yes","HeadShake","male","speech-gesture","1920","1080","firefox","61.92","Windows 10","21","male","right","Wed Oct 23 2024 18:11:32 GMT+0200 (Central European Summer Time)","3","25","0","1729701120447"
"923","j","SpeechGestureMatch","../RequiredFiles/videos/JaKopfNein_f_no_sound.mp4","Ist der Ball in der blauen Box?","Blue","Green","J","negation","na","gesture","na","HeadShake","female","speech-gesture","1920","1080","firefox","61.92","Windows 10","21","male","right","Wed Oct 23 2024 18:11:38 GMT+0200 (Central European Summer Time)","3","26","0","1729701120447"
"1206","f","SpeechGestureMatch","../RequiredFiles/videos/NeinKopfNein_m.mp4","Ist der Ball in der grünen Box?","Blue","Green","F","negation","match","gesture","no","HeadShake","male","speech-gesture","1920","1080","firefox","61.92","Windows 10","21","male","right","Wed Oct 23 2024 18:11:45 GMT+0200 (Central European Summer Time)","3","27","0","1729701120447"
"935","j","SpeechGestureMatch","../RequiredFiles/videos/JaKopfJa_m.mp4","Ist der Ball in der blauen Box?","Green","Blue","J","affirmation","match","gesture","yes","HeadNod","male","speech-gesture","1920","1080","firefox","61.92","Windows 10","21","male","right","Wed Oct 23 2024 18:11:52 GMT+0200 (Central European Summer Time)","3","28","0","1729701120447"
"825","f","SpeechGestureMatch","../RequiredFiles/videos/JaKopfJa_m_no_sound.mp4","Ist der Ball in der blauen Box?","Blue","Green","F","affirmation","na","gesture","na","HeadNod","male","speech-gesture","1920","1080","firefox","61.92","Windows 10","21","male","right","Wed Oct 23 2024 18:11:58 GMT+0200 (Central European Summer Time)","3","29","0","1729701120447"
"1934","j","SpeechGestureMatch","../RequiredFiles/videos/NeinKopfJa_f.mp4","Ist der Ball in der blauen Box?","Green","Blue","J","affirmation","mismatch","gesture","no","HeadNod","female","speech-gesture","1920","1080","firefox","61.92","Windows 10","21","male","right","Wed Oct 23 2024 18:12:05 GMT+0200 (Central European Summer Time)","3","30","0","1729701120447"
"1413","j","SpeechGestureMatch","../RequiredFiles/videos/NeinKopfNein_m.mp4","Ist der Ball in der blauen Box?","Blue","Green","J","negation","match","gesture","no","HeadShake","male","speech-gesture","1920","1080","firefox","61.92","Windows 10","21","male","right","Wed Oct 23 2024 18:12:12 GMT+0200 (Central European Summer Time)","3","31","0","1729701120447"
"2089","j","SpeechGestureMatch","../RequiredFiles/videos/JaKopfNein_f.mp4","Ist der Ball in der blauen Box?","Blue","Green","J","negation","mismatch","gesture","yes","HeadShake","female","speech-gesture","1920","1080","firefox","61.92","Windows 10","21","male","right","Wed Oct 23 2024 18:12:20 GMT+0200 (Central European Summer Time)","3","32","0","1729701120447"
"1003","j","SpeechGestureMatch","../RequiredFiles/videos/JaKopfJa_f.mp4","Ist der Ball in der grünen Box?","Blue","Green","J","affirmation","match","gesture","yes","HeadNod","female","speech-gesture","1920","1080","firefox","61.92","Windows 10","21","male","right","Wed Oct 23 2024 18:12:26 GMT+0200 (Central European Summer Time)","3","33","0","1729701120447"
"1182","f","SpeechGestureMatch","../RequiredFiles/videos/JaKopfNein_m_no_sound.mp4","Ist der Ball in der blauen Box?","Green","Blue","F","negation","na","gesture","na","HeadShake","male","speech-gesture","1920","1080","firefox","61.92","Windows 10","21","male","right","Wed Oct 23 2024 18:12:33 GMT+0200 (Central European Summer Time)","3","34","0","1729701120447"
"1047","f","SpeechGestureMatch","../RequiredFiles/videos/NeinKopfNein_m_no_sound.mp4","Ist der Ball in der grünen Box?","Blue","Green","F","negation","na","gesture","na","HeadShake","male","speech-gesture","1920","1080","firefox","61.92","Windows 10","21","male","right","Wed Oct 23 2024 18:12:40 GMT+0200 (Central European Summer Time)","3","35","0","1729701120447"
"1210","j","SpeechGestureMatch","../RequiredFiles/videos/JaKopfNein_m.mp4","Ist der Ball in der grünen Box?","Blue","Green","F","negation","mismatch","gesture","yes","HeadShake","male","speech-gesture","1920","1080","firefox","61.92","Windows 10","21","male","right","Wed Oct 23 2024 18:12:47 GMT+0200 (Central European Summer Time)","3","36","1","1729701120447"
"1350","j","SpeechGestureMatch","../RequiredFiles/videos/JaKopfJa_f.mp4","Ist der Ball in der grünen Box?","Blue","Green","J","affirmation","match","gesture","yes","HeadNod","female","speech-gesture","1920","1080","firefox","61.92","Windows 10","21","male","right","Wed Oct 23 2024 18:12:53 GMT+0200 (Central European Summer Time)","3","37","0","1729701120447"
"820","f","SpeechGestureMatch","../RequiredFiles/videos/NeinKopfJa_f_no_sound.mp4","Ist der Ball in der grünen Box?","Green","Blue","F","affirmation","na","gesture","na","HeadNod","female","speech-gesture","1920","1080","firefox","61.92","Windows 10","21","male","right","Wed Oct 23 2024 18:13:00 GMT+0200 (Central European Summer Time)","3","38","0","1729701120447"
"2528","j","SpeechGestureMatch","../RequiredFiles/videos/JaKopfNein_f.mp4","Ist der Ball in der grünen Box?","Green","Blue","J","negation","mismatch","gesture","yes","HeadShake","female","speech-gesture","1920","1080","firefox","61.92","Windows 10","21","male","right","Wed Oct 23 2024 18:13:08 GMT+0200 (Central European Summer Time)","3","39","0","1729701120447"
"1048","f","SpeechGestureMatch","../RequiredFiles/videos/NeinKopfJa_m.mp4","Ist der Ball in der grünen Box?","Green","Blue","F","affirmation","mismatch","gesture","no","HeadNod","male","speech-gesture","1920","1080","firefox","61.92","Windows 10","21","male","right","Wed Oct 23 2024 18:13:14 GMT+0200 (Central European Summer Time)","3","40","0","1729701120447"
"1437","j","SpeechGestureMatch","../RequiredFiles/videos/NeinKopfNein_f.mp4","Ist der Ball in der grünen Box?","Green","Blue","J","negation","match","gesture","no","HeadShake","female","speech-gesture","1920","1080","firefox","61.92","Windows 10","21","male","right","Wed Oct 23 2024 18:13:21 GMT+0200 (Central European Summer Time)","3","41","0","1729701120447"
"890","j","SpeechGestureMatch","../RequiredFiles/videos/NeinKopfJa_f_no_sound.mp4","Ist der Ball in der blauen Box?","Green","Blue","J","affirmation","na","gesture","na","HeadNod","female","speech-gesture","1920","1080","firefox","61.92","Windows 10","21","male","right","Wed Oct 23 2024 18:13:28 GMT+0200 (Central European Summer Time)","3","42","0","1729701120447"
"1034","f","SpeechGestureMatch","../RequiredFiles/videos/JaKopfNein_f.mp4","Ist der Ball in der grünen Box?","Blue","Green","F","negation","mismatch","gesture","yes","HeadShake","female","speech-gesture","1920","1080","firefox","61.92","Windows 10","21","male","right","Wed Oct 23 2024 18:13:34 GMT+0200 (Central European Summer Time)","3","43","0","1729701120447"
"1154","j","SpeechGestureMatch","../RequiredFiles/videos/NeinKopfNein_m.mp4","Ist der Ball in der grünen Box?","Green","Blue","J","negation","match","gesture","no","HeadShake","male","speech-gesture","1920","1080","firefox","61.92","Windows 10","21","male","right","Wed Oct 23 2024 18:13:41 GMT+0200 (Central European Summer Time)","3","44","0","1729701120447"
"979","j","SpeechGestureMatch","../RequiredFiles/videos/NeinKopfNein_m.mp4","Ist der Ball in der blauen Box?","Blue","Green","J","negation","match","gesture","no","HeadShake","male","speech-gesture","1920","1080","firefox","61.92","Windows 10","21","male","right","Wed Oct 23 2024 18:13:48 GMT+0200 (Central European Summer Time)","3","45","0","1729701120447"
"1039","f","SpeechGestureMatch","../RequiredFiles/videos/JaKopfJa_f.mp4","Ist der Ball in der blauen Box?","Blue","Green","F","affirmation","match","gesture","yes","HeadNod","female","speech-gesture","1920","1080","firefox","61.92","Windows 10","21","male","right","Wed Oct 23 2024 18:13:54 GMT+0200 (Central European Summer Time)","3","46","0","1729701120447"
"1049","j","SpeechGestureMatch","../RequiredFiles/videos/NeinKopfNein_m.mp4","Ist der Ball in der grünen Box?","Green","Blue","J","negation","match","gesture","no","HeadShake","male","speech-gesture","1920","1080","firefox","61.92","Windows 10","21","male","right","Wed Oct 23 2024 18:14:01 GMT+0200 (Central European Summer Time)","3","47","0","1729701120447"
"900","f","SpeechGestureMatch","../RequiredFiles/videos/NeinKopfJa_m_no_sound.mp4","Ist der Ball in der blauen Box?","Blue","Green","F","affirmation","na","gesture","na","HeadNod","male","speech-gesture","1920","1080","firefox","61.92","Windows 10","21","male","right","Wed Oct 23 2024 18:14:07 GMT+0200 (Central European Summer Time)","3","48","0","1729701120447"
"768","f","SpeechGestureMatch","../RequiredFiles/videos/NeinKopfJa_f_no_sound.mp4","Ist der Ball in der blauen Box?","Blue","Green","F","affirmation","na","gesture","na","HeadNod","female","speech-gesture","1920","1080","firefox","61.92","Windows 10","21","male","right","Wed Oct 23 2024 18:14:13 GMT+0200 (Central European Summer Time)","3","49","0","1729701120447"
"883","j","SpeechGestureMatch","../RequiredFiles/videos/JaKopfJa_f_no_sound.mp4","Ist der Ball in der blauen Box?","Green","Blue","J","affirmation","na","gesture","na","HeadNod","female","speech-gesture","1920","1080","firefox","61.92","Windows 10","21","male","right","Wed Oct 23 2024 18:14:20 GMT+0200 (Central European Summer Time)","3","50","0","1729701120447"
"989","f","SpeechGestureMatch","../RequiredFiles/videos/NeinKopfNein_m.mp4","Ist der Ball in der blauen Box?","Green","Blue","F","negation","match","gesture","no","HeadShake","male","speech-gesture","1920","1080","firefox","61.92","Windows 10","21","male","right","Wed Oct 23 2024 18:14:26 GMT+0200 (Central European Summer Time)","3","51","0","1729701120447"
"881","j","SpeechGestureMatch","../RequiredFiles/videos/JaKopfNein_f_no_sound.mp4","Ist der Ball in der grünen Box?","Green","Blue","J","negation","na","gesture","na","HeadShake","female","speech-gesture","1920","1080","firefox","61.92","Windows 10","21","male","right","Wed Oct 23 2024 18:14:33 GMT+0200 (Central European Summer Time)","3","52","0","1729701120447"
"1111","f","SpeechGestureMatch","../RequiredFiles/videos/NeinKopfJa_f.mp4","Ist der Ball in der blauen Box?","Blue","Green","F","affirmation","mismatch","gesture","no","HeadNod","female","speech-gesture","1920","1080","firefox","61.92","Windows 10","21","male","right","Wed Oct 23 2024 18:14:39 GMT+0200 (Central European Summer Time)","3","53","0","1729701120447"
"1024","f","SpeechGestureMatch","../RequiredFiles/videos/JaKopfJa_f.mp4","Ist der Ball in der grünen Box?","Green","Blue","F","affirmation","match","gesture","yes","HeadNod","female","speech-gesture","1920","1080","firefox","61.92","Windows 10","21","male","right","Wed Oct 23 2024 18:14:46 GMT+0200 (Central European Summer Time)","3","54","0","1729701120447"
"1138","j","SpeechGestureMatch","../RequiredFiles/videos/NeinKopfJa_f.mp4","Ist der Ball in der grünen Box?","Blue","Green","J","affirmation","mismatch","gesture","no","HeadNod","female","speech-gesture","1920","1080","firefox","61.92","Windows 10","21","male","right","Wed Oct 23 2024 18:14:53 GMT+0200 (Central European Summer Time)","3","55","0","1729701120447"
"940","j","SpeechGestureMatch","../RequiredFiles/videos/JaKopfJa_m.mp4","Ist der Ball in der grünen Box?","Blue","Green","J","affirmation","match","gesture","yes","HeadNod","male","speech-gesture","1920","1080","firefox","61.92","Windows 10","21","male","right","Wed Oct 23 2024 18:14:59 GMT+0200 (Central European Summer Time)","3","56","0","1729701120447"
"1261","f","SpeechGestureMatch","../RequiredFiles/videos/NeinKopfNein_m.mp4","Ist der Ball in der grünen Box?","Blue","Green","F","negation","match","gesture","no","HeadShake","male","speech-gesture","1920","1080","firefox","61.92","Windows 10","21","male","right","Wed Oct 23 2024 18:15:06 GMT+0200 (Central European Summer Time)","3","57","0","1729701120447"
"1065","f","SpeechGestureMatch","../RequiredFiles/videos/NeinKopfNein_f_no_sound.mp4","Ist der Ball in der blauen Box?","Green","Blue","F","negation","na","gesture","na","HeadShake","female","speech-gesture","1920","1080","firefox","61.92","Windows 10","21","male","right","Wed Oct 23 2024 18:15:12 GMT+0200 (Central European Summer Time)","3","58","0","1729701120447"
"2400","f","SpeechGestureMatch","../RequiredFiles/videos/JaKopfJa_f.mp4","Ist der Ball in der blauen Box?","Blue","Green","F","affirmation","match","gesture","yes","HeadNod","female","speech-gesture","1920","1080","firefox","61.92","Windows 10","21","male","right","Wed Oct 23 2024 18:15:20 GMT+0200 (Central European Summer Time)","3","59","0","1729701120447"
"1030","f","SpeechGestureMatch","../RequiredFiles/videos/JaKopfNein_f.mp4","Ist der Ball in der grünen Box?","Blue","Green","F","negation","mismatch","gesture","yes","HeadShake","female","speech-gesture","1920","1080","firefox","61.92","Windows 10","21","male","right","Wed Oct 23 2024 18:15:27 GMT+0200 (Central European Summer Time)","3","60","0","1729701120447"
"3634","j","SpeechGestureMatch","../RequiredFiles/videos/NeinKopfJa_m.mp4","Ist der Ball in der grünen Box?","Green","Blue","F","affirmation","mismatch","gesture","no","HeadNod","male","speech-gesture","1920","1080","firefox","61.92","Windows 10","21","male","right","Wed Oct 23 2024 18:15:36 GMT+0200 (Central European Summer Time)","3","61","1","1729701120447"
"984","j","SpeechGestureMatch","../RequiredFiles/videos/JaKopfJa_f.mp4","Ist der Ball in der blauen Box?","Green","Blue","J","affirmation","match","gesture","yes","HeadNod","female","speech-gesture","1920","1080","firefox","61.92","Windows 10","21","male","right","Wed Oct 23 2024 18:15:43 GMT+0200 (Central European Summer Time)","3","62","0","1729701120447"
"1153","f","SpeechGestureMatch","../RequiredFiles/videos/NeinKopfNein_f.mp4","Ist der Ball in der grünen Box?","Blue","Green","F","negation","match","gesture","no","HeadShake","female","speech-gesture","1920","1080","firefox","61.92","Windows 10","21","male","right","Wed Oct 23 2024 18:15:49 GMT+0200 (Central European Summer Time)","3","63","0","1729701120447"
"792","f","SpeechGestureMatch","../RequiredFiles/videos/JaKopfJa_f_no_sound.mp4","Ist der Ball in der grünen Box?","Green","Blue","F","affirmation","na","gesture","na","HeadNod","female","speech-gesture","1920","1080","firefox","61.92","Windows 10","21","male","right","Wed Oct 23 2024 18:15:56 GMT+0200 (Central European Summer Time)","3","64","0","1729701120447"
"859","j","SpeechGestureMatch","../RequiredFiles/videos/JaKopfJa_m_no_sound.mp4","Ist der Ball in der blauen Box?","Green","Blue","J","affirmation","na","gesture","na","HeadNod","male","speech-gesture","1920","1080","firefox","61.92","Windows 10","21","male","right","Wed Oct 23 2024 18:16:02 GMT+0200 (Central European Summer Time)","3","65","0","1729701120447"
"2286","j","SpeechGestureMatch","../RequiredFiles/videos/JaKopfNein_m.mp4","Ist der Ball in der blauen Box?","Blue","Green","J","negation","mismatch","gesture","yes","HeadShake","male","speech-gesture","1920","1080","firefox","61.92","Windows 10","21","male","right","Wed Oct 23 2024 18:16:10 GMT+0200 (Central European Summer Time)","3","66","0","1729701120447"
"1017","j","SpeechGestureMatch","../RequiredFiles/videos/NeinKopfJa_f_no_sound.mp4","Ist der Ball in der grünen Box?","Blue","Green","J","affirmation","na","gesture","na","HeadNod","female","speech-gesture","1920","1080","firefox","61.92","Windows 10","21","male","right","Wed Oct 23 2024 18:16:16 GMT+0200 (Central European Summer Time)","3","67","0","1729701120447"
"2259","f","SpeechGestureMatch","../RequiredFiles/videos/JaKopfNein_m.mp4","Ist der Ball in der blauen Box?","Green","Blue","F","negation","mismatch","gesture","yes","HeadShake","male","speech-gesture","1920","1080","firefox","61.92","Windows 10","21","male","right","Wed Oct 23 2024 18:16:24 GMT+0200 (Central European Summer Time)","3","68","0","1729701120447"
"1039","f","SpeechGestureMatch","../RequiredFiles/videos/JaKopfNein_m.mp4","Ist der Ball in der blauen Box?","Green","Blue","F","negation","mismatch","gesture","yes","HeadShake","male","speech-gesture","1920","1080","firefox","61.92","Windows 10","21","male","right","Wed Oct 23 2024 18:16:31 GMT+0200 (Central European Summer Time)","3","69","0","1729701120447"
"1372","j","SpeechGestureMatch","../RequiredFiles/videos/JaKopfJa_m.mp4","Ist der Ball in der blauen Box?","Green","Blue","J","affirmation","match","gesture","yes","HeadNod","male","speech-gesture","1920","1080","firefox","61.92","Windows 10","21","male","right","Wed Oct 23 2024 18:16:38 GMT+0200 (Central European Summer Time)","3","70","0","1729701120447"
"1583","f","SpeechGestureMatch","../RequiredFiles/videos/NeinKopfJa_f.mp4","Ist der Ball in der blauen Box?","Green","Blue","J","affirmation","mismatch","gesture","no","HeadNod","female","speech-gesture","1920","1080","firefox","61.92","Windows 10","21","male","right","Wed Oct 23 2024 18:16:45 GMT+0200 (Central European Summer Time)","3","71","1","1729701120447"
"1162","f","SpeechGestureMatch","../RequiredFiles/videos/JaKopfNein_f.mp4","Ist der Ball in der blauen Box?","Green","Blue","F","negation","mismatch","gesture","yes","HeadShake","female","speech-gesture","1920","1080","firefox","61.92","Windows 10","21","male","right","Wed Oct 23 2024 18:16:51 GMT+0200 (Central European Summer Time)","3","72","0","1729701120447"
"1299","f","SpeechGestureMatch","../RequiredFiles/videos/NeinKopfNein_f.mp4","Ist der Ball in der grünen Box?","Blue","Green","F","negation","match","gesture","no","HeadShake","female","speech-gesture","1920","1080","firefox","61.92","Windows 10","21","male","right","Wed Oct 23 2024 18:16:58 GMT+0200 (Central European Summer Time)","3","73","0","1729701120447"
"1394","j","SpeechGestureMatch","../RequiredFiles/videos/NeinKopfJa_m.mp4","Ist der Ball in der grünen Box?","Blue","Green","J","affirmation","mismatch","gesture","no","HeadNod","male","speech-gesture","1920","1080","firefox","61.92","Windows 10","21","male","right","Wed Oct 23 2024 18:17:05 GMT+0200 (Central European Summer Time)","3","74","0","1729701120447"
"1259","f","SpeechGestureMatch","../RequiredFiles/videos/NeinKopfJa_f.mp4","Ist der Ball in der grünen Box?","Green","Blue","F","affirmation","mismatch","gesture","no","HeadNod","female","speech-gesture","1920","1080","firefox","61.92","Windows 10","21","male","right","Wed Oct 23 2024 18:17:12 GMT+0200 (Central European Summer Time)","3","75","0","1729701120447"
"1660","f","SpeechGestureMatch","../RequiredFiles/videos/NeinKopfJa_f.mp4","Ist der Ball in der blauen Box?","Blue","Green","F","affirmation","mismatch","gesture","no","HeadNod","female","speech-gesture","1920","1080","firefox","61.92","Windows 10","21","male","right","Wed Oct 23 2024 18:17:19 GMT+0200 (Central European Summer Time)","3","76","0","1729701120447"
"1076","f","SpeechGestureMatch","../RequiredFiles/videos/JaKopfNein_f.mp4","Ist der Ball in der blauen Box?","Green","Blue","F","negation","mismatch","gesture","yes","HeadShake","female","speech-gesture","1920","1080","firefox","61.92","Windows 10","21","male","right","Wed Oct 23 2024 18:17:26 GMT+0200 (Central European Summer Time)","3","77","0","1729701120447"
"930","j","SpeechGestureMatch","../RequiredFiles/videos/JaKopfNein_f.mp4","Ist der Ball in der grünen Box?","Green","Blue","J","negation","mismatch","gesture","yes","HeadShake","female","speech-gesture","1920","1080","firefox","61.92","Windows 10","21","male","right","Wed Oct 23 2024 18:17:32 GMT+0200 (Central European Summer Time)","3","78","0","1729701120447"
"1019","f","SpeechGestureMatch","../RequiredFiles/videos/JaKopfJa_m.mp4","Ist der Ball in der blauen Box?","Blue","Green","F","affirmation","match","gesture","yes","HeadNod","male","speech-gesture","1920","1080","firefox","61.92","Windows 10","21","male","right","Wed Oct 23 2024 18:17:39 GMT+0200 (Central European Summer Time)","3","79","0","1729701120447"
"817","j","SpeechGestureMatch","../RequiredFiles/videos/JaKopfJa_f_no_sound.mp4","Ist der Ball in der grünen Box?","Blue","Green","J","affirmation","na","gesture","na","HeadNod","female","speech-gesture","1920","1080","firefox","61.92","Windows 10","21","male","right","Wed Oct 23 2024 18:17:45 GMT+0200 (Central European Summer Time)","3","80","0","1729701120447"
"1862","j","SpeechGestureMatch","../RequiredFiles/videos/JaKopfNein_f.mp4","Ist der Ball in der blauen Box?","Blue","Green","J","negation","mismatch","gesture","yes","HeadShake","female","speech-gesture","1920","1080","firefox","61.92","Windows 10","21","male","right","Wed Oct 23 2024 18:17:52 GMT+0200 (Central European Summer Time)","3","81","0","1729701120447"
"2422","j","SpeechGestureMatch","../RequiredFiles/videos/NeinKopfNein_f_no_sound.mp4","Ist der Ball in der blauen Box?","Blue","Green","J","negation","na","gesture","na","HeadShake","female","speech-gesture","1920","1080","firefox","61.92","Windows 10","21","male","right","Wed Oct 23 2024 18:18:00 GMT+0200 (Central European Summer Time)","3","82","0","1729701120447"
