"rt","response","stim","video","question","box_colour_left","box_colour_right","correct_key","polarity","matching","modality","verbal","gesture","speaker","order","width","height","browser","vsync_rate","os","age","gender","handedness","date","blockNum","trialNum","error","vpNum"
"1018","j","SpeechGestureMatch","../RequiredFiles/videos/NeinDaumenhoch_m.mp4","Ist der Ball in der blauen Box?","Green","Blue","J","affirmation","mismatch","gesture","no","ThumbUp","male","gesture-speech","1440","960","edge-chromium","60.22","Windows 10","20","female","right","Sat Oct 12 2024 08:43:19 GMT+0200 (Mitteleuropäische Sommerzeit)","1","1","0","1728718138256"
"1148","j","SpeechGestureMatch","../RequiredFiles/videos/NeinDaumenrunter_m.mp4","Ist der Ball in der blauen Box?","Blue","Green","J","negation","match","gesture","no","ThumbDown","male","gesture-speech","1440","960","edge-chromium","60.22","Windows 10","20","female","right","Sat Oct 12 2024 08:43:26 GMT+0200 (Mitteleuropäische Sommerzeit)","1","2","0","1728718138256"
"1104","j","SpeechGestureMatch","../RequiredFiles/videos/JaDaumenhoch_f.mp4","Ist der Ball in der grünen Box?","Blue","Green","J","affirmation","match","gesture","yes","ThumbUp","female","gesture-speech","1440","960","edge-chromium","60.22","Windows 10","20","female","right","Sat Oct 12 2024 08:43:33 GMT+0200 (Mitteleuropäische Sommerzeit)","1","3","0","1728718138256"
"1315","j","SpeechGestureMatch","../RequiredFiles/videos/JaDaumenrunter_f.mp4","Ist der Ball in der grünen Box?","Green","Blue","J","negation","mismatch","gesture","yes","ThumbDown","female","gesture-speech","1440","960","edge-chromium","60.22","Windows 10","20","female","right","Sat Oct 12 2024 08:43:39 GMT+0200 (Mitteleuropäische Sommerzeit)","1","4","0","1728718138256"
"1131","j","SpeechGestureMatch","../RequiredFiles/videos/JaDaumenrunter_m.mp4","Ist der Ball in der grünen Box?","Green","Blue","J","negation","mismatch","gesture","yes","ThumbDown","male","gesture-speech","1440","960","edge-chromium","60.22","Windows 10","20","female","right","Sat Oct 12 2024 08:43:46 GMT+0200 (Mitteleuropäische Sommerzeit)","1","5","0","1728718138256"
"963","f","SpeechGestureMatch","../RequiredFiles/videos/JaDaumenhoch_m.mp4","Ist der Ball in der grünen Box?","Green","Blue","F","affirmation","match","gesture","yes","ThumbUp","male","gesture-speech","1440","960","edge-chromium","60.22","Windows 10","20","female","right","Sat Oct 12 2024 08:43:53 GMT+0200 (Mitteleuropäische Sommerzeit)","1","6","0","1728718138256"
"1179","j","SpeechGestureMatch","../RequiredFiles/videos/NeinDaumenhoch_f.mp4","Ist der Ball in der grünen Box?","Blue","Green","J","affirmation","mismatch","gesture","no","ThumbUp","female","gesture-speech","1440","960","edge-chromium","60.22","Windows 10","20","female","right","Sat Oct 12 2024 08:43:59 GMT+0200 (Mitteleuropäische Sommerzeit)","1","7","0","1728718138256"
"994","f","SpeechGestureMatch","../RequiredFiles/videos/JaDaumenhoch_f_no_sound.mp4","Ist der Ball in der grünen Box?","Green","Blue","F","affirmation","na","gesture","na","ThumbUp","female","gesture-speech","1440","960","edge-chromium","60.22","Windows 10","20","female","right","Sat Oct 12 2024 08:44:06 GMT+0200 (Mitteleuropäische Sommerzeit)","1","8","0","1728718138256"
"1590","f","SpeechGestureMatch","../RequiredFiles/videos/JaDaumenrunter_f.mp4","Ist der Ball in der blauen Box?","Green","Blue","F","negation","mismatch","gesture","yes","ThumbDown","female","gesture-speech","1440","960","edge-chromium","60.22","Windows 10","20","female","right","Sat Oct 12 2024 08:44:13 GMT+0200 (Mitteleuropäische Sommerzeit)","1","9","0","1728718138256"
"1159","j","SpeechGestureMatch","../RequiredFiles/videos/NeinDaumenhoch_f_no_sound.mp4","Ist der Ball in der blauen Box?","Green","Blue","J","affirmation","na","gesture","na","ThumbUp","female","gesture-speech","1440","960","edge-chromium","60.22","Windows 10","20","female","right","Sat Oct 12 2024 08:44:20 GMT+0200 (Mitteleuropäische Sommerzeit)","1","10","0","1728718138256"
"813","f","SpeechGestureMatch","../RequiredFiles/videos/JaDaumenhoch_f_no_sound.mp4","Ist der Ball in der blauen Box?","Blue","Green","F","affirmation","na","gesture","na","ThumbUp","female","gesture-speech","1440","960","edge-chromium","60.22","Windows 10","20","female","right","Sat Oct 12 2024 08:44:26 GMT+0200 (Mitteleuropäische Sommerzeit)","1","11","0","1728718138256"
"1027","j","SpeechGestureMatch","../RequiredFiles/videos/JaDaumenrunter_f_no_sound.mp4","Ist der Ball in der grünen Box?","Green","Blue","J","negation","na","gesture","na","ThumbDown","female","gesture-speech","1440","960","edge-chromium","60.22","Windows 10","20","female","right","Sat Oct 12 2024 08:44:33 GMT+0200 (Mitteleuropäische Sommerzeit)","1","12","0","1728718138256"
"1376","f","SpeechGestureMatch","../RequiredFiles/videos/NeinDaumenhoch_f.mp4","Ist der Ball in der grünen Box?","Green","Blue","F","affirmation","mismatch","gesture","no","ThumbUp","female","gesture-speech","1440","960","edge-chromium","60.22","Windows 10","20","female","right","Sat Oct 12 2024 08:44:40 GMT+0200 (Mitteleuropäische Sommerzeit)","1","13","0","1728718138256"
"1080","f","SpeechGestureMatch","../RequiredFiles/videos/NeinDaumenrunter_f.mp4","Ist der Ball in der blauen Box?","Green","Blue","F","negation","match","gesture","no","ThumbDown","female","gesture-speech","1440","960","edge-chromium","60.22","Windows 10","20","female","right","Sat Oct 12 2024 08:44:46 GMT+0200 (Mitteleuropäische Sommerzeit)","1","14","0","1728718138256"
"1054","j","SpeechGestureMatch","../RequiredFiles/videos/NeinDaumenhoch_m.mp4","Ist der Ball in der grünen Box?","Blue","Green","J","affirmation","mismatch","gesture","no","ThumbUp","male","gesture-speech","1440","960","edge-chromium","60.22","Windows 10","20","female","right","Sat Oct 12 2024 08:44:53 GMT+0200 (Mitteleuropäische Sommerzeit)","1","15","0","1728718138256"
"1016","f","SpeechGestureMatch","../RequiredFiles/videos/NeinDaumenrunter_f_no_sound.mp4","Ist der Ball in der grünen Box?","Blue","Green","F","negation","na","gesture","na","ThumbDown","female","gesture-speech","1440","960","edge-chromium","60.22","Windows 10","20","female","right","Sat Oct 12 2024 08:44:59 GMT+0200 (Mitteleuropäische Sommerzeit)","1","16","0","1728718138256"
"1378","f","SpeechGestureMatch","../RequiredFiles/videos/JaDaumenrunter_m.mp4","Ist der Ball in der blauen Box?","Green","Blue","F","negation","mismatch","gesture","yes","ThumbDown","male","gesture-speech","1440","960","edge-chromium","60.22","Windows 10","20","female","right","Sat Oct 12 2024 08:45:06 GMT+0200 (Mitteleuropäische Sommerzeit)","1","17","0","1728718138256"
"1081","f","SpeechGestureMatch","../RequiredFiles/videos/JaDaumenrunter_f.mp4","Ist der Ball in der blauen Box?","Green","Blue","F","negation","mismatch","gesture","yes","ThumbDown","female","gesture-speech","1440","960","edge-chromium","60.22","Windows 10","20","female","right","Sat Oct 12 2024 08:45:13 GMT+0200 (Mitteleuropäische Sommerzeit)","1","18","0","1728718138256"
"1037","f","SpeechGestureMatch","../RequiredFiles/videos/NeinDaumenhoch_m.mp4","Ist der Ball in der grünen Box?","Green","Blue","F","affirmation","mismatch","gesture","no","ThumbUp","male","gesture-speech","1440","960","edge-chromium","60.22","Windows 10","20","female","right","Sat Oct 12 2024 08:45:19 GMT+0200 (Mitteleuropäische Sommerzeit)","1","19","0","1728718138256"
"1032","f","SpeechGestureMatch","../RequiredFiles/videos/NeinDaumenrunter_m.mp4","Ist der Ball in der blauen Box?","Green","Blue","F","negation","match","gesture","no","ThumbDown","male","gesture-speech","1440","960","edge-chromium","60.22","Windows 10","20","female","right","Sat Oct 12 2024 08:45:26 GMT+0200 (Mitteleuropäische Sommerzeit)","1","20","0","1728718138256"
"984","j","SpeechGestureMatch","../RequiredFiles/videos/NeinDaumenrunter_m_no_sound.mp4","Ist der Ball in der grünen Box?","Green","Blue","J","negation","na","gesture","na","ThumbDown","male","gesture-speech","1440","960","edge-chromium","60.22","Windows 10","20","female","right","Sat Oct 12 2024 08:45:32 GMT+0200 (Mitteleuropäische Sommerzeit)","1","21","0","1728718138256"
"788","j","SpeechGestureMatch","../RequiredFiles/videos/JaDaumenhoch_m_no_sound.mp4","Ist der Ball in der grünen Box?","Blue","Green","J","affirmation","na","gesture","na","ThumbUp","male","gesture-speech","1440","960","edge-chromium","60.22","Windows 10","20","female","right","Sat Oct 12 2024 08:45:39 GMT+0200 (Mitteleuropäische Sommerzeit)","1","22","0","1728718138256"
"829","f","SpeechGestureMatch","../RequiredFiles/videos/JaDaumenrunter_f_no_sound.mp4","Ist der Ball in der grünen Box?","Blue","Green","F","negation","na","gesture","na","ThumbDown","female","gesture-speech","1440","960","edge-chromium","60.22","Windows 10","20","female","right","Sat Oct 12 2024 08:45:45 GMT+0200 (Mitteleuropäische Sommerzeit)","1","23","0","1728718138256"
"1325","j","SpeechGestureMatch","../RequiredFiles/videos/JaDaumenrunter_f.mp4","Ist der Ball in der blauen Box?","Blue","Green","J","negation","mismatch","gesture","yes","ThumbDown","female","gesture-speech","1440","960","edge-chromium","60.22","Windows 10","20","female","right","Sat Oct 12 2024 08:45:52 GMT+0200 (Mitteleuropäische Sommerzeit)","1","24","0","1728718138256"
"978","j","SpeechGestureMatch","../RequiredFiles/videos/NeinDaumenhoch_f.mp4","Ist der Ball in der grünen Box?","Blue","Green","J","affirmation","mismatch","gesture","no","ThumbUp","female","gesture-speech","1440","960","edge-chromium","60.22","Windows 10","20","female","right","Sat Oct 12 2024 08:45:59 GMT+0200 (Mitteleuropäische Sommerzeit)","1","25","0","1728718138256"
"935","j","SpeechGestureMatch","../RequiredFiles/videos/JaDaumenhoch_m.mp4","Ist der Ball in der grünen Box?","Blue","Green","J","affirmation","match","gesture","yes","ThumbUp","male","gesture-speech","1440","960","edge-chromium","60.22","Windows 10","20","female","right","Sat Oct 12 2024 08:46:05 GMT+0200 (Mitteleuropäische Sommerzeit)","1","26","0","1728718138256"
"1050","j","SpeechGestureMatch","../RequiredFiles/videos/JaDaumenrunter_m.mp4","Ist der Ball in der blauen Box?","Blue","Green","J","negation","mismatch","gesture","yes","ThumbDown","male","gesture-speech","1440","960","edge-chromium","60.22","Windows 10","20","female","right","Sat Oct 12 2024 08:46:12 GMT+0200 (Mitteleuropäische Sommerzeit)","1","27","0","1728718138256"
"962","f","SpeechGestureMatch","../RequiredFiles/videos/NeinDaumenrunter_m_no_sound.mp4","Ist der Ball in der blauen Box?","Green","Blue","F","negation","na","gesture","na","ThumbDown","male","gesture-speech","1440","960","edge-chromium","60.22","Windows 10","20","female","right","Sat Oct 12 2024 08:46:18 GMT+0200 (Mitteleuropäische Sommerzeit)","1","28","0","1728718138256"
"853","f","SpeechGestureMatch","../RequiredFiles/videos/NeinDaumenrunter_f_no_sound.mp4","Ist der Ball in der blauen Box?","Green","Blue","F","negation","na","gesture","na","ThumbDown","female","gesture-speech","1440","960","edge-chromium","60.22","Windows 10","20","female","right","Sat Oct 12 2024 08:46:24 GMT+0200 (Mitteleuropäische Sommerzeit)","1","29","0","1728718138256"
"1148","f","SpeechGestureMatch","../RequiredFiles/videos/JaDaumenrunter_m.mp4","Ist der Ball in der blauen Box?","Green","Blue","F","negation","mismatch","gesture","yes","ThumbDown","male","gesture-speech","1440","960","edge-chromium","60.22","Windows 10","20","female","right","Sat Oct 12 2024 08:46:31 GMT+0200 (Mitteleuropäische Sommerzeit)","1","30","0","1728718138256"
"928","j","SpeechGestureMatch","../RequiredFiles/videos/NeinDaumenhoch_m.mp4","Ist der Ball in der grünen Box?","Blue","Green","J","affirmation","mismatch","gesture","no","ThumbUp","male","gesture-speech","1440","960","edge-chromium","60.22","Windows 10","20","female","right","Sat Oct 12 2024 08:46:38 GMT+0200 (Mitteleuropäische Sommerzeit)","1","31","0","1728718138256"
"879","f","SpeechGestureMatch","../RequiredFiles/videos/JaDaumenhoch_f.mp4","Ist der Ball in der grünen Box?","Green","Blue","F","affirmation","match","gesture","yes","ThumbUp","female","gesture-speech","1440","960","edge-chromium","60.22","Windows 10","20","female","right","Sat Oct 12 2024 08:46:44 GMT+0200 (Mitteleuropäische Sommerzeit)","1","32","0","1728718138256"
"792","j","SpeechGestureMatch","../RequiredFiles/videos/NeinDaumenhoch_f_no_sound.mp4","Ist der Ball in der grünen Box?","Blue","Green","J","affirmation","na","gesture","na","ThumbUp","female","gesture-speech","1440","960","edge-chromium","60.22","Windows 10","20","female","right","Sat Oct 12 2024 08:46:50 GMT+0200 (Mitteleuropäische Sommerzeit)","1","33","0","1728718138256"
"1188","f","SpeechGestureMatch","../RequiredFiles/videos/NeinDaumenhoch_f.mp4","Ist der Ball in der blauen Box?","Blue","Green","F","affirmation","mismatch","gesture","no","ThumbUp","female","gesture-speech","1440","960","edge-chromium","60.22","Windows 10","20","female","right","Sat Oct 12 2024 08:46:57 GMT+0200 (Mitteleuropäische Sommerzeit)","1","34","0","1728718138256"
"1080","j","SpeechGestureMatch","../RequiredFiles/videos/NeinDaumenrunter_f.mp4","Ist der Ball in der blauen Box?","Blue","Green","J","negation","match","gesture","no","ThumbDown","female","gesture-speech","1440","960","edge-chromium","60.22","Windows 10","20","female","right","Sat Oct 12 2024 08:47:04 GMT+0200 (Mitteleuropäische Sommerzeit)","1","35","0","1728718138256"
"743","f","SpeechGestureMatch","../RequiredFiles/videos/NeinDaumenhoch_m_no_sound.mp4","Ist der Ball in der blauen Box?","Blue","Green","F","affirmation","na","gesture","na","ThumbUp","male","gesture-speech","1440","960","edge-chromium","60.22","Windows 10","20","female","right","Sat Oct 12 2024 08:47:10 GMT+0200 (Mitteleuropäische Sommerzeit)","1","36","0","1728718138256"
"1413","f","SpeechGestureMatch","../RequiredFiles/videos/JaDaumenrunter_f.mp4","Ist der Ball in der grünen Box?","Blue","Green","F","negation","mismatch","gesture","yes","ThumbDown","female","gesture-speech","1440","960","edge-chromium","60.22","Windows 10","20","female","right","Sat Oct 12 2024 08:47:17 GMT+0200 (Mitteleuropäische Sommerzeit)","1","37","0","1728718138256"
"910","j","SpeechGestureMatch","../RequiredFiles/videos/NeinDaumenhoch_m.mp4","Ist der Ball in der blauen Box?","Blue","Green","F","affirmation","mismatch","gesture","no","ThumbUp","male","gesture-speech","1440","960","edge-chromium","60.22","Windows 10","20","female","right","Sat Oct 12 2024 08:47:23 GMT+0200 (Mitteleuropäische Sommerzeit)","1","38","1","1728718138256"
"912","j","SpeechGestureMatch","../RequiredFiles/videos/JaDaumenhoch_f_no_sound.mp4","Ist der Ball in der grünen Box?","Blue","Green","J","affirmation","na","gesture","na","ThumbUp","female","gesture-speech","1440","960","edge-chromium","60.22","Windows 10","20","female","right","Sat Oct 12 2024 08:47:30 GMT+0200 (Mitteleuropäische Sommerzeit)","1","39","0","1728718138256"
"867","f","SpeechGestureMatch","../RequiredFiles/videos/NeinDaumenrunter_m.mp4","Ist der Ball in der grünen Box?","Blue","Green","F","negation","match","gesture","no","ThumbDown","male","gesture-speech","1440","960","edge-chromium","60.22","Windows 10","20","female","right","Sat Oct 12 2024 08:47:36 GMT+0200 (Mitteleuropäische Sommerzeit)","1","40","0","1728718138256"
"863","j","SpeechGestureMatch","../RequiredFiles/videos/JaDaumenhoch_f.mp4","Ist der Ball in der grünen Box?","Blue","Green","J","affirmation","match","gesture","yes","ThumbUp","female","gesture-speech","1440","960","edge-chromium","60.22","Windows 10","20","female","right","Sat Oct 12 2024 08:47:43 GMT+0200 (Mitteleuropäische Sommerzeit)","1","41","0","1728718138256"
"804","f","SpeechGestureMatch","../RequiredFiles/videos/JaDaumenrunter_f_no_sound.mp4","Ist der Ball in der blauen Box?","Green","Blue","F","negation","na","gesture","na","ThumbDown","female","gesture-speech","1440","960","edge-chromium","60.22","Windows 10","20","female","right","Sat Oct 12 2024 08:47:49 GMT+0200 (Mitteleuropäische Sommerzeit)","1","42","0","1728718138256"
"1179","f","SpeechGestureMatch","../RequiredFiles/videos/NeinDaumenhoch_m.mp4","Ist der Ball in der grünen Box?","Green","Blue","F","affirmation","mismatch","gesture","no","ThumbUp","male","gesture-speech","1440","960","edge-chromium","60.22","Windows 10","20","female","right","Sat Oct 12 2024 08:47:56 GMT+0200 (Mitteleuropäische Sommerzeit)","1","43","0","1728718138256"
"725","j","SpeechGestureMatch","../RequiredFiles/videos/NeinDaumenhoch_m_no_sound.mp4","Ist der Ball in der blauen Box?","Green","Blue","J","affirmation","na","gesture","na","ThumbUp","male","gesture-speech","1440","960","edge-chromium","60.22","Windows 10","20","female","right","Sat Oct 12 2024 08:48:02 GMT+0200 (Mitteleuropäische Sommerzeit)","1","44","0","1728718138256"
"1220","f","SpeechGestureMatch","../RequiredFiles/videos/NeinDaumenrunter_m.mp4","Ist der Ball in der grünen Box?","Blue","Green","F","negation","match","gesture","no","ThumbDown","male","gesture-speech","1440","960","edge-chromium","60.22","Windows 10","20","female","right","Sat Oct 12 2024 08:48:09 GMT+0200 (Mitteleuropäische Sommerzeit)","1","45","0","1728718138256"
"1017","j","SpeechGestureMatch","../RequiredFiles/videos/NeinDaumenrunter_f.mp4","Ist der Ball in der blauen Box?","Blue","Green","J","negation","match","gesture","no","ThumbDown","female","gesture-speech","1440","960","edge-chromium","60.22","Windows 10","20","female","right","Sat Oct 12 2024 08:48:15 GMT+0200 (Mitteleuropäische Sommerzeit)","1","46","0","1728718138256"
"792","f","SpeechGestureMatch","../RequiredFiles/videos/NeinDaumenhoch_f_no_sound.mp4","Ist der Ball in der blauen Box?","Blue","Green","F","affirmation","na","gesture","na","ThumbUp","female","gesture-speech","1440","960","edge-chromium","60.22","Windows 10","20","female","right","Sat Oct 12 2024 08:48:22 GMT+0200 (Mitteleuropäische Sommerzeit)","1","47","0","1728718138256"
"1149","f","SpeechGestureMatch","../RequiredFiles/videos/NeinDaumenrunter_m.mp4","Ist der Ball in der blauen Box?","Green","Blue","F","negation","match","gesture","no","ThumbDown","male","gesture-speech","1440","960","edge-chromium","60.22","Windows 10","20","female","right","Sat Oct 12 2024 08:48:28 GMT+0200 (Mitteleuropäische Sommerzeit)","1","48","0","1728718138256"
"991","j","SpeechGestureMatch","../RequiredFiles/videos/NeinDaumenhoch_m.mp4","Ist der Ball in der blauen Box?","Green","Blue","J","affirmation","mismatch","gesture","no","ThumbUp","male","gesture-speech","1440","960","edge-chromium","60.22","Windows 10","20","female","right","Sat Oct 12 2024 08:48:35 GMT+0200 (Mitteleuropäische Sommerzeit)","1","49","0","1728718138256"
"943","j","SpeechGestureMatch","../RequiredFiles/videos/JaDaumenhoch_m.mp4","Ist der Ball in der grünen Box?","Blue","Green","J","affirmation","match","gesture","yes","ThumbUp","male","gesture-speech","1440","960","edge-chromium","60.22","Windows 10","20","female","right","Sat Oct 12 2024 08:48:41 GMT+0200 (Mitteleuropäische Sommerzeit)","1","50","0","1728718138256"
"889","j","SpeechGestureMatch","../RequiredFiles/videos/JaDaumenhoch_m.mp4","Ist der Ball in der blauen Box?","Green","Blue","J","affirmation","match","gesture","yes","ThumbUp","male","gesture-speech","1440","960","edge-chromium","60.22","Windows 10","20","female","right","Sat Oct 12 2024 08:48:48 GMT+0200 (Mitteleuropäische Sommerzeit)","1","51","0","1728718138256"
"1024","j","SpeechGestureMatch","../RequiredFiles/videos/NeinDaumenrunter_m.mp4","Ist der Ball in der grünen Box?","Green","Blue","J","negation","match","gesture","no","ThumbDown","male","gesture-speech","1440","960","edge-chromium","60.22","Windows 10","20","female","right","Sat Oct 12 2024 08:48:54 GMT+0200 (Mitteleuropäische Sommerzeit)","1","52","0","1728718138256"
"959","f","SpeechGestureMatch","../RequiredFiles/videos/JaDaumenhoch_f.mp4","Ist der Ball in der blauen Box?","Blue","Green","F","affirmation","match","gesture","yes","ThumbUp","female","gesture-speech","1440","960","edge-chromium","60.22","Windows 10","20","female","right","Sat Oct 12 2024 08:49:01 GMT+0200 (Mitteleuropäische Sommerzeit)","1","53","0","1728718138256"
"972","j","SpeechGestureMatch","../RequiredFiles/videos/JaDaumenrunter_m.mp4","Ist der Ball in der blauen Box?","Blue","Green","J","negation","mismatch","gesture","yes","ThumbDown","male","gesture-speech","1440","960","edge-chromium","60.22","Windows 10","20","female","right","Sat Oct 12 2024 08:49:07 GMT+0200 (Mitteleuropäische Sommerzeit)","1","54","0","1728718138256"
"926","f","SpeechGestureMatch","../RequiredFiles/videos/JaDaumenhoch_m.mp4","Ist der Ball in der grünen Box?","Green","Blue","F","affirmation","match","gesture","yes","ThumbUp","male","gesture-speech","1440","960","edge-chromium","60.22","Windows 10","20","female","right","Sat Oct 12 2024 08:49:14 GMT+0200 (Mitteleuropäische Sommerzeit)","1","55","0","1728718138256"
"828","j","SpeechGestureMatch","../RequiredFiles/videos/JaDaumenrunter_f_no_sound.mp4","Ist der Ball in der blauen Box?","Blue","Green","J","negation","na","gesture","na","ThumbDown","female","gesture-speech","1440","960","edge-chromium","60.22","Windows 10","20","female","right","Sat Oct 12 2024 08:49:20 GMT+0200 (Mitteleuropäische Sommerzeit)","1","56","0","1728718138256"
"880","j","SpeechGestureMatch","../RequiredFiles/videos/NeinDaumenrunter_m_no_sound.mp4","Ist der Ball in der blauen Box?","Blue","Green","J","negation","na","gesture","na","ThumbDown","male","gesture-speech","1440","960","edge-chromium","60.22","Windows 10","20","female","right","Sat Oct 12 2024 08:49:27 GMT+0200 (Mitteleuropäische Sommerzeit)","1","57","0","1728718138256"
"948","j","SpeechGestureMatch","../RequiredFiles/videos/JaDaumenrunter_m_no_sound.mp4","Ist der Ball in der blauen Box?","Blue","Green","J","negation","na","gesture","na","ThumbDown","male","gesture-speech","1440","960","edge-chromium","60.22","Windows 10","20","female","right","Sat Oct 12 2024 08:49:33 GMT+0200 (Mitteleuropäische Sommerzeit)","1","58","0","1728718138256"
"762","j","SpeechGestureMatch","../RequiredFiles/videos/JaDaumenhoch_f_no_sound.mp4","Ist der Ball in der blauen Box?","Green","Blue","J","affirmation","na","gesture","na","ThumbUp","female","gesture-speech","1440","960","edge-chromium","60.22","Windows 10","20","female","right","Sat Oct 12 2024 08:49:39 GMT+0200 (Mitteleuropäische Sommerzeit)","1","59","0","1728718138256"
"747","j","SpeechGestureMatch","../RequiredFiles/videos/JaDaumenhoch_m.mp4","Ist der Ball in der blauen Box?","Green","Blue","J","affirmation","match","gesture","yes","ThumbUp","male","gesture-speech","1440","960","edge-chromium","60.22","Windows 10","20","female","right","Sat Oct 12 2024 08:49:46 GMT+0200 (Mitteleuropäische Sommerzeit)","1","60","0","1728718138256"
"796","j","SpeechGestureMatch","../RequiredFiles/videos/JaDaumenrunter_m_no_sound.mp4","Ist der Ball in der grünen Box?","Green","Blue","J","negation","na","gesture","na","ThumbDown","male","gesture-speech","1440","960","edge-chromium","60.22","Windows 10","20","female","right","Sat Oct 12 2024 08:49:52 GMT+0200 (Mitteleuropäische Sommerzeit)","1","61","0","1728718138256"
"775","f","SpeechGestureMatch","../RequiredFiles/videos/JaDaumenrunter_m_no_sound.mp4","Ist der Ball in der grünen Box?","Blue","Green","F","negation","na","gesture","na","ThumbDown","male","gesture-speech","1440","960","edge-chromium","60.22","Windows 10","20","female","right","Sat Oct 12 2024 08:49:58 GMT+0200 (Mitteleuropäische Sommerzeit)","1","62","0","1728718138256"
"1002","f","SpeechGestureMatch","../RequiredFiles/videos/JaDaumenrunter_m_no_sound.mp4","Ist der Ball in der blauen Box?","Green","Blue","F","negation","na","gesture","na","ThumbDown","male","gesture-speech","1440","960","edge-chromium","60.22","Windows 10","20","female","right","Sat Oct 12 2024 08:50:05 GMT+0200 (Mitteleuropäische Sommerzeit)","1","63","0","1728718138256"
"1133","f","SpeechGestureMatch","../RequiredFiles/videos/NeinDaumenhoch_m.mp4","Ist der Ball in der blauen Box?","Blue","Green","F","affirmation","mismatch","gesture","no","ThumbUp","male","gesture-speech","1440","960","edge-chromium","60.22","Windows 10","20","female","right","Sat Oct 12 2024 08:50:12 GMT+0200 (Mitteleuropäische Sommerzeit)","1","64","0","1728718138256"
"942","f","SpeechGestureMatch","../RequiredFiles/videos/JaDaumenhoch_f.mp4","Ist der Ball in der grünen Box?","Green","Blue","F","affirmation","match","gesture","yes","ThumbUp","female","gesture-speech","1440","960","edge-chromium","60.22","Windows 10","20","female","right","Sat Oct 12 2024 08:50:18 GMT+0200 (Mitteleuropäische Sommerzeit)","1","65","0","1728718138256"
"858","f","SpeechGestureMatch","../RequiredFiles/videos/NeinDaumenrunter_m_no_sound.mp4","Ist der Ball in der grünen Box?","Blue","Green","F","negation","na","gesture","na","ThumbDown","male","gesture-speech","1440","960","edge-chromium","60.22","Windows 10","20","female","right","Sat Oct 12 2024 08:50:24 GMT+0200 (Mitteleuropäische Sommerzeit)","1","66","0","1728718138256"
"864","j","SpeechGestureMatch","../RequiredFiles/videos/NeinDaumenrunter_f_no_sound.mp4","Ist der Ball in der grünen Box?","Green","Blue","J","negation","na","gesture","na","ThumbDown","female","gesture-speech","1440","960","edge-chromium","60.22","Windows 10","20","female","right","Sat Oct 12 2024 08:50:31 GMT+0200 (Mitteleuropäische Sommerzeit)","1","67","0","1728718138256"
"1463","f","SpeechGestureMatch","../RequiredFiles/videos/NeinDaumenrunter_f.mp4","Ist der Ball in der grünen Box?","Blue","Green","F","negation","match","gesture","no","ThumbDown","female","gesture-speech","1440","960","edge-chromium","60.22","Windows 10","20","female","right","Sat Oct 12 2024 08:50:38 GMT+0200 (Mitteleuropäische Sommerzeit)","1","68","0","1728718138256"
"1001","f","SpeechGestureMatch","../RequiredFiles/videos/JaDaumenrunter_f.mp4","Ist der Ball in der grünen Box?","Blue","Green","F","negation","mismatch","gesture","yes","ThumbDown","female","gesture-speech","1440","960","edge-chromium","60.22","Windows 10","20","female","right","Sat Oct 12 2024 08:50:44 GMT+0200 (Mitteleuropäische Sommerzeit)","1","69","0","1728718138256"
"1051","f","SpeechGestureMatch","../RequiredFiles/videos/JaDaumenrunter_m.mp4","Ist der Ball in der grünen Box?","Blue","Green","F","negation","mismatch","gesture","yes","ThumbDown","male","gesture-speech","1440","960","edge-chromium","60.22","Windows 10","20","female","right","Sat Oct 12 2024 08:50:51 GMT+0200 (Mitteleuropäische Sommerzeit)","1","70","0","1728718138256"
"964","j","SpeechGestureMatch","../RequiredFiles/videos/JaDaumenrunter_m.mp4","Ist der Ball in der grünen Box?","Green","Blue","J","negation","mismatch","gesture","yes","ThumbDown","male","gesture-speech","1440","960","edge-chromium","60.22","Windows 10","20","female","right","Sat Oct 12 2024 08:50:58 GMT+0200 (Mitteleuropäische Sommerzeit)","1","71","0","1728718138256"
"805","j","SpeechGestureMatch","../RequiredFiles/videos/NeinDaumenhoch_f_no_sound.mp4","Ist der Ball in der grünen Box?","Green","Blue","F","affirmation","na","gesture","na","ThumbUp","female","gesture-speech","1440","960","edge-chromium","60.22","Windows 10","20","female","right","Sat Oct 12 2024 08:51:04 GMT+0200 (Mitteleuropäische Sommerzeit)","1","72","1","1728718138256"
"1197","f","SpeechGestureMatch","../RequiredFiles/videos/JaDaumenhoch_m.mp4","Ist der Ball in der blauen Box?","Blue","Green","F","affirmation","match","gesture","yes","ThumbUp","male","gesture-speech","1440","960","edge-chromium","60.22","Windows 10","20","female","right","Sat Oct 12 2024 08:51:11 GMT+0200 (Mitteleuropäische Sommerzeit)","1","73","0","1728718138256"
"1003","f","SpeechGestureMatch","../RequiredFiles/videos/NeinDaumenrunter_f.mp4","Ist der Ball in der grünen Box?","Blue","Green","F","negation","match","gesture","no","ThumbDown","female","gesture-speech","1440","960","edge-chromium","60.22","Windows 10","20","female","right","Sat Oct 12 2024 08:51:17 GMT+0200 (Mitteleuropäische Sommerzeit)","1","74","0","1728718138256"
"790","j","SpeechGestureMatch","../RequiredFiles/videos/JaDaumenhoch_m_no_sound.mp4","Ist der Ball in der blauen Box?","Green","Blue","J","affirmation","na","gesture","na","ThumbUp","male","gesture-speech","1440","960","edge-chromium","60.22","Windows 10","20","female","right","Sat Oct 12 2024 08:51:23 GMT+0200 (Mitteleuropäische Sommerzeit)","1","75","0","1728718138256"
"1055","j","SpeechGestureMatch","../RequiredFiles/videos/NeinDaumenrunter_m.mp4","Ist der Ball in der blauen Box?","Blue","Green","J","negation","match","gesture","no","ThumbDown","male","gesture-speech","1440","960","edge-chromium","60.22","Windows 10","20","female","right","Sat Oct 12 2024 08:51:30 GMT+0200 (Mitteleuropäische Sommerzeit)","1","76","0","1728718138256"
"1017","j","SpeechGestureMatch","../RequiredFiles/videos/NeinDaumenhoch_f.mp4","Ist der Ball in der blauen Box?","Green","Blue","J","affirmation","mismatch","gesture","no","ThumbUp","female","gesture-speech","1440","960","edge-chromium","60.22","Windows 10","20","female","right","Sat Oct 12 2024 08:51:37 GMT+0200 (Mitteleuropäische Sommerzeit)","1","77","0","1728718138256"
"1085","j","SpeechGestureMatch","../RequiredFiles/videos/NeinDaumenrunter_f.mp4","Ist der Ball in der grünen Box?","Green","Blue","J","negation","match","gesture","no","ThumbDown","female","gesture-speech","1440","960","edge-chromium","60.22","Windows 10","20","female","right","Sat Oct 12 2024 08:51:43 GMT+0200 (Mitteleuropäische Sommerzeit)","1","78","0","1728718138256"
"995","j","SpeechGestureMatch","../RequiredFiles/videos/NeinDaumenrunter_f.mp4","Ist der Ball in der grünen Box?","Green","Blue","J","negation","match","gesture","no","ThumbDown","female","gesture-speech","1440","960","edge-chromium","60.22","Windows 10","20","female","right","Sat Oct 12 2024 08:51:50 GMT+0200 (Mitteleuropäische Sommerzeit)","1","79","0","1728718138256"
"980","j","SpeechGestureMatch","../RequiredFiles/videos/JaDaumenrunter_f.mp4","Ist der Ball in der grünen Box?","Green","Blue","J","negation","mismatch","gesture","yes","ThumbDown","female","gesture-speech","1440","960","edge-chromium","60.22","Windows 10","20","female","right","Sat Oct 12 2024 08:51:56 GMT+0200 (Mitteleuropäische Sommerzeit)","1","80","0","1728718138256"
"908","f","SpeechGestureMatch","../RequiredFiles/videos/JaDaumenhoch_m_no_sound.mp4","Ist der Ball in der grünen Box?","Green","Blue","F","affirmation","na","gesture","na","ThumbUp","male","gesture-speech","1440","960","edge-chromium","60.22","Windows 10","20","female","right","Sat Oct 12 2024 08:52:03 GMT+0200 (Mitteleuropäische Sommerzeit)","1","81","0","1728718138256"
"1270","f","SpeechGestureMatch","../RequiredFiles/videos/NeinDaumenhoch_f.mp4","Ist der Ball in der grünen Box?","Green","Blue","F","affirmation","mismatch","gesture","no","ThumbUp","female","gesture-speech","1440","960","edge-chromium","60.22","Windows 10","20","female","right","Sat Oct 12 2024 08:52:10 GMT+0200 (Mitteleuropäische Sommerzeit)","1","82","0","1728718138256"
"997","j","SpeechGestureMatch","../RequiredFiles/videos/JaDaumenhoch_f.mp4","Ist der Ball in der blauen Box?","Green","Blue","J","affirmation","match","gesture","yes","ThumbUp","female","gesture-speech","1440","960","edge-chromium","60.22","Windows 10","20","female","right","Sat Oct 12 2024 08:52:16 GMT+0200 (Mitteleuropäische Sommerzeit)","1","83","0","1728718138256"
"995","f","SpeechGestureMatch","../RequiredFiles/videos/JaDaumenhoch_f.mp4","Ist der Ball in der blauen Box?","Blue","Green","F","affirmation","match","gesture","yes","ThumbUp","female","gesture-speech","1440","960","edge-chromium","60.22","Windows 10","20","female","right","Sat Oct 12 2024 08:52:23 GMT+0200 (Mitteleuropäische Sommerzeit)","1","84","0","1728718138256"
"981","j","SpeechGestureMatch","../RequiredFiles/videos/NeinDaumenrunter_m.mp4","Ist der Ball in der grünen Box?","Green","Blue","J","negation","match","gesture","no","ThumbDown","male","gesture-speech","1440","960","edge-chromium","60.22","Windows 10","20","female","right","Sat Oct 12 2024 08:52:29 GMT+0200 (Mitteleuropäische Sommerzeit)","1","85","0","1728718138256"
"907","f","SpeechGestureMatch","../RequiredFiles/videos/JaDaumenhoch_m.mp4","Ist der Ball in der blauen Box?","Blue","Green","F","affirmation","match","gesture","yes","ThumbUp","male","gesture-speech","1440","960","edge-chromium","60.22","Windows 10","20","female","right","Sat Oct 12 2024 08:52:36 GMT+0200 (Mitteleuropäische Sommerzeit)","1","86","0","1728718138256"
"1401","j","SpeechGestureMatch","../RequiredFiles/videos/JaDaumenrunter_f.mp4","Ist der Ball in der blauen Box?","Blue","Green","J","negation","mismatch","gesture","yes","ThumbDown","female","gesture-speech","1440","960","edge-chromium","60.22","Windows 10","20","female","right","Sat Oct 12 2024 08:52:43 GMT+0200 (Mitteleuropäische Sommerzeit)","1","87","0","1728718138256"
"1055","j","SpeechGestureMatch","../RequiredFiles/videos/JaDaumenhoch_f.mp4","Ist der Ball in der blauen Box?","Green","Blue","J","affirmation","match","gesture","yes","ThumbUp","female","gesture-speech","1440","960","edge-chromium","60.22","Windows 10","20","female","right","Sat Oct 12 2024 08:52:49 GMT+0200 (Mitteleuropäische Sommerzeit)","1","88","0","1728718138256"
"962","f","SpeechGestureMatch","../RequiredFiles/videos/NeinDaumenhoch_f.mp4","Ist der Ball in der blauen Box?","Blue","Green","F","affirmation","mismatch","gesture","no","ThumbUp","female","gesture-speech","1440","960","edge-chromium","60.22","Windows 10","20","female","right","Sat Oct 12 2024 08:52:56 GMT+0200 (Mitteleuropäische Sommerzeit)","1","89","0","1728718138256"
"666","f","SpeechGestureMatch","../RequiredFiles/videos/JaDaumenhoch_m_no_sound.mp4","Ist der Ball in der blauen Box?","Blue","Green","F","affirmation","na","gesture","na","ThumbUp","male","gesture-speech","1440","960","edge-chromium","60.22","Windows 10","20","female","right","Sat Oct 12 2024 08:53:02 GMT+0200 (Mitteleuropäische Sommerzeit)","1","90","0","1728718138256"
"757","j","SpeechGestureMatch","../RequiredFiles/videos/NeinDaumenhoch_m_no_sound.mp4","Ist der Ball in der grünen Box?","Blue","Green","J","affirmation","na","gesture","na","ThumbUp","male","gesture-speech","1440","960","edge-chromium","60.22","Windows 10","20","female","right","Sat Oct 12 2024 08:53:08 GMT+0200 (Mitteleuropäische Sommerzeit)","1","91","0","1728718138256"
"1211","f","SpeechGestureMatch","../RequiredFiles/videos/JaDaumenrunter_m.mp4","Ist der Ball in der grünen Box?","Blue","Green","F","negation","mismatch","gesture","yes","ThumbDown","male","gesture-speech","1440","960","edge-chromium","60.22","Windows 10","20","female","right","Sat Oct 12 2024 08:53:15 GMT+0200 (Mitteleuropäische Sommerzeit)","1","92","0","1728718138256"
"751","f","SpeechGestureMatch","../RequiredFiles/videos/NeinDaumenhoch_m_no_sound.mp4","Ist der Ball in der grünen Box?","Green","Blue","F","affirmation","na","gesture","na","ThumbUp","male","gesture-speech","1440","960","edge-chromium","60.22","Windows 10","20","female","right","Sat Oct 12 2024 08:53:21 GMT+0200 (Mitteleuropäische Sommerzeit)","1","93","0","1728718138256"
"722","j","SpeechGestureMatch","../RequiredFiles/videos/NeinDaumenrunter_f_no_sound.mp4","Ist der Ball in der blauen Box?","Blue","Green","J","negation","na","gesture","na","ThumbDown","female","gesture-speech","1440","960","edge-chromium","60.22","Windows 10","20","female","right","Sat Oct 12 2024 08:53:27 GMT+0200 (Mitteleuropäische Sommerzeit)","1","94","0","1728718138256"
"1156","j","SpeechGestureMatch","../RequiredFiles/videos/NeinDaumenhoch_f.mp4","Ist der Ball in der blauen Box?","Green","Blue","J","affirmation","mismatch","gesture","no","ThumbUp","female","gesture-speech","1440","960","edge-chromium","60.22","Windows 10","20","female","right","Sat Oct 12 2024 08:53:34 GMT+0200 (Mitteleuropäische Sommerzeit)","1","95","0","1728718138256"
"1012","f","SpeechGestureMatch","../RequiredFiles/videos/NeinDaumenrunter_f.mp4","Ist der Ball in der blauen Box?","Green","Blue","F","negation","match","gesture","no","ThumbDown","female","gesture-speech","1440","960","edge-chromium","60.22","Windows 10","20","female","right","Sat Oct 12 2024 08:53:41 GMT+0200 (Mitteleuropäische Sommerzeit)","1","96","0","1728718138256"
"1439","f","SpeechGestureMatch","../RequiredFiles/videos/JaDaumenrunter_f.mp4","Ist der Ball in der grünen Box?","Blue","Green","F","negation","mismatch","gesture","yes","ThumbDown","female","gesture-speech","1440","960","edge-chromium","60.22","Windows 10","20","female","right","Sat Oct 12 2024 08:54:22 GMT+0200 (Mitteleuropäische Sommerzeit)","2","1","0","1728718138256"
"924","f","SpeechGestureMatch","../RequiredFiles/videos/JaDaumenhoch_f.mp4","Ist der Ball in der blauen Box?","Blue","Green","F","affirmation","match","gesture","yes","ThumbUp","female","gesture-speech","1440","960","edge-chromium","60.22","Windows 10","20","female","right","Sat Oct 12 2024 08:54:28 GMT+0200 (Mitteleuropäische Sommerzeit)","2","2","0","1728718138256"
"967","j","SpeechGestureMatch","../RequiredFiles/videos/NeinDaumenrunter_f.mp4","Ist der Ball in der blauen Box?","Blue","Green","J","negation","match","gesture","no","ThumbDown","female","gesture-speech","1440","960","edge-chromium","60.22","Windows 10","20","female","right","Sat Oct 12 2024 08:54:35 GMT+0200 (Mitteleuropäische Sommerzeit)","2","3","0","1728718138256"
"806","j","SpeechGestureMatch","../RequiredFiles/videos/NeinDaumenrunter_f_no_sound.mp4","Ist der Ball in der grünen Box?","Green","Blue","J","negation","na","gesture","na","ThumbDown","female","gesture-speech","1440","960","edge-chromium","60.22","Windows 10","20","female","right","Sat Oct 12 2024 08:54:41 GMT+0200 (Mitteleuropäische Sommerzeit)","2","4","0","1728718138256"
"829","f","SpeechGestureMatch","../RequiredFiles/videos/JaDaumenhoch_m.mp4","Ist der Ball in der grünen Box?","Green","Blue","F","affirmation","match","gesture","yes","ThumbUp","male","gesture-speech","1440","960","edge-chromium","60.22","Windows 10","20","female","right","Sat Oct 12 2024 08:54:47 GMT+0200 (Mitteleuropäische Sommerzeit)","2","5","0","1728718138256"
"702","j","SpeechGestureMatch","../RequiredFiles/videos/JaDaumenhoch_m_no_sound.mp4","Ist der Ball in der blauen Box?","Green","Blue","J","affirmation","na","gesture","na","ThumbUp","male","gesture-speech","1440","960","edge-chromium","60.22","Windows 10","20","female","right","Sat Oct 12 2024 08:54:53 GMT+0200 (Mitteleuropäische Sommerzeit)","2","6","0","1728718138256"
"1154","j","SpeechGestureMatch","../RequiredFiles/videos/NeinDaumenrunter_f.mp4","Ist der Ball in der grünen Box?","Green","Blue","J","negation","match","gesture","no","ThumbDown","female","gesture-speech","1440","960","edge-chromium","60.22","Windows 10","20","female","right","Sat Oct 12 2024 08:55:00 GMT+0200 (Mitteleuropäische Sommerzeit)","2","7","0","1728718138256"
"785","f","SpeechGestureMatch","../RequiredFiles/videos/NeinDaumenhoch_f_no_sound.mp4","Ist der Ball in der grünen Box?","Green","Blue","F","affirmation","na","gesture","na","ThumbUp","female","gesture-speech","1440","960","edge-chromium","60.22","Windows 10","20","female","right","Sat Oct 12 2024 08:55:07 GMT+0200 (Mitteleuropäische Sommerzeit)","2","8","0","1728718138256"
"1223","f","SpeechGestureMatch","../RequiredFiles/videos/NeinDaumenhoch_f.mp4","Ist der Ball in der blauen Box?","Blue","Green","F","affirmation","mismatch","gesture","no","ThumbUp","female","gesture-speech","1440","960","edge-chromium","60.22","Windows 10","20","female","right","Sat Oct 12 2024 08:55:13 GMT+0200 (Mitteleuropäische Sommerzeit)","2","9","0","1728718138256"
"924","j","SpeechGestureMatch","../RequiredFiles/videos/JaDaumenrunter_m.mp4","Ist der Ball in der grünen Box?","Green","Blue","J","negation","mismatch","gesture","yes","ThumbDown","male","gesture-speech","1440","960","edge-chromium","60.22","Windows 10","20","female","right","Sat Oct 12 2024 08:55:20 GMT+0200 (Mitteleuropäische Sommerzeit)","2","10","0","1728718138256"
"937","f","SpeechGestureMatch","../RequiredFiles/videos/NeinDaumenrunter_f.mp4","Ist der Ball in der grünen Box?","Blue","Green","F","negation","match","gesture","no","ThumbDown","female","gesture-speech","1440","960","edge-chromium","60.22","Windows 10","20","female","right","Sat Oct 12 2024 08:55:26 GMT+0200 (Mitteleuropäische Sommerzeit)","2","11","0","1728718138256"
"822","f","SpeechGestureMatch","../RequiredFiles/videos/JaDaumenrunter_f_no_sound.mp4","Ist der Ball in der grünen Box?","Blue","Green","F","negation","na","gesture","na","ThumbDown","female","gesture-speech","1440","960","edge-chromium","60.22","Windows 10","20","female","right","Sat Oct 12 2024 08:55:33 GMT+0200 (Mitteleuropäische Sommerzeit)","2","12","0","1728718138256"
"783","j","SpeechGestureMatch","../RequiredFiles/videos/NeinDaumenhoch_f.mp4","Ist der Ball in der blauen Box?","Green","Blue","J","affirmation","mismatch","gesture","no","ThumbUp","female","gesture-speech","1440","960","edge-chromium","60.22","Windows 10","20","female","right","Sat Oct 12 2024 08:55:39 GMT+0200 (Mitteleuropäische Sommerzeit)","2","13","0","1728718138256"
"931","j","SpeechGestureMatch","../RequiredFiles/videos/NeinDaumenrunter_m.mp4","Ist der Ball in der grünen Box?","Green","Blue","J","negation","match","gesture","no","ThumbDown","male","gesture-speech","1440","960","edge-chromium","60.22","Windows 10","20","female","right","Sat Oct 12 2024 08:55:45 GMT+0200 (Mitteleuropäische Sommerzeit)","2","14","0","1728718138256"
"967","f","SpeechGestureMatch","../RequiredFiles/videos/JaDaumenhoch_m.mp4","Ist der Ball in der blauen Box?","Blue","Green","F","affirmation","match","gesture","yes","ThumbUp","male","gesture-speech","1440","960","edge-chromium","60.22","Windows 10","20","female","right","Sat Oct 12 2024 08:55:52 GMT+0200 (Mitteleuropäische Sommerzeit)","2","15","0","1728718138256"
"698","f","SpeechGestureMatch","../RequiredFiles/videos/JaDaumenhoch_f_no_sound.mp4","Ist der Ball in der blauen Box?","Blue","Green","F","affirmation","na","gesture","na","ThumbUp","female","gesture-speech","1440","960","edge-chromium","60.22","Windows 10","20","female","right","Sat Oct 12 2024 08:55:58 GMT+0200 (Mitteleuropäische Sommerzeit)","2","16","0","1728718138256"
"858","f","SpeechGestureMatch","../RequiredFiles/videos/NeinDaumenrunter_f_no_sound.mp4","Ist der Ball in der blauen Box?","Green","Blue","F","negation","na","gesture","na","ThumbDown","female","gesture-speech","1440","960","edge-chromium","60.22","Windows 10","20","female","right","Sat Oct 12 2024 08:56:05 GMT+0200 (Mitteleuropäische Sommerzeit)","2","17","0","1728718138256"
"949","j","SpeechGestureMatch","../RequiredFiles/videos/JaDaumenrunter_m.mp4","Ist der Ball in der grünen Box?","Green","Blue","J","negation","mismatch","gesture","yes","ThumbDown","male","gesture-speech","1440","960","edge-chromium","60.22","Windows 10","20","female","right","Sat Oct 12 2024 08:56:11 GMT+0200 (Mitteleuropäische Sommerzeit)","2","18","0","1728718138256"
"979","j","SpeechGestureMatch","../RequiredFiles/videos/JaDaumenrunter_m.mp4","Ist der Ball in der blauen Box?","Blue","Green","J","negation","mismatch","gesture","yes","ThumbDown","male","gesture-speech","1440","960","edge-chromium","60.22","Windows 10","20","female","right","Sat Oct 12 2024 08:56:18 GMT+0200 (Mitteleuropäische Sommerzeit)","2","19","0","1728718138256"
"856","f","SpeechGestureMatch","../RequiredFiles/videos/NeinDaumenhoch_m.mp4","Ist der Ball in der blauen Box?","Blue","Green","F","affirmation","mismatch","gesture","no","ThumbUp","male","gesture-speech","1440","960","edge-chromium","60.22","Windows 10","20","female","right","Sat Oct 12 2024 08:56:24 GMT+0200 (Mitteleuropäische Sommerzeit)","2","20","0","1728718138256"
"731","j","SpeechGestureMatch","../RequiredFiles/videos/JaDaumenhoch_f_no_sound.mp4","Ist der Ball in der grünen Box?","Blue","Green","J","affirmation","na","gesture","na","ThumbUp","female","gesture-speech","1440","960","edge-chromium","60.22","Windows 10","20","female","right","Sat Oct 12 2024 08:56:30 GMT+0200 (Mitteleuropäische Sommerzeit)","2","21","0","1728718138256"
"715","j","SpeechGestureMatch","../RequiredFiles/videos/NeinDaumenhoch_m_no_sound.mp4","Ist der Ball in der blauen Box?","Green","Blue","J","affirmation","na","gesture","na","ThumbUp","male","gesture-speech","1440","960","edge-chromium","60.22","Windows 10","20","female","right","Sat Oct 12 2024 08:56:37 GMT+0200 (Mitteleuropäische Sommerzeit)","2","22","0","1728718138256"
"922","f","SpeechGestureMatch","../RequiredFiles/videos/JaDaumenhoch_f.mp4","Ist der Ball in der grünen Box?","Green","Blue","F","affirmation","match","gesture","yes","ThumbUp","female","gesture-speech","1440","960","edge-chromium","60.22","Windows 10","20","female","right","Sat Oct 12 2024 08:56:43 GMT+0200 (Mitteleuropäische Sommerzeit)","2","23","0","1728718138256"
"749","f","SpeechGestureMatch","../RequiredFiles/videos/JaDaumenrunter_m_no_sound.mp4","Ist der Ball in der blauen Box?","Green","Blue","F","negation","na","gesture","na","ThumbDown","male","gesture-speech","1440","960","edge-chromium","60.22","Windows 10","20","female","right","Sat Oct 12 2024 08:56:49 GMT+0200 (Mitteleuropäische Sommerzeit)","2","24","0","1728718138256"
"1041","j","SpeechGestureMatch","../RequiredFiles/videos/JaDaumenhoch_m.mp4","Ist der Ball in der blauen Box?","Green","Blue","J","affirmation","match","gesture","yes","ThumbUp","male","gesture-speech","1440","960","edge-chromium","60.22","Windows 10","20","female","right","Sat Oct 12 2024 08:56:56 GMT+0200 (Mitteleuropäische Sommerzeit)","2","25","0","1728718138256"
"950","j","SpeechGestureMatch","../RequiredFiles/videos/NeinDaumenhoch_f.mp4","Ist der Ball in der blauen Box?","Green","Blue","J","affirmation","mismatch","gesture","no","ThumbUp","female","gesture-speech","1440","960","edge-chromium","60.22","Windows 10","20","female","right","Sat Oct 12 2024 08:57:02 GMT+0200 (Mitteleuropäische Sommerzeit)","2","26","0","1728718138256"
"873","f","SpeechGestureMatch","../RequiredFiles/videos/JaDaumenhoch_m.mp4","Ist der Ball in der grünen Box?","Green","Blue","F","affirmation","match","gesture","yes","ThumbUp","male","gesture-speech","1440","960","edge-chromium","60.22","Windows 10","20","female","right","Sat Oct 12 2024 08:57:09 GMT+0200 (Mitteleuropäische Sommerzeit)","2","27","0","1728718138256"
"889","j","SpeechGestureMatch","../RequiredFiles/videos/NeinDaumenhoch_m.mp4","Ist der Ball in der grünen Box?","Blue","Green","J","affirmation","mismatch","gesture","no","ThumbUp","male","gesture-speech","1440","960","edge-chromium","60.22","Windows 10","20","female","right","Sat Oct 12 2024 08:57:15 GMT+0200 (Mitteleuropäische Sommerzeit)","2","28","0","1728718138256"
"890","j","SpeechGestureMatch","../RequiredFiles/videos/JaDaumenhoch_f.mp4","Ist der Ball in der grünen Box?","Blue","Green","J","affirmation","match","gesture","yes","ThumbUp","female","gesture-speech","1440","960","edge-chromium","60.22","Windows 10","20","female","right","Sat Oct 12 2024 08:57:22 GMT+0200 (Mitteleuropäische Sommerzeit)","2","29","0","1728718138256"
"859","f","SpeechGestureMatch","../RequiredFiles/videos/JaDaumenrunter_m_no_sound.mp4","Ist der Ball in der grünen Box?","Blue","Green","F","negation","na","gesture","na","ThumbDown","male","gesture-speech","1440","960","edge-chromium","60.22","Windows 10","20","female","right","Sat Oct 12 2024 08:57:28 GMT+0200 (Mitteleuropäische Sommerzeit)","2","30","0","1728718138256"
"1207","f","SpeechGestureMatch","../RequiredFiles/videos/JaDaumenrunter_m.mp4","Ist der Ball in der grünen Box?","Blue","Green","F","negation","mismatch","gesture","yes","ThumbDown","male","gesture-speech","1440","960","edge-chromium","60.22","Windows 10","20","female","right","Sat Oct 12 2024 08:57:35 GMT+0200 (Mitteleuropäische Sommerzeit)","2","31","0","1728718138256"
"1021","f","SpeechGestureMatch","../RequiredFiles/videos/JaDaumenrunter_m.mp4","Ist der Ball in der blauen Box?","Green","Blue","F","negation","mismatch","gesture","yes","ThumbDown","male","gesture-speech","1440","960","edge-chromium","60.22","Windows 10","20","female","right","Sat Oct 12 2024 08:57:41 GMT+0200 (Mitteleuropäische Sommerzeit)","2","32","0","1728718138256"
"846","f","SpeechGestureMatch","../RequiredFiles/videos/NeinDaumenhoch_m.mp4","Ist der Ball in der grünen Box?","Green","Blue","F","affirmation","mismatch","gesture","no","ThumbUp","male","gesture-speech","1440","960","edge-chromium","60.22","Windows 10","20","female","right","Sat Oct 12 2024 08:57:48 GMT+0200 (Mitteleuropäische Sommerzeit)","2","33","0","1728718138256"
"922","j","SpeechGestureMatch","../RequiredFiles/videos/NeinDaumenhoch_m.mp4","Ist der Ball in der grünen Box?","Blue","Green","J","affirmation","mismatch","gesture","no","ThumbUp","male","gesture-speech","1440","960","edge-chromium","60.22","Windows 10","20","female","right","Sat Oct 12 2024 08:57:54 GMT+0200 (Mitteleuropäische Sommerzeit)","2","34","0","1728718138256"
"837","j","SpeechGestureMatch","../RequiredFiles/videos/NeinDaumenrunter_f_no_sound.mp4","Ist der Ball in der blauen Box?","Blue","Green","J","negation","na","gesture","na","ThumbDown","female","gesture-speech","1440","960","edge-chromium","60.22","Windows 10","20","female","right","Sat Oct 12 2024 08:58:01 GMT+0200 (Mitteleuropäische Sommerzeit)","2","35","0","1728718138256"
"1000","f","SpeechGestureMatch","../RequiredFiles/videos/NeinDaumenhoch_f.mp4","Ist der Ball in der grünen Box?","Green","Blue","F","affirmation","mismatch","gesture","no","ThumbUp","female","gesture-speech","1440","960","edge-chromium","60.22","Windows 10","20","female","right","Sat Oct 12 2024 08:58:07 GMT+0200 (Mitteleuropäische Sommerzeit)","2","36","0","1728718138256"
"943","j","SpeechGestureMatch","../RequiredFiles/videos/JaDaumenrunter_f.mp4","Ist der Ball in der grünen Box?","Green","Blue","J","negation","mismatch","gesture","yes","ThumbDown","female","gesture-speech","1440","960","edge-chromium","60.22","Windows 10","20","female","right","Sat Oct 12 2024 08:58:14 GMT+0200 (Mitteleuropäische Sommerzeit)","2","37","0","1728718138256"
"707","j","SpeechGestureMatch","../RequiredFiles/videos/NeinDaumenhoch_f_no_sound.mp4","Ist der Ball in der grünen Box?","Blue","Green","J","affirmation","na","gesture","na","ThumbUp","female","gesture-speech","1440","960","edge-chromium","60.22","Windows 10","20","female","right","Sat Oct 12 2024 08:58:20 GMT+0200 (Mitteleuropäische Sommerzeit)","2","38","0","1728718138256"
"677","f","SpeechGestureMatch","../RequiredFiles/videos/NeinDaumenhoch_m_no_sound.mp4","Ist der Ball in der grünen Box?","Green","Blue","F","affirmation","na","gesture","na","ThumbUp","male","gesture-speech","1440","960","edge-chromium","60.22","Windows 10","20","female","right","Sat Oct 12 2024 08:58:26 GMT+0200 (Mitteleuropäische Sommerzeit)","2","39","0","1728718138256"
"1068","f","SpeechGestureMatch","../RequiredFiles/videos/JaDaumenhoch_f.mp4","Ist der Ball in der grünen Box?","Green","Blue","F","affirmation","match","gesture","yes","ThumbUp","female","gesture-speech","1440","960","edge-chromium","60.22","Windows 10","20","female","right","Sat Oct 12 2024 08:58:33 GMT+0200 (Mitteleuropäische Sommerzeit)","2","40","0","1728718138256"
"1006","j","SpeechGestureMatch","../RequiredFiles/videos/NeinDaumenrunter_f.mp4","Ist der Ball in der grünen Box?","Green","Blue","J","negation","match","gesture","no","ThumbDown","female","gesture-speech","1440","960","edge-chromium","60.22","Windows 10","20","female","right","Sat Oct 12 2024 08:58:39 GMT+0200 (Mitteleuropäische Sommerzeit)","2","41","0","1728718138256"
"762","f","SpeechGestureMatch","../RequiredFiles/videos/JaDaumenhoch_f_no_sound.mp4","Ist der Ball in der grünen Box?","Green","Blue","F","affirmation","na","gesture","na","ThumbUp","female","gesture-speech","1440","960","edge-chromium","60.22","Windows 10","20","female","right","Sat Oct 12 2024 08:58:46 GMT+0200 (Mitteleuropäische Sommerzeit)","2","42","0","1728718138256"
"642","f","SpeechGestureMatch","../RequiredFiles/videos/NeinDaumenhoch_m_no_sound.mp4","Ist der Ball in der blauen Box?","Blue","Green","F","affirmation","na","gesture","na","ThumbUp","male","gesture-speech","1440","960","edge-chromium","60.22","Windows 10","20","female","right","Sat Oct 12 2024 08:58:52 GMT+0200 (Mitteleuropäische Sommerzeit)","2","43","0","1728718138256"
"656","j","SpeechGestureMatch","../RequiredFiles/videos/NeinDaumenhoch_m.mp4","Ist der Ball in der blauen Box?","Green","Blue","J","affirmation","mismatch","gesture","no","ThumbUp","male","gesture-speech","1440","960","edge-chromium","60.22","Windows 10","20","female","right","Sat Oct 12 2024 08:58:58 GMT+0200 (Mitteleuropäische Sommerzeit)","2","44","0","1728718138256"
"968","j","SpeechGestureMatch","../RequiredFiles/videos/JaDaumenrunter_f.mp4","Ist der Ball in der grünen Box?","Green","Blue","J","negation","mismatch","gesture","yes","ThumbDown","female","gesture-speech","1440","960","edge-chromium","60.22","Windows 10","20","female","right","Sat Oct 12 2024 08:59:04 GMT+0200 (Mitteleuropäische Sommerzeit)","2","45","0","1728718138256"
"960","j","SpeechGestureMatch","../RequiredFiles/videos/JaDaumenrunter_f.mp4","Ist der Ball in der blauen Box?","Blue","Green","J","negation","mismatch","gesture","yes","ThumbDown","female","gesture-speech","1440","960","edge-chromium","60.22","Windows 10","20","female","right","Sat Oct 12 2024 08:59:11 GMT+0200 (Mitteleuropäische Sommerzeit)","2","46","0","1728718138256"
"898","j","SpeechGestureMatch","../RequiredFiles/videos/NeinDaumenrunter_m.mp4","Ist der Ball in der blauen Box?","Blue","Green","J","negation","match","gesture","no","ThumbDown","male","gesture-speech","1440","960","edge-chromium","60.22","Windows 10","20","female","right","Sat Oct 12 2024 08:59:17 GMT+0200 (Mitteleuropäische Sommerzeit)","2","47","0","1728718138256"
"887","j","SpeechGestureMatch","../RequiredFiles/videos/NeinDaumenrunter_m.mp4","Ist der Ball in der grünen Box?","Green","Blue","J","negation","match","gesture","no","ThumbDown","male","gesture-speech","1440","960","edge-chromium","60.22","Windows 10","20","female","right","Sat Oct 12 2024 08:59:24 GMT+0200 (Mitteleuropäische Sommerzeit)","2","48","0","1728718138256"
"898","f","SpeechGestureMatch","../RequiredFiles/videos/NeinDaumenrunter_m.mp4","Ist der Ball in der blauen Box?","Green","Blue","F","negation","match","gesture","no","ThumbDown","male","gesture-speech","1440","960","edge-chromium","60.22","Windows 10","20","female","right","Sat Oct 12 2024 08:59:30 GMT+0200 (Mitteleuropäische Sommerzeit)","2","49","0","1728718138256"
"726","f","SpeechGestureMatch","../RequiredFiles/videos/JaDaumenhoch_m_no_sound.mp4","Ist der Ball in der blauen Box?","Blue","Green","F","affirmation","na","gesture","na","ThumbUp","male","gesture-speech","1440","960","edge-chromium","60.22","Windows 10","20","female","right","Sat Oct 12 2024 08:59:37 GMT+0200 (Mitteleuropäische Sommerzeit)","2","50","0","1728718138256"
"1122","j","SpeechGestureMatch","../RequiredFiles/videos/JaDaumenrunter_m.mp4","Ist der Ball in der blauen Box?","Blue","Green","J","negation","mismatch","gesture","yes","ThumbDown","male","gesture-speech","1440","960","edge-chromium","60.22","Windows 10","20","female","right","Sat Oct 12 2024 08:59:43 GMT+0200 (Mitteleuropäische Sommerzeit)","2","51","0","1728718138256"
"973","j","SpeechGestureMatch","../RequiredFiles/videos/JaDaumenhoch_m.mp4","Ist der Ball in der grünen Box?","Blue","Green","J","affirmation","match","gesture","yes","ThumbUp","male","gesture-speech","1440","960","edge-chromium","60.22","Windows 10","20","female","right","Sat Oct 12 2024 08:59:50 GMT+0200 (Mitteleuropäische Sommerzeit)","2","52","0","1728718138256"
"884","j","SpeechGestureMatch","../RequiredFiles/videos/JaDaumenhoch_m.mp4","Ist der Ball in der grünen Box?","Blue","Green","J","affirmation","match","gesture","yes","ThumbUp","male","gesture-speech","1440","960","edge-chromium","60.22","Windows 10","20","female","right","Sat Oct 12 2024 08:59:56 GMT+0200 (Mitteleuropäische Sommerzeit)","2","53","0","1728718138256"
"772","j","SpeechGestureMatch","../RequiredFiles/videos/NeinDaumenrunter_m_no_sound.mp4","Ist der Ball in der blauen Box?","Blue","Green","J","negation","na","gesture","na","ThumbDown","male","gesture-speech","1440","960","edge-chromium","60.22","Windows 10","20","female","right","Sat Oct 12 2024 09:00:02 GMT+0200 (Mitteleuropäische Sommerzeit)","2","54","0","1728718138256"
"743","f","SpeechGestureMatch","../RequiredFiles/videos/JaDaumenhoch_f.mp4","Ist der Ball in der blauen Box?","Blue","Green","F","affirmation","match","gesture","yes","ThumbUp","female","gesture-speech","1440","960","edge-chromium","60.22","Windows 10","20","female","right","Sat Oct 12 2024 09:00:09 GMT+0200 (Mitteleuropäische Sommerzeit)","2","55","0","1728718138256"
"895","j","SpeechGestureMatch","../RequiredFiles/videos/JaDaumenhoch_f_no_sound.mp4","Ist der Ball in der blauen Box?","Green","Blue","J","affirmation","na","gesture","na","ThumbUp","female","gesture-speech","1440","960","edge-chromium","60.22","Windows 10","20","female","right","Sat Oct 12 2024 09:00:15 GMT+0200 (Mitteleuropäische Sommerzeit)","2","56","0","1728718138256"
"690","j","SpeechGestureMatch","../RequiredFiles/videos/JaDaumenhoch_m_no_sound.mp4","Ist der Ball in der grünen Box?","Blue","Green","J","affirmation","na","gesture","na","ThumbUp","male","gesture-speech","1440","960","edge-chromium","60.22","Windows 10","20","female","right","Sat Oct 12 2024 09:00:21 GMT+0200 (Mitteleuropäische Sommerzeit)","2","57","0","1728718138256"
"1085","j","SpeechGestureMatch","../RequiredFiles/videos/JaDaumenhoch_f.mp4","Ist der Ball in der blauen Box?","Green","Blue","J","affirmation","match","gesture","yes","ThumbUp","female","gesture-speech","1440","960","edge-chromium","60.22","Windows 10","20","female","right","Sat Oct 12 2024 09:00:28 GMT+0200 (Mitteleuropäische Sommerzeit)","2","58","0","1728718138256"
"892","j","SpeechGestureMatch","../RequiredFiles/videos/JaDaumenrunter_f_no_sound.mp4","Ist der Ball in der grünen Box?","Green","Blue","J","negation","na","gesture","na","ThumbDown","female","gesture-speech","1440","960","edge-chromium","60.22","Windows 10","20","female","right","Sat Oct 12 2024 09:00:34 GMT+0200 (Mitteleuropäische Sommerzeit)","2","59","0","1728718138256"
"807","j","SpeechGestureMatch","../RequiredFiles/videos/JaDaumenrunter_f_no_sound.mp4","Ist der Ball in der blauen Box?","Blue","Green","J","negation","na","gesture","na","ThumbDown","female","gesture-speech","1440","960","edge-chromium","60.22","Windows 10","20","female","right","Sat Oct 12 2024 09:00:41 GMT+0200 (Mitteleuropäische Sommerzeit)","2","60","0","1728718138256"
"1105","f","SpeechGestureMatch","../RequiredFiles/videos/NeinDaumenhoch_m.mp4","Ist der Ball in der grünen Box?","Green","Blue","F","affirmation","mismatch","gesture","no","ThumbUp","male","gesture-speech","1440","960","edge-chromium","60.22","Windows 10","20","female","right","Sat Oct 12 2024 09:00:47 GMT+0200 (Mitteleuropäische Sommerzeit)","2","61","0","1728718138256"
"738","j","SpeechGestureMatch","../RequiredFiles/videos/NeinDaumenhoch_m_no_sound.mp4","Ist der Ball in der grünen Box?","Blue","Green","J","affirmation","na","gesture","na","ThumbUp","male","gesture-speech","1440","960","edge-chromium","60.22","Windows 10","20","female","right","Sat Oct 12 2024 09:00:54 GMT+0200 (Mitteleuropäische Sommerzeit)","2","62","0","1728718138256"
"1168","j","SpeechGestureMatch","../RequiredFiles/videos/JaDaumenhoch_f.mp4","Ist der Ball in der blauen Box?","Green","Blue","J","affirmation","match","gesture","yes","ThumbUp","female","gesture-speech","1440","960","edge-chromium","60.22","Windows 10","20","female","right","Sat Oct 12 2024 09:01:00 GMT+0200 (Mitteleuropäische Sommerzeit)","2","63","0","1728718138256"
"1079","f","SpeechGestureMatch","../RequiredFiles/videos/JaDaumenrunter_m.mp4","Ist der Ball in der blauen Box?","Green","Blue","F","negation","mismatch","gesture","yes","ThumbDown","male","gesture-speech","1440","960","edge-chromium","60.22","Windows 10","20","female","right","Sat Oct 12 2024 09:01:07 GMT+0200 (Mitteleuropäische Sommerzeit)","2","64","0","1728718138256"
"936","j","SpeechGestureMatch","../RequiredFiles/videos/NeinDaumenrunter_m.mp4","Ist der Ball in der blauen Box?","Blue","Green","J","negation","match","gesture","no","ThumbDown","male","gesture-speech","1440","960","edge-chromium","60.22","Windows 10","20","female","right","Sat Oct 12 2024 09:01:14 GMT+0200 (Mitteleuropäische Sommerzeit)","2","65","0","1728718138256"
"1337","f","SpeechGestureMatch","../RequiredFiles/videos/JaDaumenrunter_f.mp4","Ist der Ball in der grünen Box?","Blue","Green","F","negation","mismatch","gesture","yes","ThumbDown","female","gesture-speech","1440","960","edge-chromium","60.22","Windows 10","20","female","right","Sat Oct 12 2024 09:01:20 GMT+0200 (Mitteleuropäische Sommerzeit)","2","66","0","1728718138256"
"899","j","SpeechGestureMatch","../RequiredFiles/videos/JaDaumenhoch_m.mp4","Ist der Ball in der blauen Box?","Green","Blue","J","affirmation","match","gesture","yes","ThumbUp","male","gesture-speech","1440","960","edge-chromium","60.22","Windows 10","20","female","right","Sat Oct 12 2024 09:01:27 GMT+0200 (Mitteleuropäische Sommerzeit)","2","67","0","1728718138256"
"867","f","SpeechGestureMatch","../RequiredFiles/videos/NeinDaumenhoch_m.mp4","Ist der Ball in der blauen Box?","Blue","Green","F","affirmation","mismatch","gesture","no","ThumbUp","male","gesture-speech","1440","960","edge-chromium","60.22","Windows 10","20","female","right","Sat Oct 12 2024 09:01:33 GMT+0200 (Mitteleuropäische Sommerzeit)","2","68","0","1728718138256"
"992","f","SpeechGestureMatch","../RequiredFiles/videos/NeinDaumenhoch_f.mp4","Ist der Ball in der blauen Box?","Blue","Green","F","affirmation","mismatch","gesture","no","ThumbUp","female","gesture-speech","1440","960","edge-chromium","60.22","Windows 10","20","female","right","Sat Oct 12 2024 09:01:40 GMT+0200 (Mitteleuropäische Sommerzeit)","2","69","0","1728718138256"
"761","j","SpeechGestureMatch","../RequiredFiles/videos/NeinDaumenhoch_f_no_sound.mp4","Ist der Ball in der blauen Box?","Green","Blue","J","affirmation","na","gesture","na","ThumbUp","female","gesture-speech","1440","960","edge-chromium","60.22","Windows 10","20","female","right","Sat Oct 12 2024 09:01:46 GMT+0200 (Mitteleuropäische Sommerzeit)","2","70","0","1728718138256"
"1139","f","SpeechGestureMatch","../RequiredFiles/videos/JaDaumenrunter_m.mp4","Ist der Ball in der grünen Box?","Blue","Green","F","negation","mismatch","gesture","yes","ThumbDown","male","gesture-speech","1440","960","edge-chromium","60.22","Windows 10","20","female","right","Sat Oct 12 2024 09:01:53 GMT+0200 (Mitteleuropäische Sommerzeit)","2","71","0","1728718138256"
"784","j","SpeechGestureMatch","../RequiredFiles/videos/NeinDaumenrunter_m_no_sound.mp4","Ist der Ball in der grünen Box?","Green","Blue","J","negation","na","gesture","na","ThumbDown","male","gesture-speech","1440","960","edge-chromium","60.22","Windows 10","20","female","right","Sat Oct 12 2024 09:01:59 GMT+0200 (Mitteleuropäische Sommerzeit)","2","72","0","1728718138256"
"734","f","SpeechGestureMatch","../RequiredFiles/videos/NeinDaumenrunter_f_no_sound.mp4","Ist der Ball in der grünen Box?","Blue","Green","F","negation","na","gesture","na","ThumbDown","female","gesture-speech","1440","960","edge-chromium","60.22","Windows 10","20","female","right","Sat Oct 12 2024 09:02:05 GMT+0200 (Mitteleuropäische Sommerzeit)","2","73","0","1728718138256"
"736","j","SpeechGestureMatch","../RequiredFiles/videos/JaDaumenrunter_m_no_sound.mp4","Ist der Ball in der grünen Box?","Green","Blue","J","negation","na","gesture","na","ThumbDown","male","gesture-speech","1440","960","edge-chromium","60.22","Windows 10","20","female","right","Sat Oct 12 2024 09:02:12 GMT+0200 (Mitteleuropäische Sommerzeit)","2","74","0","1728718138256"
"1207","f","SpeechGestureMatch","../RequiredFiles/videos/JaDaumenrunter_f.mp4","Ist der Ball in der blauen Box?","Green","Blue","F","negation","mismatch","gesture","yes","ThumbDown","female","gesture-speech","1440","960","edge-chromium","60.22","Windows 10","20","female","right","Sat Oct 12 2024 09:02:18 GMT+0200 (Mitteleuropäische Sommerzeit)","2","75","0","1728718138256"
"1114","j","SpeechGestureMatch","../RequiredFiles/videos/NeinDaumenhoch_m.mp4","Ist der Ball in der blauen Box?","Green","Blue","J","affirmation","mismatch","gesture","no","ThumbUp","male","gesture-speech","1440","960","edge-chromium","60.22","Windows 10","20","female","right","Sat Oct 12 2024 09:02:25 GMT+0200 (Mitteleuropäische Sommerzeit)","2","76","0","1728718138256"
"1037","f","SpeechGestureMatch","../RequiredFiles/videos/NeinDaumenrunter_m.mp4","Ist der Ball in der blauen Box?","Green","Blue","F","negation","match","gesture","no","ThumbDown","male","gesture-speech","1440","960","edge-chromium","60.22","Windows 10","20","female","right","Sat Oct 12 2024 09:02:32 GMT+0200 (Mitteleuropäische Sommerzeit)","2","77","0","1728718138256"
"761","j","SpeechGestureMatch","../RequiredFiles/videos/JaDaumenrunter_m_no_sound.mp4","Ist der Ball in der blauen Box?","Blue","Green","J","negation","na","gesture","na","ThumbDown","male","gesture-speech","1440","960","edge-chromium","60.22","Windows 10","20","female","right","Sat Oct 12 2024 09:02:38 GMT+0200 (Mitteleuropäische Sommerzeit)","2","78","0","1728718138256"
"1038","f","SpeechGestureMatch","../RequiredFiles/videos/JaDaumenhoch_m.mp4","Ist der Ball in der blauen Box?","Blue","Green","F","affirmation","match","gesture","yes","ThumbUp","male","gesture-speech","1440","960","edge-chromium","60.22","Windows 10","20","female","right","Sat Oct 12 2024 09:02:45 GMT+0200 (Mitteleuropäische Sommerzeit)","2","79","0","1728718138256"
"942","f","SpeechGestureMatch","../RequiredFiles/videos/NeinDaumenrunter_f.mp4","Ist der Ball in der blauen Box?","Green","Blue","F","negation","match","gesture","no","ThumbDown","female","gesture-speech","1440","960","edge-chromium","60.22","Windows 10","20","female","right","Sat Oct 12 2024 09:02:51 GMT+0200 (Mitteleuropäische Sommerzeit)","2","80","0","1728718138256"
"1110","f","SpeechGestureMatch","../RequiredFiles/videos/NeinDaumenrunter_m.mp4","Ist der Ball in der grünen Box?","Blue","Green","F","negation","match","gesture","no","ThumbDown","male","gesture-speech","1440","960","edge-chromium","60.22","Windows 10","20","female","right","Sat Oct 12 2024 09:02:58 GMT+0200 (Mitteleuropäische Sommerzeit)","2","81","0","1728718138256"
"1058","f","SpeechGestureMatch","../RequiredFiles/videos/NeinDaumenrunter_m.mp4","Ist der Ball in der grünen Box?","Blue","Green","F","negation","match","gesture","no","ThumbDown","male","gesture-speech","1440","960","edge-chromium","60.22","Windows 10","20","female","right","Sat Oct 12 2024 09:03:04 GMT+0200 (Mitteleuropäische Sommerzeit)","2","82","0","1728718138256"
"789","f","SpeechGestureMatch","../RequiredFiles/videos/NeinDaumenhoch_f_no_sound.mp4","Ist der Ball in der blauen Box?","Blue","Green","F","affirmation","na","gesture","na","ThumbUp","female","gesture-speech","1440","960","edge-chromium","60.22","Windows 10","20","female","right","Sat Oct 12 2024 09:03:11 GMT+0200 (Mitteleuropäische Sommerzeit)","2","83","0","1728718138256"
"1096","f","SpeechGestureMatch","../RequiredFiles/videos/NeinDaumenhoch_f.mp4","Ist der Ball in der grünen Box?","Green","Blue","F","affirmation","mismatch","gesture","no","ThumbUp","female","gesture-speech","1440","960","edge-chromium","60.22","Windows 10","20","female","right","Sat Oct 12 2024 09:03:17 GMT+0200 (Mitteleuropäische Sommerzeit)","2","84","0","1728718138256"
"1022","f","SpeechGestureMatch","../RequiredFiles/videos/NeinDaumenrunter_f.mp4","Ist der Ball in der blauen Box?","Green","Blue","F","negation","match","gesture","no","ThumbDown","female","gesture-speech","1440","960","edge-chromium","60.22","Windows 10","20","female","right","Sat Oct 12 2024 09:03:24 GMT+0200 (Mitteleuropäische Sommerzeit)","2","85","0","1728718138256"
"933","j","SpeechGestureMatch","../RequiredFiles/videos/JaDaumenhoch_f.mp4","Ist der Ball in der grünen Box?","Blue","Green","J","affirmation","match","gesture","yes","ThumbUp","female","gesture-speech","1440","960","edge-chromium","60.22","Windows 10","20","female","right","Sat Oct 12 2024 09:03:30 GMT+0200 (Mitteleuropäische Sommerzeit)","2","86","0","1728718138256"
"795","f","SpeechGestureMatch","../RequiredFiles/videos/NeinDaumenrunter_m_no_sound.mp4","Ist der Ball in der grünen Box?","Blue","Green","F","negation","na","gesture","na","ThumbDown","male","gesture-speech","1440","960","edge-chromium","60.22","Windows 10","20","female","right","Sat Oct 12 2024 09:03:37 GMT+0200 (Mitteleuropäische Sommerzeit)","2","87","0","1728718138256"
"1230","f","SpeechGestureMatch","../RequiredFiles/videos/NeinDaumenrunter_f.mp4","Ist der Ball in der grünen Box?","Blue","Green","F","negation","match","gesture","no","ThumbDown","female","gesture-speech","1440","960","edge-chromium","60.22","Windows 10","20","female","right","Sat Oct 12 2024 09:03:43 GMT+0200 (Mitteleuropäische Sommerzeit)","2","88","0","1728718138256"
"800","f","SpeechGestureMatch","../RequiredFiles/videos/NeinDaumenrunter_m_no_sound.mp4","Ist der Ball in der blauen Box?","Green","Blue","F","negation","na","gesture","na","ThumbDown","male","gesture-speech","1440","960","edge-chromium","60.22","Windows 10","20","female","right","Sat Oct 12 2024 09:03:50 GMT+0200 (Mitteleuropäische Sommerzeit)","2","89","0","1728718138256"
"1256","j","SpeechGestureMatch","../RequiredFiles/videos/NeinDaumenhoch_f.mp4","Ist der Ball in der grünen Box?","Blue","Green","J","affirmation","mismatch","gesture","no","ThumbUp","female","gesture-speech","1440","960","edge-chromium","60.22","Windows 10","20","female","right","Sat Oct 12 2024 09:03:56 GMT+0200 (Mitteleuropäische Sommerzeit)","2","90","0","1728718138256"
"831","f","SpeechGestureMatch","../RequiredFiles/videos/JaDaumenrunter_f_no_sound.mp4","Ist der Ball in der blauen Box?","Green","Blue","F","negation","na","gesture","na","ThumbDown","female","gesture-speech","1440","960","edge-chromium","60.22","Windows 10","20","female","right","Sat Oct 12 2024 09:04:03 GMT+0200 (Mitteleuropäische Sommerzeit)","2","91","0","1728718138256"
"1304","f","SpeechGestureMatch","../RequiredFiles/videos/JaDaumenrunter_f.mp4","Ist der Ball in der blauen Box?","Green","Blue","F","negation","mismatch","gesture","yes","ThumbDown","female","gesture-speech","1440","960","edge-chromium","60.22","Windows 10","20","female","right","Sat Oct 12 2024 09:04:10 GMT+0200 (Mitteleuropäische Sommerzeit)","2","92","0","1728718138256"
"1006","j","SpeechGestureMatch","../RequiredFiles/videos/JaDaumenrunter_f.mp4","Ist der Ball in der blauen Box?","Blue","Green","J","negation","mismatch","gesture","yes","ThumbDown","female","gesture-speech","1440","960","edge-chromium","60.22","Windows 10","20","female","right","Sat Oct 12 2024 09:04:16 GMT+0200 (Mitteleuropäische Sommerzeit)","2","93","0","1728718138256"
"997","j","SpeechGestureMatch","../RequiredFiles/videos/NeinDaumenhoch_f.mp4","Ist der Ball in der grünen Box?","Blue","Green","J","affirmation","mismatch","gesture","no","ThumbUp","female","gesture-speech","1440","960","edge-chromium","60.22","Windows 10","20","female","right","Sat Oct 12 2024 09:04:23 GMT+0200 (Mitteleuropäische Sommerzeit)","2","94","0","1728718138256"
"737","f","SpeechGestureMatch","../RequiredFiles/videos/JaDaumenhoch_m_no_sound.mp4","Ist der Ball in der grünen Box?","Green","Blue","F","affirmation","na","gesture","na","ThumbUp","male","gesture-speech","1440","960","edge-chromium","60.22","Windows 10","20","female","right","Sat Oct 12 2024 09:04:29 GMT+0200 (Mitteleuropäische Sommerzeit)","2","95","0","1728718138256"
"1121","j","SpeechGestureMatch","../RequiredFiles/videos/NeinDaumenrunter_f.mp4","Ist der Ball in der blauen Box?","Blue","Green","J","negation","match","gesture","no","ThumbDown","female","gesture-speech","1440","960","edge-chromium","60.22","Windows 10","20","female","right","Sat Oct 12 2024 09:04:36 GMT+0200 (Mitteleuropäische Sommerzeit)","2","96","0","1728718138256"
"1243","f","SpeechGestureMatch","../RequiredFiles/videos/JaDaumenrunter_f.mp4","Ist der Ball in der grünen Box?","Green","Blue","F","affirmation","mismatch","speech","yes","ThumbDown","female","gesture-speech","1440","960","edge-chromium","60.22","Windows 10","20","female","right","Sat Oct 12 2024 09:07:42 GMT+0200 (Mitteleuropäische Sommerzeit)","3","1","0","1728718138256"
"1016","j","SpeechGestureMatch","../RequiredFiles/videos/NeinDaumenrunter_f.mp4","Ist der Ball in der grünen Box?","Green","Blue","J","negation","match","speech","no","ThumbDown","female","gesture-speech","1440","960","edge-chromium","60.22","Windows 10","20","female","right","Sat Oct 12 2024 09:07:48 GMT+0200 (Mitteleuropäische Sommerzeit)","3","2","0","1728718138256"
"1002","f","SpeechGestureMatch","../RequiredFiles/videos/NeinDaumenrunter_m.mp4","Ist der Ball in der grünen Box?","Blue","Green","F","negation","match","speech","no","ThumbDown","male","gesture-speech","1440","960","edge-chromium","60.22","Windows 10","20","female","right","Sat Oct 12 2024 09:07:55 GMT+0200 (Mitteleuropäische Sommerzeit)","3","3","0","1728718138256"
"906","j","SpeechGestureMatch","../RequiredFiles/videos/JaDaumenhoch_f.mp4","Ist der Ball in der blauen Box?","Green","Blue","J","affirmation","match","speech","yes","ThumbUp","female","gesture-speech","1440","960","edge-chromium","60.22","Windows 10","20","female","right","Sat Oct 12 2024 09:08:01 GMT+0200 (Mitteleuropäische Sommerzeit)","3","4","0","1728718138256"
"987","f","SpeechGestureMatch","../RequiredFiles/videos/JaDaumenhoch_m_no_gesture.mp4","Ist der Ball in der grünen Box?","Green","Blue","F","affirmation","na","speech","yes","na","male","gesture-speech","1440","960","edge-chromium","60.22","Windows 10","20","female","right","Sat Oct 12 2024 09:08:08 GMT+0200 (Mitteleuropäische Sommerzeit)","3","5","0","1728718138256"
"1033","f","SpeechGestureMatch","../RequiredFiles/videos/NeinDaumenrunter_f.mp4","Ist der Ball in der grünen Box?","Blue","Green","F","negation","match","speech","no","ThumbDown","female","gesture-speech","1440","960","edge-chromium","60.22","Windows 10","20","female","right","Sat Oct 12 2024 09:08:15 GMT+0200 (Mitteleuropäische Sommerzeit)","3","6","0","1728718138256"
"1006","f","SpeechGestureMatch","../RequiredFiles/videos/JaDaumenrunter_f_no_gesture.mp4","Ist der Ball in der grünen Box?","Green","Blue","F","affirmation","na","speech","yes","na","female","gesture-speech","1440","960","edge-chromium","60.22","Windows 10","20","female","right","Sat Oct 12 2024 09:08:21 GMT+0200 (Mitteleuropäische Sommerzeit)","3","7","0","1728718138256"
"1053","j","SpeechGestureMatch","../RequiredFiles/videos/NeinDaumenrunter_m.mp4","Ist der Ball in der grünen Box?","Green","Blue","J","negation","match","speech","no","ThumbDown","male","gesture-speech","1440","960","edge-chromium","60.22","Windows 10","20","female","right","Sat Oct 12 2024 09:08:28 GMT+0200 (Mitteleuropäische Sommerzeit)","3","8","0","1728718138256"
"1205","f","SpeechGestureMatch","../RequiredFiles/videos/NeinDaumenrunter_f_no_gesture.mp4","Ist der Ball in der grünen Box?","Blue","Green","F","negation","na","speech","no","na","female","gesture-speech","1440","960","edge-chromium","60.22","Windows 10","20","female","right","Sat Oct 12 2024 09:08:34 GMT+0200 (Mitteleuropäische Sommerzeit)","3","9","0","1728718138256"
"999","j","SpeechGestureMatch","../RequiredFiles/videos/JaDaumenhoch_f_no_gesture.mp4","Ist der Ball in der blauen Box?","Green","Blue","J","affirmation","na","speech","yes","na","female","gesture-speech","1440","960","edge-chromium","60.22","Windows 10","20","female","right","Sat Oct 12 2024 09:08:41 GMT+0200 (Mitteleuropäische Sommerzeit)","3","10","0","1728718138256"
"1017","f","SpeechGestureMatch","../RequiredFiles/videos/NeinDaumenrunter_f.mp4","Ist der Ball in der blauen Box?","Green","Blue","F","negation","match","speech","no","ThumbDown","female","gesture-speech","1440","960","edge-chromium","60.22","Windows 10","20","female","right","Sat Oct 12 2024 09:08:48 GMT+0200 (Mitteleuropäische Sommerzeit)","3","11","0","1728718138256"
"891","f","SpeechGestureMatch","../RequiredFiles/videos/JaDaumenhoch_m.mp4","Ist der Ball in der grünen Box?","Green","Blue","F","affirmation","match","speech","yes","ThumbUp","male","gesture-speech","1440","960","edge-chromium","60.22","Windows 10","20","female","right","Sat Oct 12 2024 09:08:54 GMT+0200 (Mitteleuropäische Sommerzeit)","3","12","0","1728718138256"
"1064","f","SpeechGestureMatch","../RequiredFiles/videos/NeinDaumenhoch_m.mp4","Ist der Ball in der blauen Box?","Green","Blue","F","negation","mismatch","speech","no","ThumbUp","male","gesture-speech","1440","960","edge-chromium","60.22","Windows 10","20","female","right","Sat Oct 12 2024 09:09:01 GMT+0200 (Mitteleuropäische Sommerzeit)","3","13","0","1728718138256"
"877","j","SpeechGestureMatch","../RequiredFiles/videos/JaDaumenhoch_f.mp4","Ist der Ball in der blauen Box?","Green","Blue","J","affirmation","match","speech","yes","ThumbUp","female","gesture-speech","1440","960","edge-chromium","60.22","Windows 10","20","female","right","Sat Oct 12 2024 09:09:07 GMT+0200 (Mitteleuropäische Sommerzeit)","3","14","0","1728718138256"
"926","j","SpeechGestureMatch","../RequiredFiles/videos/JaDaumenrunter_m.mp4","Ist der Ball in der blauen Box?","Green","Blue","J","affirmation","mismatch","speech","yes","ThumbDown","male","gesture-speech","1440","960","edge-chromium","60.22","Windows 10","20","female","right","Sat Oct 12 2024 09:09:13 GMT+0200 (Mitteleuropäische Sommerzeit)","3","15","0","1728718138256"
"997","j","SpeechGestureMatch","../RequiredFiles/videos/JaDaumenhoch_m.mp4","Ist der Ball in der grünen Box?","Blue","Green","J","affirmation","match","speech","yes","ThumbUp","male","gesture-speech","1440","960","edge-chromium","60.22","Windows 10","20","female","right","Sat Oct 12 2024 09:09:20 GMT+0200 (Mitteleuropäische Sommerzeit)","3","16","0","1728718138256"
"1040","f","SpeechGestureMatch","../RequiredFiles/videos/NeinDaumenhoch_f_no_gesture.mp4","Ist der Ball in der blauen Box?","Green","Blue","F","negation","na","speech","no","na","female","gesture-speech","1440","960","edge-chromium","60.22","Windows 10","20","female","right","Sat Oct 12 2024 09:09:27 GMT+0200 (Mitteleuropäische Sommerzeit)","3","17","0","1728718138256"
"1147","f","SpeechGestureMatch","../RequiredFiles/videos/NeinDaumenhoch_f.mp4","Ist der Ball in der grünen Box?","Blue","Green","F","negation","mismatch","speech","no","ThumbUp","female","gesture-speech","1440","960","edge-chromium","60.22","Windows 10","20","female","right","Sat Oct 12 2024 09:09:33 GMT+0200 (Mitteleuropäische Sommerzeit)","3","18","0","1728718138256"
"1001","j","SpeechGestureMatch","../RequiredFiles/videos/NeinDaumenrunter_m.mp4","Ist der Ball in der grünen Box?","Green","Blue","J","negation","match","speech","no","ThumbDown","male","gesture-speech","1440","960","edge-chromium","60.22","Windows 10","20","female","right","Sat Oct 12 2024 09:09:40 GMT+0200 (Mitteleuropäische Sommerzeit)","3","19","0","1728718138256"
"1180","f","SpeechGestureMatch","../RequiredFiles/videos/JaDaumenrunter_m.mp4","Ist der Ball in der blauen Box?","Blue","Green","F","affirmation","mismatch","speech","yes","ThumbDown","male","gesture-speech","1440","960","edge-chromium","60.22","Windows 10","20","female","right","Sat Oct 12 2024 09:09:46 GMT+0200 (Mitteleuropäische Sommerzeit)","3","20","0","1728718138256"
"1005","j","SpeechGestureMatch","../RequiredFiles/videos/NeinDaumenhoch_f.mp4","Ist der Ball in der grünen Box?","Green","Blue","J","negation","mismatch","speech","no","ThumbUp","female","gesture-speech","1440","960","edge-chromium","60.22","Windows 10","20","female","right","Sat Oct 12 2024 09:09:53 GMT+0200 (Mitteleuropäische Sommerzeit)","3","21","0","1728718138256"
"1151","f","SpeechGestureMatch","../RequiredFiles/videos/NeinDaumenhoch_f.mp4","Ist der Ball in der blauen Box?","Green","Blue","F","negation","mismatch","speech","no","ThumbUp","female","gesture-speech","1440","960","edge-chromium","60.22","Windows 10","20","female","right","Sat Oct 12 2024 09:10:00 GMT+0200 (Mitteleuropäische Sommerzeit)","3","22","0","1728718138256"
"982","j","SpeechGestureMatch","../RequiredFiles/videos/NeinDaumenhoch_m_no_gesture.mp4","Ist der Ball in der grünen Box?","Green","Blue","J","negation","na","speech","no","na","male","gesture-speech","1440","960","edge-chromium","60.22","Windows 10","20","female","right","Sat Oct 12 2024 09:10:06 GMT+0200 (Mitteleuropäische Sommerzeit)","3","23","0","1728718138256"
"1107","j","SpeechGestureMatch","../RequiredFiles/videos/NeinDaumenhoch_m.mp4","Ist der Ball in der blauen Box?","Blue","Green","J","negation","mismatch","speech","no","ThumbUp","male","gesture-speech","1440","960","edge-chromium","60.22","Windows 10","20","female","right","Sat Oct 12 2024 09:10:13 GMT+0200 (Mitteleuropäische Sommerzeit)","3","24","0","1728718138256"
"1063","f","SpeechGestureMatch","../RequiredFiles/videos/JaDaumenhoch_f.mp4","Ist der Ball in der grünen Box?","Green","Blue","F","affirmation","match","speech","yes","ThumbUp","female","gesture-speech","1440","960","edge-chromium","60.22","Windows 10","20","female","right","Sat Oct 12 2024 09:10:19 GMT+0200 (Mitteleuropäische Sommerzeit)","3","25","0","1728718138256"
"883","j","SpeechGestureMatch","../RequiredFiles/videos/JaDaumenhoch_m.mp4","Ist der Ball in der blauen Box?","Green","Blue","J","affirmation","match","speech","yes","ThumbUp","male","gesture-speech","1440","960","edge-chromium","60.22","Windows 10","20","female","right","Sat Oct 12 2024 09:10:26 GMT+0200 (Mitteleuropäische Sommerzeit)","3","26","0","1728718138256"
"949","f","SpeechGestureMatch","../RequiredFiles/videos/NeinDaumenrunter_f.mp4","Ist der Ball in der grünen Box?","Blue","Green","F","negation","match","speech","no","ThumbDown","female","gesture-speech","1440","960","edge-chromium","60.22","Windows 10","20","female","right","Sat Oct 12 2024 09:10:32 GMT+0200 (Mitteleuropäische Sommerzeit)","3","27","0","1728718138256"
"968","f","SpeechGestureMatch","../RequiredFiles/videos/JaDaumenhoch_m_no_gesture.mp4","Ist der Ball in der blauen Box?","Blue","Green","F","affirmation","na","speech","yes","na","male","gesture-speech","1440","960","edge-chromium","60.22","Windows 10","20","female","right","Sat Oct 12 2024 09:10:39 GMT+0200 (Mitteleuropäische Sommerzeit)","3","28","0","1728718138256"
"957","j","SpeechGestureMatch","../RequiredFiles/videos/JaDaumenrunter_m.mp4","Ist der Ball in der blauen Box?","Green","Blue","J","affirmation","mismatch","speech","yes","ThumbDown","male","gesture-speech","1440","960","edge-chromium","60.22","Windows 10","20","female","right","Sat Oct 12 2024 09:10:45 GMT+0200 (Mitteleuropäische Sommerzeit)","3","29","0","1728718138256"
"1051","j","SpeechGestureMatch","../RequiredFiles/videos/NeinDaumenhoch_f_no_gesture.mp4","Ist der Ball in der grünen Box?","Green","Blue","J","negation","na","speech","no","na","female","gesture-speech","1440","960","edge-chromium","60.22","Windows 10","20","female","right","Sat Oct 12 2024 09:10:52 GMT+0200 (Mitteleuropäische Sommerzeit)","3","30","0","1728718138256"
"992","j","SpeechGestureMatch","../RequiredFiles/videos/NeinDaumenhoch_f.mp4","Ist der Ball in der blauen Box?","Blue","Green","J","negation","mismatch","speech","no","ThumbUp","female","gesture-speech","1440","960","edge-chromium","60.22","Windows 10","20","female","right","Sat Oct 12 2024 09:10:59 GMT+0200 (Mitteleuropäische Sommerzeit)","3","31","0","1728718138256"
"991","j","SpeechGestureMatch","../RequiredFiles/videos/NeinDaumenrunter_f_no_gesture.mp4","Ist der Ball in der grünen Box?","Green","Blue","J","negation","na","speech","no","na","female","gesture-speech","1440","960","edge-chromium","60.22","Windows 10","20","female","right","Sat Oct 12 2024 09:11:05 GMT+0200 (Mitteleuropäische Sommerzeit)","3","32","0","1728718138256"
"946","f","SpeechGestureMatch","../RequiredFiles/videos/NeinDaumenhoch_m_no_gesture.mp4","Ist der Ball in der blauen Box?","Green","Blue","F","negation","na","speech","no","na","male","gesture-speech","1440","960","edge-chromium","60.22","Windows 10","20","female","right","Sat Oct 12 2024 09:11:12 GMT+0200 (Mitteleuropäische Sommerzeit)","3","33","0","1728718138256"
"1078","j","SpeechGestureMatch","../RequiredFiles/videos/NeinDaumenhoch_m.mp4","Ist der Ball in der grünen Box?","Green","Blue","J","negation","mismatch","speech","no","ThumbUp","male","gesture-speech","1440","960","edge-chromium","60.22","Windows 10","20","female","right","Sat Oct 12 2024 09:11:18 GMT+0200 (Mitteleuropäische Sommerzeit)","3","34","0","1728718138256"
"991","f","SpeechGestureMatch","../RequiredFiles/videos/NeinDaumenrunter_m.mp4","Ist der Ball in der blauen Box?","Green","Blue","F","negation","match","speech","no","ThumbDown","male","gesture-speech","1440","960","edge-chromium","60.22","Windows 10","20","female","right","Sat Oct 12 2024 09:11:25 GMT+0200 (Mitteleuropäische Sommerzeit)","3","35","0","1728718138256"
"890","j","SpeechGestureMatch","../RequiredFiles/videos/JaDaumenhoch_f.mp4","Ist der Ball in der grünen Box?","Blue","Green","J","affirmation","match","speech","yes","ThumbUp","female","gesture-speech","1440","960","edge-chromium","60.22","Windows 10","20","female","right","Sat Oct 12 2024 09:11:31 GMT+0200 (Mitteleuropäische Sommerzeit)","3","36","0","1728718138256"
"1057","j","SpeechGestureMatch","../RequiredFiles/videos/JaDaumenrunter_f.mp4","Ist der Ball in der grünen Box?","Blue","Green","J","affirmation","mismatch","speech","yes","ThumbDown","female","gesture-speech","1440","960","edge-chromium","60.22","Windows 10","20","female","right","Sat Oct 12 2024 09:11:38 GMT+0200 (Mitteleuropäische Sommerzeit)","3","37","0","1728718138256"
"912","f","SpeechGestureMatch","../RequiredFiles/videos/JaDaumenrunter_m.mp4","Ist der Ball in der grünen Box?","Green","Blue","F","affirmation","mismatch","speech","yes","ThumbDown","male","gesture-speech","1440","960","edge-chromium","60.22","Windows 10","20","female","right","Sat Oct 12 2024 09:11:44 GMT+0200 (Mitteleuropäische Sommerzeit)","3","38","0","1728718138256"
"985","j","SpeechGestureMatch","../RequiredFiles/videos/NeinDaumenrunter_f_no_gesture.mp4","Ist der Ball in der blauen Box?","Blue","Green","J","negation","na","speech","no","na","female","gesture-speech","1440","960","edge-chromium","60.22","Windows 10","20","female","right","Sat Oct 12 2024 09:11:51 GMT+0200 (Mitteleuropäische Sommerzeit)","3","39","0","1728718138256"
"958","f","SpeechGestureMatch","../RequiredFiles/videos/NeinDaumenrunter_m_no_gesture.mp4","Ist der Ball in der blauen Box?","Green","Blue","F","negation","na","speech","no","na","male","gesture-speech","1440","960","edge-chromium","60.22","Windows 10","20","female","right","Sat Oct 12 2024 09:11:57 GMT+0200 (Mitteleuropäische Sommerzeit)","3","40","0","1728718138256"
"1071","f","SpeechGestureMatch","../RequiredFiles/videos/NeinDaumenhoch_m.mp4","Ist der Ball in der grünen Box?","Blue","Green","F","negation","mismatch","speech","no","ThumbUp","male","gesture-speech","1440","960","edge-chromium","60.22","Windows 10","20","female","right","Sat Oct 12 2024 09:12:04 GMT+0200 (Mitteleuropäische Sommerzeit)","3","41","0","1728718138256"
"943","f","SpeechGestureMatch","../RequiredFiles/videos/JaDaumenrunter_m_no_gesture.mp4","Ist der Ball in der blauen Box?","Blue","Green","F","affirmation","na","speech","yes","na","male","gesture-speech","1440","960","edge-chromium","60.22","Windows 10","20","female","right","Sat Oct 12 2024 09:12:10 GMT+0200 (Mitteleuropäische Sommerzeit)","3","42","0","1728718138256"
"949","f","SpeechGestureMatch","../RequiredFiles/videos/JaDaumenrunter_m.mp4","Ist der Ball in der grünen Box?","Green","Blue","F","affirmation","mismatch","speech","yes","ThumbDown","male","gesture-speech","1440","960","edge-chromium","60.22","Windows 10","20","female","right","Sat Oct 12 2024 09:12:17 GMT+0200 (Mitteleuropäische Sommerzeit)","3","43","0","1728718138256"
"1033","f","SpeechGestureMatch","../RequiredFiles/videos/NeinDaumenhoch_m_no_gesture.mp4","Ist der Ball in der grünen Box?","Blue","Green","F","negation","na","speech","no","na","male","gesture-speech","1440","960","edge-chromium","60.22","Windows 10","20","female","right","Sat Oct 12 2024 09:12:23 GMT+0200 (Mitteleuropäische Sommerzeit)","3","44","0","1728718138256"
"957","j","SpeechGestureMatch","../RequiredFiles/videos/NeinDaumenrunter_m_no_gesture.mp4","Ist der Ball in der grünen Box?","Green","Blue","J","negation","na","speech","no","na","male","gesture-speech","1440","960","edge-chromium","60.22","Windows 10","20","female","right","Sat Oct 12 2024 09:12:30 GMT+0200 (Mitteleuropäische Sommerzeit)","3","45","0","1728718138256"
"875","f","SpeechGestureMatch","../RequiredFiles/videos/JaDaumenhoch_f.mp4","Ist der Ball in der blauen Box?","Blue","Green","F","affirmation","match","speech","yes","ThumbUp","female","gesture-speech","1440","960","edge-chromium","60.22","Windows 10","20","female","right","Sat Oct 12 2024 09:12:36 GMT+0200 (Mitteleuropäische Sommerzeit)","3","46","0","1728718138256"
"946","f","SpeechGestureMatch","../RequiredFiles/videos/JaDaumenrunter_m_no_gesture.mp4","Ist der Ball in der grünen Box?","Green","Blue","F","affirmation","na","speech","yes","na","male","gesture-speech","1440","960","edge-chromium","60.22","Windows 10","20","female","right","Sat Oct 12 2024 09:12:43 GMT+0200 (Mitteleuropäische Sommerzeit)","3","47","0","1728718138256"
"902","f","SpeechGestureMatch","../RequiredFiles/videos/NeinDaumenhoch_f.mp4","Ist der Ball in der blauen Box?","Green","Blue","F","negation","mismatch","speech","no","ThumbUp","female","gesture-speech","1440","960","edge-chromium","60.22","Windows 10","20","female","right","Sat Oct 12 2024 09:12:49 GMT+0200 (Mitteleuropäische Sommerzeit)","3","48","0","1728718138256"
"893","j","SpeechGestureMatch","../RequiredFiles/videos/JaDaumenhoch_f_no_gesture.mp4","Ist der Ball in der grünen Box?","Blue","Green","J","affirmation","na","speech","yes","na","female","gesture-speech","1440","960","edge-chromium","60.22","Windows 10","20","female","right","Sat Oct 12 2024 09:12:56 GMT+0200 (Mitteleuropäische Sommerzeit)","3","49","0","1728718138256"
"937","f","SpeechGestureMatch","../RequiredFiles/videos/NeinDaumenrunter_m.mp4","Ist der Ball in der grünen Box?","Blue","Green","F","negation","match","speech","no","ThumbDown","male","gesture-speech","1440","960","edge-chromium","60.22","Windows 10","20","female","right","Sat Oct 12 2024 09:13:02 GMT+0200 (Mitteleuropäische Sommerzeit)","3","50","0","1728718138256"
"848","f","SpeechGestureMatch","../RequiredFiles/videos/JaDaumenhoch_f.mp4","Ist der Ball in der grünen Box?","Green","Blue","F","affirmation","match","speech","yes","ThumbUp","female","gesture-speech","1440","960","edge-chromium","60.22","Windows 10","20","female","right","Sat Oct 12 2024 09:13:09 GMT+0200 (Mitteleuropäische Sommerzeit)","3","51","0","1728718138256"
"971","j","SpeechGestureMatch","../RequiredFiles/videos/NeinDaumenrunter_m.mp4","Ist der Ball in der blauen Box?","Blue","Green","J","negation","match","speech","no","ThumbDown","male","gesture-speech","1440","960","edge-chromium","60.22","Windows 10","20","female","right","Sat Oct 12 2024 09:13:15 GMT+0200 (Mitteleuropäische Sommerzeit)","3","52","0","1728718138256"
"946","j","SpeechGestureMatch","../RequiredFiles/videos/JaDaumenrunter_f_no_gesture.mp4","Ist der Ball in der grünen Box?","Blue","Green","J","affirmation","na","speech","yes","na","female","gesture-speech","1440","960","edge-chromium","60.22","Windows 10","20","female","right","Sat Oct 12 2024 09:13:22 GMT+0200 (Mitteleuropäische Sommerzeit)","3","53","0","1728718138256"
"957","j","SpeechGestureMatch","../RequiredFiles/videos/JaDaumenrunter_f.mp4","Ist der Ball in der blauen Box?","Green","Blue","J","affirmation","mismatch","speech","yes","ThumbDown","female","gesture-speech","1440","960","edge-chromium","60.22","Windows 10","20","female","right","Sat Oct 12 2024 09:13:28 GMT+0200 (Mitteleuropäische Sommerzeit)","3","54","0","1728718138256"
"1070","f","SpeechGestureMatch","../RequiredFiles/videos/NeinDaumenhoch_f.mp4","Ist der Ball in der grünen Box?","Blue","Green","F","negation","mismatch","speech","no","ThumbUp","female","gesture-speech","1440","960","edge-chromium","60.22","Windows 10","20","female","right","Sat Oct 12 2024 09:13:35 GMT+0200 (Mitteleuropäische Sommerzeit)","3","55","0","1728718138256"
"907","j","SpeechGestureMatch","../RequiredFiles/videos/JaDaumenhoch_m_no_gesture.mp4","Ist der Ball in der blauen Box?","Green","Blue","J","affirmation","na","speech","yes","na","male","gesture-speech","1440","960","edge-chromium","60.22","Windows 10","20","female","right","Sat Oct 12 2024 09:13:41 GMT+0200 (Mitteleuropäische Sommerzeit)","3","56","0","1728718138256"
"1008","f","SpeechGestureMatch","../RequiredFiles/videos/NeinDaumenhoch_f_no_gesture.mp4","Ist der Ball in der grünen Box?","Blue","Green","F","negation","na","speech","no","na","female","gesture-speech","1440","960","edge-chromium","60.22","Windows 10","20","female","right","Sat Oct 12 2024 09:13:48 GMT+0200 (Mitteleuropäische Sommerzeit)","3","57","0","1728718138256"
"937","f","SpeechGestureMatch","../RequiredFiles/videos/NeinDaumenrunter_m_no_gesture.mp4","Ist der Ball in der grünen Box?","Blue","Green","F","negation","na","speech","no","na","male","gesture-speech","1440","960","edge-chromium","60.22","Windows 10","20","female","right","Sat Oct 12 2024 09:13:54 GMT+0200 (Mitteleuropäische Sommerzeit)","3","58","0","1728718138256"
"1043","f","SpeechGestureMatch","../RequiredFiles/videos/NeinDaumenhoch_m.mp4","Ist der Ball in der grünen Box?","Blue","Green","F","negation","mismatch","speech","no","ThumbUp","male","gesture-speech","1440","960","edge-chromium","60.22","Windows 10","20","female","right","Sat Oct 12 2024 09:14:01 GMT+0200 (Mitteleuropäische Sommerzeit)","3","59","0","1728718138256"
"965","f","SpeechGestureMatch","../RequiredFiles/videos/NeinDaumenhoch_m.mp4","Ist der Ball in der blauen Box?","Green","Blue","F","negation","mismatch","speech","no","ThumbUp","male","gesture-speech","1440","960","edge-chromium","60.22","Windows 10","20","female","right","Sat Oct 12 2024 09:14:07 GMT+0200 (Mitteleuropäische Sommerzeit)","3","60","0","1728718138256"
"958","j","SpeechGestureMatch","../RequiredFiles/videos/NeinDaumenhoch_f.mp4","Ist der Ball in der grünen Box?","Green","Blue","J","negation","mismatch","speech","no","ThumbUp","female","gesture-speech","1440","960","edge-chromium","60.22","Windows 10","20","female","right","Sat Oct 12 2024 09:14:14 GMT+0200 (Mitteleuropäische Sommerzeit)","3","61","0","1728718138256"
"937","j","SpeechGestureMatch","../RequiredFiles/videos/JaDaumenrunter_m_no_gesture.mp4","Ist der Ball in der grünen Box?","Blue","Green","J","affirmation","na","speech","yes","na","male","gesture-speech","1440","960","edge-chromium","60.22","Windows 10","20","female","right","Sat Oct 12 2024 09:14:20 GMT+0200 (Mitteleuropäische Sommerzeit)","3","62","0","1728718138256"
"945","j","SpeechGestureMatch","../RequiredFiles/videos/NeinDaumenhoch_f_no_gesture.mp4","Ist der Ball in der blauen Box?","Blue","Green","J","negation","na","speech","no","na","female","gesture-speech","1440","960","edge-chromium","60.22","Windows 10","20","female","right","Sat Oct 12 2024 09:14:27 GMT+0200 (Mitteleuropäische Sommerzeit)","3","63","0","1728718138256"
"924","j","SpeechGestureMatch","../RequiredFiles/videos/JaDaumenhoch_m.mp4","Ist der Ball in der grünen Box?","Blue","Green","J","affirmation","match","speech","yes","ThumbUp","male","gesture-speech","1440","960","edge-chromium","60.22","Windows 10","20","female","right","Sat Oct 12 2024 09:14:33 GMT+0200 (Mitteleuropäische Sommerzeit)","3","64","0","1728718138256"
"886","f","SpeechGestureMatch","../RequiredFiles/videos/JaDaumenhoch_f_no_gesture.mp4","Ist der Ball in der blauen Box?","Blue","Green","F","affirmation","na","speech","yes","na","female","gesture-speech","1440","960","edge-chromium","60.22","Windows 10","20","female","right","Sat Oct 12 2024 09:14:40 GMT+0200 (Mitteleuropäische Sommerzeit)","3","65","0","1728718138256"
"1113","f","SpeechGestureMatch","../RequiredFiles/videos/NeinDaumenrunter_f.mp4","Ist der Ball in der blauen Box?","Green","Blue","F","negation","match","speech","no","ThumbDown","female","gesture-speech","1440","960","edge-chromium","60.22","Windows 10","20","female","right","Sat Oct 12 2024 09:14:46 GMT+0200 (Mitteleuropäische Sommerzeit)","3","66","0","1728718138256"
"973","j","SpeechGestureMatch","../RequiredFiles/videos/JaDaumenhoch_m_no_gesture.mp4","Ist der Ball in der grünen Box?","Blue","Green","J","affirmation","na","speech","yes","na","male","gesture-speech","1440","960","edge-chromium","60.22","Windows 10","20","female","right","Sat Oct 12 2024 09:14:53 GMT+0200 (Mitteleuropäische Sommerzeit)","3","67","0","1728718138256"
"903","j","SpeechGestureMatch","../RequiredFiles/videos/NeinDaumenhoch_m_no_gesture.mp4","Ist der Ball in der blauen Box?","Blue","Green","J","negation","na","speech","no","na","male","gesture-speech","1440","960","edge-chromium","60.22","Windows 10","20","female","right","Sat Oct 12 2024 09:14:59 GMT+0200 (Mitteleuropäische Sommerzeit)","3","68","0","1728718138256"
"1141","f","SpeechGestureMatch","../RequiredFiles/videos/NeinDaumenrunter_f_no_gesture.mp4","Ist der Ball in der blauen Box?","Green","Blue","F","negation","na","speech","no","na","female","gesture-speech","1440","960","edge-chromium","60.22","Windows 10","20","female","right","Sat Oct 12 2024 09:15:06 GMT+0200 (Mitteleuropäische Sommerzeit)","3","69","0","1728718138256"
"989","j","SpeechGestureMatch","../RequiredFiles/videos/JaDaumenrunter_m.mp4","Ist der Ball in der grünen Box?","Blue","Green","J","affirmation","mismatch","speech","yes","ThumbDown","male","gesture-speech","1440","960","edge-chromium","60.22","Windows 10","20","female","right","Sat Oct 12 2024 09:15:12 GMT+0200 (Mitteleuropäische Sommerzeit)","3","70","0","1728718138256"
"988","j","SpeechGestureMatch","../RequiredFiles/videos/NeinDaumenhoch_m.mp4","Ist der Ball in der grünen Box?","Green","Blue","J","negation","mismatch","speech","no","ThumbUp","male","gesture-speech","1440","960","edge-chromium","60.22","Windows 10","20","female","right","Sat Oct 12 2024 09:15:19 GMT+0200 (Mitteleuropäische Sommerzeit)","3","71","0","1728718138256"
"970","f","SpeechGestureMatch","../RequiredFiles/videos/JaDaumenhoch_m.mp4","Ist der Ball in der blauen Box?","Blue","Green","F","affirmation","match","speech","yes","ThumbUp","male","gesture-speech","1440","960","edge-chromium","60.22","Windows 10","20","female","right","Sat Oct 12 2024 09:15:25 GMT+0200 (Mitteleuropäische Sommerzeit)","3","72","0","1728718138256"
"921","f","SpeechGestureMatch","../RequiredFiles/videos/JaDaumenhoch_m.mp4","Ist der Ball in der grünen Box?","Green","Blue","F","affirmation","match","speech","yes","ThumbUp","male","gesture-speech","1440","960","edge-chromium","60.22","Windows 10","20","female","right","Sat Oct 12 2024 09:15:32 GMT+0200 (Mitteleuropäische Sommerzeit)","3","73","0","1728718138256"
"954","j","SpeechGestureMatch","../RequiredFiles/videos/JaDaumenrunter_f.mp4","Ist der Ball in der grünen Box?","Blue","Green","J","affirmation","mismatch","speech","yes","ThumbDown","female","gesture-speech","1440","960","edge-chromium","60.22","Windows 10","20","female","right","Sat Oct 12 2024 09:15:38 GMT+0200 (Mitteleuropäische Sommerzeit)","3","74","0","1728718138256"
