"rt","response","stim","video","question","box_colour_left","box_colour_right","correct_key","polarity","matching","modality","verbal","gesture","speaker","order","width","height","browser","vsync_rate","os","age","gender","handedness","date","blockNum","trialNum","error","vpNum"
"1012","f","SpeechGestureMatch","../RequiredFiles/videos/JaKopfNein_f.mp4","Ist der Ball in der blauen Box?","Green","Blue","F","negation","mismatch","gesture","yes","HeadShake","female","gesture-speech","1280","720","edge-chromium","60.65","Windows 10","21","female","right","Tue Oct 22 2024 16:37:23 GMT+0200 (Mitteleuropäische Sommerzeit)","1","1","0","1729610588169"
"892","j","SpeechGestureMatch","../RequiredFiles/videos/NeinKopfJa_f.mp4","Ist der Ball in der blauen Box?","Green","Blue","J","affirmation","mismatch","gesture","no","HeadNod","female","gesture-speech","1280","720","edge-chromium","60.65","Windows 10","21","female","right","Tue Oct 22 2024 16:37:29 GMT+0200 (Mitteleuropäische Sommerzeit)","1","2","0","1729610588169"
"766","j","SpeechGestureMatch","../RequiredFiles/videos/NeinKopfJa_f.mp4","Ist der Ball in der grünen Box?","Blue","Green","J","affirmation","mismatch","gesture","no","HeadNod","female","gesture-speech","1280","720","edge-chromium","60.65","Windows 10","21","female","right","Tue Oct 22 2024 16:37:36 GMT+0200 (Mitteleuropäische Sommerzeit)","1","3","0","1729610588169"
"888","f","SpeechGestureMatch","../RequiredFiles/videos/JaKopfNein_m_no_sound.mp4","Ist der Ball in der blauen Box?","Green","Blue","F","negation","na","gesture","na","HeadShake","male","gesture-speech","1280","720","edge-chromium","60.65","Windows 10","21","female","right","Tue Oct 22 2024 16:37:42 GMT+0200 (Mitteleuropäische Sommerzeit)","1","4","0","1729610588169"
"1169","j","SpeechGestureMatch","../RequiredFiles/videos/JaKopfNein_f.mp4","Ist der Ball in der blauen Box?","Blue","Green","J","negation","mismatch","gesture","yes","HeadShake","female","gesture-speech","1280","720","edge-chromium","60.65","Windows 10","21","female","right","Tue Oct 22 2024 16:37:49 GMT+0200 (Mitteleuropäische Sommerzeit)","1","5","0","1729610588169"
"845","j","SpeechGestureMatch","../RequiredFiles/videos/JaKopfJa_m.mp4","Ist der Ball in der blauen Box?","Green","Blue","J","affirmation","match","gesture","yes","HeadNod","male","gesture-speech","1280","720","edge-chromium","60.65","Windows 10","21","female","right","Tue Oct 22 2024 16:37:55 GMT+0200 (Mitteleuropäische Sommerzeit)","1","6","0","1729610588169"
"665","j","SpeechGestureMatch","../RequiredFiles/videos/JaKopfJa_f_no_sound.mp4","Ist der Ball in der blauen Box?","Green","Blue","J","affirmation","na","gesture","na","HeadNod","female","gesture-speech","1280","720","edge-chromium","60.65","Windows 10","21","female","right","Tue Oct 22 2024 16:38:01 GMT+0200 (Mitteleuropäische Sommerzeit)","1","7","0","1729610588169"
"837","j","SpeechGestureMatch","../RequiredFiles/videos/NeinKopfJa_m_no_sound.mp4","Ist der Ball in der blauen Box?","Blue","Green","F","affirmation","na","gesture","na","HeadNod","male","gesture-speech","1280","720","edge-chromium","60.65","Windows 10","21","female","right","Tue Oct 22 2024 16:38:08 GMT+0200 (Mitteleuropäische Sommerzeit)","1","8","1","1729610588169"
"1485","f","SpeechGestureMatch","../RequiredFiles/videos/NeinKopfNein_f.mp4","Ist der Ball in der grünen Box?","Blue","Green","F","negation","match","gesture","no","HeadShake","female","gesture-speech","1280","720","edge-chromium","60.65","Windows 10","21","female","right","Tue Oct 22 2024 16:38:15 GMT+0200 (Mitteleuropäische Sommerzeit)","1","9","0","1729610588169"
"1071","j","SpeechGestureMatch","../RequiredFiles/videos/NeinKopfJa_m_no_sound.mp4","Ist der Ball in der grünen Box?","Blue","Green","J","affirmation","na","gesture","na","HeadNod","male","gesture-speech","1280","720","edge-chromium","60.65","Windows 10","21","female","right","Tue Oct 22 2024 16:38:21 GMT+0200 (Mitteleuropäische Sommerzeit)","1","10","0","1729610588169"
"970","f","SpeechGestureMatch","../RequiredFiles/videos/NeinKopfJa_f.mp4","Ist der Ball in der grünen Box?","Green","Blue","F","affirmation","mismatch","gesture","no","HeadNod","female","gesture-speech","1280","720","edge-chromium","60.65","Windows 10","21","female","right","Tue Oct 22 2024 16:38:28 GMT+0200 (Mitteleuropäische Sommerzeit)","1","11","0","1729610588169"
"755","j","SpeechGestureMatch","../RequiredFiles/videos/NeinKopfJa_f_no_sound.mp4","Ist der Ball in der blauen Box?","Green","Blue","J","affirmation","na","gesture","na","HeadNod","female","gesture-speech","1280","720","edge-chromium","60.65","Windows 10","21","female","right","Tue Oct 22 2024 16:38:34 GMT+0200 (Mitteleuropäische Sommerzeit)","1","12","0","1729610588169"
"922","f","SpeechGestureMatch","../RequiredFiles/videos/JaKopfJa_m.mp4","Ist der Ball in der blauen Box?","Blue","Green","F","affirmation","match","gesture","yes","HeadNod","male","gesture-speech","1280","720","edge-chromium","60.65","Windows 10","21","female","right","Tue Oct 22 2024 16:38:41 GMT+0200 (Mitteleuropäische Sommerzeit)","1","13","0","1729610588169"
"865","j","SpeechGestureMatch","../RequiredFiles/videos/NeinKopfJa_f.mp4","Ist der Ball in der grünen Box?","Blue","Green","J","affirmation","mismatch","gesture","no","HeadNod","female","gesture-speech","1280","720","edge-chromium","60.65","Windows 10","21","female","right","Tue Oct 22 2024 16:38:47 GMT+0200 (Mitteleuropäische Sommerzeit)","1","14","0","1729610588169"
"779","f","SpeechGestureMatch","../RequiredFiles/videos/NeinKopfNein_m.mp4","Ist der Ball in der blauen Box?","Green","Blue","F","negation","match","gesture","no","HeadShake","male","gesture-speech","1280","720","edge-chromium","60.65","Windows 10","21","female","right","Tue Oct 22 2024 16:38:53 GMT+0200 (Mitteleuropäische Sommerzeit)","1","15","0","1729610588169"
"727","f","SpeechGestureMatch","../RequiredFiles/videos/NeinKopfJa_f.mp4","Ist der Ball in der blauen Box?","Blue","Green","F","affirmation","mismatch","gesture","no","HeadNod","female","gesture-speech","1280","720","edge-chromium","60.65","Windows 10","21","female","right","Tue Oct 22 2024 16:39:00 GMT+0200 (Mitteleuropäische Sommerzeit)","1","16","0","1729610588169"
"723","j","SpeechGestureMatch","../RequiredFiles/videos/NeinKopfNein_m.mp4","Ist der Ball in der blauen Box?","Blue","Green","J","negation","match","gesture","no","HeadShake","male","gesture-speech","1280","720","edge-chromium","60.65","Windows 10","21","female","right","Tue Oct 22 2024 16:39:06 GMT+0200 (Mitteleuropäische Sommerzeit)","1","17","0","1729610588169"
"1019","f","SpeechGestureMatch","../RequiredFiles/videos/NeinKopfNein_m_no_sound.mp4","Ist der Ball in der grünen Box?","Blue","Green","F","negation","na","gesture","na","HeadShake","male","gesture-speech","1280","720","edge-chromium","60.65","Windows 10","21","female","right","Tue Oct 22 2024 16:39:12 GMT+0200 (Mitteleuropäische Sommerzeit)","1","18","0","1729610588169"
"880","j","SpeechGestureMatch","../RequiredFiles/videos/JaKopfJa_f.mp4","Ist der Ball in der blauen Box?","Green","Blue","J","affirmation","match","gesture","yes","HeadNod","female","gesture-speech","1280","720","edge-chromium","60.65","Windows 10","21","female","right","Tue Oct 22 2024 16:39:19 GMT+0200 (Mitteleuropäische Sommerzeit)","1","19","0","1729610588169"
"1627","f","SpeechGestureMatch","../RequiredFiles/videos/JaKopfJa_f.mp4","Ist der Ball in der blauen Box?","Blue","Green","F","affirmation","match","gesture","yes","HeadNod","female","gesture-speech","1280","720","edge-chromium","60.65","Windows 10","21","female","right","Tue Oct 22 2024 16:39:26 GMT+0200 (Mitteleuropäische Sommerzeit)","1","20","0","1729610588169"
"1061","j","SpeechGestureMatch","../RequiredFiles/videos/NeinKopfNein_m.mp4","Ist der Ball in der grünen Box?","Blue","Green","F","negation","match","gesture","no","HeadShake","male","gesture-speech","1280","720","edge-chromium","60.65","Windows 10","21","female","right","Tue Oct 22 2024 16:39:33 GMT+0200 (Mitteleuropäische Sommerzeit)","1","21","1","1729610588169"
"969","j","SpeechGestureMatch","../RequiredFiles/videos/JaKopfJa_f.mp4","Ist der Ball in der grünen Box?","Blue","Green","J","affirmation","match","gesture","yes","HeadNod","female","gesture-speech","1280","720","edge-chromium","60.65","Windows 10","21","female","right","Tue Oct 22 2024 16:39:39 GMT+0200 (Mitteleuropäische Sommerzeit)","1","22","0","1729610588169"
"785","f","SpeechGestureMatch","../RequiredFiles/videos/JaKopfJa_m.mp4","Ist der Ball in der grünen Box?","Green","Blue","F","affirmation","match","gesture","yes","HeadNod","male","gesture-speech","1280","720","edge-chromium","60.65","Windows 10","21","female","right","Tue Oct 22 2024 16:39:46 GMT+0200 (Mitteleuropäische Sommerzeit)","1","23","0","1729610588169"
"1901","j","SpeechGestureMatch","../RequiredFiles/videos/NeinKopfNein_m_no_sound.mp4","Ist der Ball in der blauen Box?","Blue","Green","J","negation","na","gesture","na","HeadShake","male","gesture-speech","1280","720","edge-chromium","60.65","Windows 10","21","female","right","Tue Oct 22 2024 16:39:53 GMT+0200 (Mitteleuropäische Sommerzeit)","1","24","0","1729610588169"
"1335","j","SpeechGestureMatch","../RequiredFiles/videos/JaKopfNein_f.mp4","Ist der Ball in der blauen Box?","Blue","Green","J","negation","mismatch","gesture","yes","HeadShake","female","gesture-speech","1280","720","edge-chromium","60.65","Windows 10","21","female","right","Tue Oct 22 2024 16:40:00 GMT+0200 (Mitteleuropäische Sommerzeit)","1","25","0","1729610588169"
"940","f","SpeechGestureMatch","../RequiredFiles/videos/JaKopfNein_f_no_sound.mp4","Ist der Ball in der grünen Box?","Blue","Green","F","negation","na","gesture","na","HeadShake","female","gesture-speech","1280","720","edge-chromium","60.65","Windows 10","21","female","right","Tue Oct 22 2024 16:40:06 GMT+0200 (Mitteleuropäische Sommerzeit)","1","26","0","1729610588169"
"1327","f","SpeechGestureMatch","../RequiredFiles/videos/NeinKopfJa_m.mp4","Ist der Ball in der grünen Box?","Green","Blue","F","affirmation","mismatch","gesture","no","HeadNod","male","gesture-speech","1280","720","edge-chromium","60.65","Windows 10","21","female","right","Tue Oct 22 2024 16:40:13 GMT+0200 (Mitteleuropäische Sommerzeit)","1","27","0","1729610588169"
"1682","f","SpeechGestureMatch","../RequiredFiles/videos/NeinKopfNein_m_no_sound.mp4","Ist der Ball in der blauen Box?","Green","Blue","F","negation","na","gesture","na","HeadShake","male","gesture-speech","1280","720","edge-chromium","60.65","Windows 10","21","female","right","Tue Oct 22 2024 16:40:20 GMT+0200 (Mitteleuropäische Sommerzeit)","1","28","0","1729610588169"
"1455","j","SpeechGestureMatch","../RequiredFiles/videos/NeinKopfNein_m.mp4","Ist der Ball in der grünen Box?","Green","Blue","J","negation","match","gesture","no","HeadShake","male","gesture-speech","1280","720","edge-chromium","60.65","Windows 10","21","female","right","Tue Oct 22 2024 16:40:27 GMT+0200 (Mitteleuropäische Sommerzeit)","1","29","0","1729610588169"
"869","j","SpeechGestureMatch","../RequiredFiles/videos/JaKopfNein_f.mp4","Ist der Ball in der grünen Box?","Green","Blue","J","negation","mismatch","gesture","yes","HeadShake","female","gesture-speech","1280","720","edge-chromium","60.65","Windows 10","21","female","right","Tue Oct 22 2024 16:40:34 GMT+0200 (Mitteleuropäische Sommerzeit)","1","30","0","1729610588169"
"881","j","SpeechGestureMatch","../RequiredFiles/videos/JaKopfNein_f_no_sound.mp4","Ist der Ball in der blauen Box?","Blue","Green","J","negation","na","gesture","na","HeadShake","female","gesture-speech","1280","720","edge-chromium","60.65","Windows 10","21","female","right","Tue Oct 22 2024 16:40:40 GMT+0200 (Mitteleuropäische Sommerzeit)","1","31","0","1729610588169"
"797","j","SpeechGestureMatch","../RequiredFiles/videos/NeinKopfNein_m_no_sound.mp4","Ist der Ball in der grünen Box?","Green","Blue","J","negation","na","gesture","na","HeadShake","male","gesture-speech","1280","720","edge-chromium","60.65","Windows 10","21","female","right","Tue Oct 22 2024 16:40:47 GMT+0200 (Mitteleuropäische Sommerzeit)","1","32","0","1729610588169"
"990","f","SpeechGestureMatch","../RequiredFiles/videos/JaKopfJa_f.mp4","Ist der Ball in der blauen Box?","Blue","Green","F","affirmation","match","gesture","yes","HeadNod","female","gesture-speech","1280","720","edge-chromium","60.65","Windows 10","21","female","right","Tue Oct 22 2024 16:40:53 GMT+0200 (Mitteleuropäische Sommerzeit)","1","33","0","1729610588169"
"910","j","SpeechGestureMatch","../RequiredFiles/videos/JaKopfJa_m.mp4","Ist der Ball in der blauen Box?","Green","Blue","J","affirmation","match","gesture","yes","HeadNod","male","gesture-speech","1280","720","edge-chromium","60.65","Windows 10","21","female","right","Tue Oct 22 2024 16:41:00 GMT+0200 (Mitteleuropäische Sommerzeit)","1","34","0","1729610588169"
"953","f","SpeechGestureMatch","../RequiredFiles/videos/NeinKopfJa_f.mp4","Ist der Ball in der blauen Box?","Blue","Green","F","affirmation","mismatch","gesture","no","HeadNod","female","gesture-speech","1280","720","edge-chromium","60.65","Windows 10","21","female","right","Tue Oct 22 2024 16:41:06 GMT+0200 (Mitteleuropäische Sommerzeit)","1","35","0","1729610588169"
"697","j","SpeechGestureMatch","../RequiredFiles/videos/JaKopfJa_m.mp4","Ist der Ball in der grünen Box?","Blue","Green","J","affirmation","match","gesture","yes","HeadNod","male","gesture-speech","1280","720","edge-chromium","60.65","Windows 10","21","female","right","Tue Oct 22 2024 16:41:12 GMT+0200 (Mitteleuropäische Sommerzeit)","1","36","0","1729610588169"
"952","j","SpeechGestureMatch","../RequiredFiles/videos/NeinKopfNein_f.mp4","Ist der Ball in der grünen Box?","Green","Blue","J","negation","match","gesture","no","HeadShake","female","gesture-speech","1280","720","edge-chromium","60.65","Windows 10","21","female","right","Tue Oct 22 2024 16:41:19 GMT+0200 (Mitteleuropäische Sommerzeit)","1","37","0","1729610588169"
"871","j","SpeechGestureMatch","../RequiredFiles/videos/NeinKopfJa_m.mp4","Ist der Ball in der blauen Box?","Green","Blue","J","affirmation","mismatch","gesture","no","HeadNod","male","gesture-speech","1280","720","edge-chromium","60.65","Windows 10","21","female","right","Tue Oct 22 2024 16:41:25 GMT+0200 (Mitteleuropäische Sommerzeit)","1","38","0","1729610588169"
"1030","j","SpeechGestureMatch","../RequiredFiles/videos/NeinKopfJa_f_no_sound.mp4","Ist der Ball in der grünen Box?","Blue","Green","J","affirmation","na","gesture","na","HeadNod","female","gesture-speech","1280","720","edge-chromium","60.65","Windows 10","21","female","right","Tue Oct 22 2024 16:41:32 GMT+0200 (Mitteleuropäische Sommerzeit)","1","39","0","1729610588169"
"1142","j","SpeechGestureMatch","../RequiredFiles/videos/NeinKopfJa_m.mp4","Ist der Ball in der grünen Box?","Blue","Green","J","affirmation","mismatch","gesture","no","HeadNod","male","gesture-speech","1280","720","edge-chromium","60.65","Windows 10","21","female","right","Tue Oct 22 2024 16:41:38 GMT+0200 (Mitteleuropäische Sommerzeit)","1","40","0","1729610588169"
"1073","f","SpeechGestureMatch","../RequiredFiles/videos/JaKopfJa_m.mp4","Ist der Ball in der blauen Box?","Blue","Green","F","affirmation","match","gesture","yes","HeadNod","male","gesture-speech","1280","720","edge-chromium","60.65","Windows 10","21","female","right","Tue Oct 22 2024 16:41:45 GMT+0200 (Mitteleuropäische Sommerzeit)","1","41","0","1729610588169"
"644","j","SpeechGestureMatch","../RequiredFiles/videos/JaKopfJa_f_no_sound.mp4","Ist der Ball in der grünen Box?","Blue","Green","J","affirmation","na","gesture","na","HeadNod","female","gesture-speech","1280","720","edge-chromium","60.65","Windows 10","21","female","right","Tue Oct 22 2024 16:41:51 GMT+0200 (Mitteleuropäische Sommerzeit)","1","42","0","1729610588169"
"1126","f","SpeechGestureMatch","../RequiredFiles/videos/NeinKopfNein_f.mp4","Ist der Ball in der blauen Box?","Green","Blue","F","negation","match","gesture","no","HeadShake","female","gesture-speech","1280","720","edge-chromium","60.65","Windows 10","21","female","right","Tue Oct 22 2024 16:41:58 GMT+0200 (Mitteleuropäische Sommerzeit)","1","43","0","1729610588169"
"1099","j","SpeechGestureMatch","../RequiredFiles/videos/NeinKopfNein_f_no_sound.mp4","Ist der Ball in der blauen Box?","Blue","Green","J","negation","na","gesture","na","HeadShake","female","gesture-speech","1280","720","edge-chromium","60.65","Windows 10","21","female","right","Tue Oct 22 2024 16:42:04 GMT+0200 (Mitteleuropäische Sommerzeit)","1","44","0","1729610588169"
"903","j","SpeechGestureMatch","../RequiredFiles/videos/JaKopfNein_f_no_sound.mp4","Ist der Ball in der grünen Box?","Green","Blue","J","negation","na","gesture","na","HeadShake","female","gesture-speech","1280","720","edge-chromium","60.65","Windows 10","21","female","right","Tue Oct 22 2024 16:42:11 GMT+0200 (Mitteleuropäische Sommerzeit)","1","45","0","1729610588169"
"1525","f","SpeechGestureMatch","../RequiredFiles/videos/NeinKopfNein_m.mp4","Ist der Ball in der grünen Box?","Blue","Green","F","negation","match","gesture","no","HeadShake","male","gesture-speech","1280","720","edge-chromium","60.65","Windows 10","21","female","right","Tue Oct 22 2024 16:42:18 GMT+0200 (Mitteleuropäische Sommerzeit)","1","46","0","1729610588169"
"856","f","SpeechGestureMatch","../RequiredFiles/videos/JaKopfJa_m_no_sound.mp4","Ist der Ball in der grünen Box?","Green","Blue","F","affirmation","na","gesture","na","HeadNod","male","gesture-speech","1280","720","edge-chromium","60.65","Windows 10","21","female","right","Tue Oct 22 2024 16:42:24 GMT+0200 (Mitteleuropäische Sommerzeit)","1","47","0","1729610588169"
"805","j","SpeechGestureMatch","../RequiredFiles/videos/JaKopfNein_m_no_sound.mp4","Ist der Ball in der blauen Box?","Blue","Green","J","negation","na","gesture","na","HeadShake","male","gesture-speech","1280","720","edge-chromium","60.65","Windows 10","21","female","right","Tue Oct 22 2024 16:42:31 GMT+0200 (Mitteleuropäische Sommerzeit)","1","48","0","1729610588169"
"2641","j","SpeechGestureMatch","../RequiredFiles/videos/JaKopfNein_m.mp4","Ist der Ball in der grünen Box?","Blue","Green","F","negation","mismatch","gesture","yes","HeadShake","male","gesture-speech","1280","720","edge-chromium","60.65","Windows 10","21","female","right","Tue Oct 22 2024 16:42:39 GMT+0200 (Mitteleuropäische Sommerzeit)","1","49","1","1729610588169"
"1747","j","SpeechGestureMatch","../RequiredFiles/videos/NeinKopfNein_m.mp4","Ist der Ball in der blauen Box?","Blue","Green","J","negation","match","gesture","no","HeadShake","male","gesture-speech","1280","720","edge-chromium","60.65","Windows 10","21","female","right","Tue Oct 22 2024 16:42:46 GMT+0200 (Mitteleuropäische Sommerzeit)","1","50","0","1729610588169"
"851","f","SpeechGestureMatch","../RequiredFiles/videos/JaKopfJa_f_no_sound.mp4","Ist der Ball in der blauen Box?","Blue","Green","F","affirmation","na","gesture","na","HeadNod","female","gesture-speech","1280","720","edge-chromium","60.65","Windows 10","21","female","right","Tue Oct 22 2024 16:42:53 GMT+0200 (Mitteleuropäische Sommerzeit)","1","51","0","1729610588169"
"981","j","SpeechGestureMatch","../RequiredFiles/videos/JaKopfNein_m.mp4","Ist der Ball in der blauen Box?","Blue","Green","J","negation","mismatch","gesture","yes","HeadShake","male","gesture-speech","1280","720","edge-chromium","60.65","Windows 10","21","female","right","Tue Oct 22 2024 16:42:59 GMT+0200 (Mitteleuropäische Sommerzeit)","1","52","0","1729610588169"
"831","j","SpeechGestureMatch","../RequiredFiles/videos/NeinKopfNein_m.mp4","Ist der Ball in der grünen Box?","Green","Blue","J","negation","match","gesture","no","HeadShake","male","gesture-speech","1280","720","edge-chromium","60.65","Windows 10","21","female","right","Tue Oct 22 2024 16:43:06 GMT+0200 (Mitteleuropäische Sommerzeit)","1","53","0","1729610588169"
"932","j","SpeechGestureMatch","../RequiredFiles/videos/NeinKopfJa_f.mp4","Ist der Ball in der blauen Box?","Green","Blue","J","affirmation","mismatch","gesture","no","HeadNod","female","gesture-speech","1280","720","edge-chromium","60.65","Windows 10","21","female","right","Tue Oct 22 2024 16:43:12 GMT+0200 (Mitteleuropäische Sommerzeit)","1","54","0","1729610588169"
"715","f","SpeechGestureMatch","../RequiredFiles/videos/NeinKopfJa_f_no_sound.mp4","Ist der Ball in der grünen Box?","Green","Blue","F","affirmation","na","gesture","na","HeadNod","female","gesture-speech","1280","720","edge-chromium","60.65","Windows 10","21","female","right","Tue Oct 22 2024 16:43:18 GMT+0200 (Mitteleuropäische Sommerzeit)","1","55","0","1729610588169"
"1116","f","SpeechGestureMatch","../RequiredFiles/videos/NeinKopfNein_f.mp4","Ist der Ball in der grünen Box?","Blue","Green","F","negation","match","gesture","no","HeadShake","female","gesture-speech","1280","720","edge-chromium","60.65","Windows 10","21","female","right","Tue Oct 22 2024 16:43:25 GMT+0200 (Mitteleuropäische Sommerzeit)","1","56","0","1729610588169"
"731","j","SpeechGestureMatch","../RequiredFiles/videos/JaKopfJa_f.mp4","Ist der Ball in der grünen Box?","Blue","Green","J","affirmation","match","gesture","yes","HeadNod","female","gesture-speech","1280","720","edge-chromium","60.65","Windows 10","21","female","right","Tue Oct 22 2024 16:43:31 GMT+0200 (Mitteleuropäische Sommerzeit)","1","57","0","1729610588169"
"1517","j","SpeechGestureMatch","../RequiredFiles/videos/JaKopfNein_m.mp4","Ist der Ball in der blauen Box?","Blue","Green","J","negation","mismatch","gesture","yes","HeadShake","male","gesture-speech","1280","720","edge-chromium","60.65","Windows 10","21","female","right","Tue Oct 22 2024 16:43:38 GMT+0200 (Mitteleuropäische Sommerzeit)","1","58","0","1729610588169"
"770","f","SpeechGestureMatch","../RequiredFiles/videos/JaKopfNein_m.mp4","Ist der Ball in der blauen Box?","Green","Blue","F","negation","mismatch","gesture","yes","HeadShake","male","gesture-speech","1280","720","edge-chromium","60.65","Windows 10","21","female","right","Tue Oct 22 2024 16:43:45 GMT+0200 (Mitteleuropäische Sommerzeit)","1","59","0","1729610588169"
"769","j","SpeechGestureMatch","../RequiredFiles/videos/JaKopfJa_m_no_sound.mp4","Ist der Ball in der grünen Box?","Blue","Green","J","affirmation","na","gesture","na","HeadNod","male","gesture-speech","1280","720","edge-chromium","60.65","Windows 10","21","female","right","Tue Oct 22 2024 16:43:51 GMT+0200 (Mitteleuropäische Sommerzeit)","1","60","0","1729610588169"
"1112","f","SpeechGestureMatch","../RequiredFiles/videos/NeinKopfJa_f.mp4","Ist der Ball in der grünen Box?","Green","Blue","F","affirmation","mismatch","gesture","no","HeadNod","female","gesture-speech","1280","720","edge-chromium","60.65","Windows 10","21","female","right","Tue Oct 22 2024 16:43:57 GMT+0200 (Mitteleuropäische Sommerzeit)","1","61","0","1729610588169"
"979","j","SpeechGestureMatch","../RequiredFiles/videos/JaKopfNein_m_no_sound.mp4","Ist der Ball in der grünen Box?","Green","Blue","J","negation","na","gesture","na","HeadShake","male","gesture-speech","1280","720","edge-chromium","60.65","Windows 10","21","female","right","Tue Oct 22 2024 16:44:04 GMT+0200 (Mitteleuropäische Sommerzeit)","1","62","0","1729610588169"
"1132","f","SpeechGestureMatch","../RequiredFiles/videos/NeinKopfJa_m.mp4","Ist der Ball in der blauen Box?","Blue","Green","F","affirmation","mismatch","gesture","no","HeadNod","male","gesture-speech","1280","720","edge-chromium","60.65","Windows 10","21","female","right","Tue Oct 22 2024 16:44:11 GMT+0200 (Mitteleuropäische Sommerzeit)","1","63","0","1729610588169"
"875","j","SpeechGestureMatch","../RequiredFiles/videos/JaKopfJa_m.mp4","Ist der Ball in der grünen Box?","Blue","Green","J","affirmation","match","gesture","yes","HeadNod","male","gesture-speech","1280","720","edge-chromium","60.65","Windows 10","21","female","right","Tue Oct 22 2024 16:44:17 GMT+0200 (Mitteleuropäische Sommerzeit)","1","64","0","1729610588169"
"965","j","SpeechGestureMatch","../RequiredFiles/videos/JaKopfNein_m.mp4","Ist der Ball in der grünen Box?","Green","Blue","J","negation","mismatch","gesture","yes","HeadShake","male","gesture-speech","1280","720","edge-chromium","60.65","Windows 10","21","female","right","Tue Oct 22 2024 16:44:24 GMT+0200 (Mitteleuropäische Sommerzeit)","1","65","0","1729610588169"
"905","f","SpeechGestureMatch","../RequiredFiles/videos/JaKopfJa_m.mp4","Ist der Ball in der grünen Box?","Green","Blue","F","affirmation","match","gesture","yes","HeadNod","male","gesture-speech","1280","720","edge-chromium","60.65","Windows 10","21","female","right","Tue Oct 22 2024 16:44:30 GMT+0200 (Mitteleuropäische Sommerzeit)","1","66","0","1729610588169"
"1279","j","SpeechGestureMatch","../RequiredFiles/videos/JaKopfNein_f.mp4","Ist der Ball in der grünen Box?","Green","Blue","J","negation","mismatch","gesture","yes","HeadShake","female","gesture-speech","1280","720","edge-chromium","60.65","Windows 10","21","female","right","Tue Oct 22 2024 16:44:37 GMT+0200 (Mitteleuropäische Sommerzeit)","1","67","0","1729610588169"
"1107","f","SpeechGestureMatch","../RequiredFiles/videos/JaKopfNein_f.mp4","Ist der Ball in der grünen Box?","Blue","Green","F","negation","mismatch","gesture","yes","HeadShake","female","gesture-speech","1280","720","edge-chromium","60.65","Windows 10","21","female","right","Tue Oct 22 2024 16:44:43 GMT+0200 (Mitteleuropäische Sommerzeit)","1","68","0","1729610588169"
"923","j","SpeechGestureMatch","../RequiredFiles/videos/JaKopfJa_m_no_sound.mp4","Ist der Ball in der blauen Box?","Green","Blue","J","affirmation","na","gesture","na","HeadNod","male","gesture-speech","1280","720","edge-chromium","60.65","Windows 10","21","female","right","Tue Oct 22 2024 16:44:50 GMT+0200 (Mitteleuropäische Sommerzeit)","1","69","0","1729610588169"
"960","f","SpeechGestureMatch","../RequiredFiles/videos/NeinKopfNein_f_no_sound.mp4","Ist der Ball in der grünen Box?","Blue","Green","F","negation","na","gesture","na","HeadShake","female","gesture-speech","1280","720","edge-chromium","60.65","Windows 10","21","female","right","Tue Oct 22 2024 16:44:56 GMT+0200 (Mitteleuropäische Sommerzeit)","1","70","0","1729610588169"
"748","j","SpeechGestureMatch","../RequiredFiles/videos/NeinKopfJa_m_no_sound.mp4","Ist der Ball in der blauen Box?","Green","Blue","J","affirmation","na","gesture","na","HeadNod","male","gesture-speech","1280","720","edge-chromium","60.65","Windows 10","21","female","right","Tue Oct 22 2024 16:45:03 GMT+0200 (Mitteleuropäische Sommerzeit)","1","71","0","1729610588169"
"1056","f","SpeechGestureMatch","../RequiredFiles/videos/JaKopfJa_f.mp4","Ist der Ball in der grünen Box?","Green","Blue","F","affirmation","match","gesture","yes","HeadNod","female","gesture-speech","1280","720","edge-chromium","60.65","Windows 10","21","female","right","Tue Oct 22 2024 16:45:09 GMT+0200 (Mitteleuropäische Sommerzeit)","1","72","0","1729610588169"
"930","f","SpeechGestureMatch","../RequiredFiles/videos/JaKopfNein_f.mp4","Ist der Ball in der blauen Box?","Green","Blue","F","negation","mismatch","gesture","yes","HeadShake","female","gesture-speech","1280","720","edge-chromium","60.65","Windows 10","21","female","right","Tue Oct 22 2024 16:45:16 GMT+0200 (Mitteleuropäische Sommerzeit)","1","73","0","1729610588169"
"1401","j","SpeechGestureMatch","../RequiredFiles/videos/NeinKopfJa_m.mp4","Ist der Ball in der blauen Box?","Green","Blue","J","affirmation","mismatch","gesture","no","HeadNod","male","gesture-speech","1280","720","edge-chromium","60.65","Windows 10","21","female","right","Tue Oct 22 2024 16:45:23 GMT+0200 (Mitteleuropäische Sommerzeit)","1","74","0","1729610588169"
"749","f","SpeechGestureMatch","../RequiredFiles/videos/JaKopfNein_f_no_sound.mp4","Ist der Ball in der blauen Box?","Green","Blue","F","negation","na","gesture","na","HeadShake","female","gesture-speech","1280","720","edge-chromium","60.65","Windows 10","21","female","right","Tue Oct 22 2024 16:45:29 GMT+0200 (Mitteleuropäische Sommerzeit)","1","75","0","1729610588169"
"932","j","SpeechGestureMatch","../RequiredFiles/videos/NeinKopfNein_f_no_sound.mp4","Ist der Ball in der grünen Box?","Green","Blue","J","negation","na","gesture","na","HeadShake","female","gesture-speech","1280","720","edge-chromium","60.65","Windows 10","21","female","right","Tue Oct 22 2024 16:45:36 GMT+0200 (Mitteleuropäische Sommerzeit)","1","76","0","1729610588169"
"1185","f","SpeechGestureMatch","../RequiredFiles/videos/NeinKopfNein_m.mp4","Ist der Ball in der blauen Box?","Green","Blue","F","negation","match","gesture","no","HeadShake","male","gesture-speech","1280","720","edge-chromium","60.65","Windows 10","21","female","right","Tue Oct 22 2024 16:45:42 GMT+0200 (Mitteleuropäische Sommerzeit)","1","77","0","1729610588169"
"1145","j","SpeechGestureMatch","../RequiredFiles/videos/NeinKopfNein_f.mp4","Ist der Ball in der blauen Box?","Blue","Green","J","negation","match","gesture","no","HeadShake","female","gesture-speech","1280","720","edge-chromium","60.65","Windows 10","21","female","right","Tue Oct 22 2024 16:45:49 GMT+0200 (Mitteleuropäische Sommerzeit)","1","78","0","1729610588169"
"1269","f","SpeechGestureMatch","../RequiredFiles/videos/NeinKopfJa_f_no_sound.mp4","Ist der Ball in der blauen Box?","Blue","Green","F","affirmation","na","gesture","na","HeadNod","female","gesture-speech","1280","720","edge-chromium","60.65","Windows 10","21","female","right","Tue Oct 22 2024 16:45:56 GMT+0200 (Mitteleuropäische Sommerzeit)","1","79","0","1729610588169"
"725","f","SpeechGestureMatch","../RequiredFiles/videos/JaKopfJa_m_no_sound.mp4","Ist der Ball in der blauen Box?","Blue","Green","F","affirmation","na","gesture","na","HeadNod","male","gesture-speech","1280","720","edge-chromium","60.65","Windows 10","21","female","right","Tue Oct 22 2024 16:46:02 GMT+0200 (Mitteleuropäische Sommerzeit)","1","80","0","1729610588169"
"912","j","SpeechGestureMatch","../RequiredFiles/videos/JaKopfNein_m_no_sound.mp4","Ist der Ball in der grünen Box?","Blue","Green","F","negation","na","gesture","na","HeadShake","male","gesture-speech","1280","720","edge-chromium","60.65","Windows 10","21","female","right","Tue Oct 22 2024 16:46:08 GMT+0200 (Mitteleuropäische Sommerzeit)","1","81","1","1729610588169"
"1650","j","SpeechGestureMatch","../RequiredFiles/videos/NeinKopfJa_m.mp4","Ist der Ball in der grünen Box?","Blue","Green","J","affirmation","mismatch","gesture","no","HeadNod","male","gesture-speech","1280","720","edge-chromium","60.65","Windows 10","21","female","right","Tue Oct 22 2024 16:46:16 GMT+0200 (Mitteleuropäische Sommerzeit)","1","82","0","1729610588169"
"929","f","SpeechGestureMatch","../RequiredFiles/videos/JaKopfJa_f_no_sound.mp4","Ist der Ball in der grünen Box?","Green","Blue","F","affirmation","na","gesture","na","HeadNod","female","gesture-speech","1280","720","edge-chromium","60.65","Windows 10","21","female","right","Tue Oct 22 2024 16:46:22 GMT+0200 (Mitteleuropäische Sommerzeit)","1","83","0","1729610588169"
"1007","f","SpeechGestureMatch","../RequiredFiles/videos/NeinKopfJa_m_no_sound.mp4","Ist der Ball in der grünen Box?","Green","Blue","F","affirmation","na","gesture","na","HeadNod","male","gesture-speech","1280","720","edge-chromium","60.65","Windows 10","21","female","right","Tue Oct 22 2024 16:46:29 GMT+0200 (Mitteleuropäische Sommerzeit)","1","84","0","1729610588169"
"1451","f","SpeechGestureMatch","../RequiredFiles/videos/JaKopfJa_f.mp4","Ist der Ball in der grünen Box?","Green","Blue","F","affirmation","match","gesture","yes","HeadNod","female","gesture-speech","1280","720","edge-chromium","60.65","Windows 10","21","female","right","Tue Oct 22 2024 16:46:36 GMT+0200 (Mitteleuropäische Sommerzeit)","1","85","0","1729610588169"
"1044","f","SpeechGestureMatch","../RequiredFiles/videos/JaKopfNein_m.mp4","Ist der Ball in der blauen Box?","Green","Blue","F","negation","mismatch","gesture","yes","HeadShake","male","gesture-speech","1280","720","edge-chromium","60.65","Windows 10","21","female","right","Tue Oct 22 2024 16:46:42 GMT+0200 (Mitteleuropäische Sommerzeit)","1","86","0","1729610588169"
"921","j","SpeechGestureMatch","../RequiredFiles/videos/NeinKopfNein_f.mp4","Ist der Ball in der blauen Box?","Blue","Green","J","negation","match","gesture","no","HeadShake","female","gesture-speech","1280","720","edge-chromium","60.65","Windows 10","21","female","right","Tue Oct 22 2024 16:46:49 GMT+0200 (Mitteleuropäische Sommerzeit)","1","87","0","1729610588169"
"1165","f","SpeechGestureMatch","../RequiredFiles/videos/NeinKopfNein_f.mp4","Ist der Ball in der blauen Box?","Green","Blue","F","negation","match","gesture","no","HeadShake","female","gesture-speech","1280","720","edge-chromium","60.65","Windows 10","21","female","right","Tue Oct 22 2024 16:46:55 GMT+0200 (Mitteleuropäische Sommerzeit)","1","88","0","1729610588169"
"1778","f","SpeechGestureMatch","../RequiredFiles/videos/NeinKopfJa_m.mp4","Ist der Ball in der grünen Box?","Green","Blue","F","affirmation","mismatch","gesture","no","HeadNod","male","gesture-speech","1280","720","edge-chromium","60.65","Windows 10","21","female","right","Tue Oct 22 2024 16:47:03 GMT+0200 (Mitteleuropäische Sommerzeit)","1","89","0","1729610588169"
"821","j","SpeechGestureMatch","../RequiredFiles/videos/JaKopfJa_f.mp4","Ist der Ball in der blauen Box?","Green","Blue","J","affirmation","match","gesture","yes","HeadNod","female","gesture-speech","1280","720","edge-chromium","60.65","Windows 10","21","female","right","Tue Oct 22 2024 16:47:09 GMT+0200 (Mitteleuropäische Sommerzeit)","1","90","0","1729610588169"
"1207","f","SpeechGestureMatch","../RequiredFiles/videos/JaKopfNein_m.mp4","Ist der Ball in der grünen Box?","Blue","Green","F","negation","mismatch","gesture","yes","HeadShake","male","gesture-speech","1280","720","edge-chromium","60.65","Windows 10","21","female","right","Tue Oct 22 2024 16:47:16 GMT+0200 (Mitteleuropäische Sommerzeit)","1","91","0","1729610588169"
"1180","f","SpeechGestureMatch","../RequiredFiles/videos/JaKopfNein_f.mp4","Ist der Ball in der grünen Box?","Blue","Green","F","negation","mismatch","gesture","yes","HeadShake","female","gesture-speech","1280","720","edge-chromium","60.65","Windows 10","21","female","right","Tue Oct 22 2024 16:47:23 GMT+0200 (Mitteleuropäische Sommerzeit)","1","92","0","1729610588169"
"1287","f","SpeechGestureMatch","../RequiredFiles/videos/NeinKopfJa_m.mp4","Ist der Ball in der blauen Box?","Blue","Green","F","affirmation","mismatch","gesture","no","HeadNod","male","gesture-speech","1280","720","edge-chromium","60.65","Windows 10","21","female","right","Tue Oct 22 2024 16:47:29 GMT+0200 (Mitteleuropäische Sommerzeit)","1","93","0","1729610588169"
"1328","j","SpeechGestureMatch","../RequiredFiles/videos/JaKopfNein_m.mp4","Ist der Ball in der grünen Box?","Green","Blue","J","negation","mismatch","gesture","yes","HeadShake","male","gesture-speech","1280","720","edge-chromium","60.65","Windows 10","21","female","right","Tue Oct 22 2024 16:47:36 GMT+0200 (Mitteleuropäische Sommerzeit)","1","94","0","1729610588169"
"3049","f","SpeechGestureMatch","../RequiredFiles/videos/NeinKopfNein_f_no_sound.mp4","Ist der Ball in der blauen Box?","Green","Blue","F","negation","na","gesture","na","HeadShake","female","gesture-speech","1280","720","edge-chromium","60.65","Windows 10","21","female","right","Tue Oct 22 2024 16:47:45 GMT+0200 (Mitteleuropäische Sommerzeit)","1","95","0","1729610588169"
"2577","j","SpeechGestureMatch","../RequiredFiles/videos/NeinKopfNein_f.mp4","Ist der Ball in der grünen Box?","Green","Blue","J","negation","match","gesture","no","HeadShake","female","gesture-speech","1280","720","edge-chromium","60.65","Windows 10","21","female","right","Tue Oct 22 2024 16:47:53 GMT+0200 (Mitteleuropäische Sommerzeit)","1","96","0","1729610588169"
"885","f","SpeechGestureMatch","../RequiredFiles/videos/NeinKopfNein_f_no_sound.mp4","Ist der Ball in der blauen Box?","Green","Blue","F","negation","na","gesture","na","HeadShake","female","gesture-speech","1280","720","edge-chromium","60.65","Windows 10","21","female","right","Tue Oct 22 2024 16:49:37 GMT+0200 (Mitteleuropäische Sommerzeit)","2","1","0","1729610588169"
"1060","f","SpeechGestureMatch","../RequiredFiles/videos/NeinKopfNein_m.mp4","Ist der Ball in der grünen Box?","Blue","Green","F","negation","match","gesture","no","HeadShake","male","gesture-speech","1280","720","edge-chromium","60.65","Windows 10","21","female","right","Tue Oct 22 2024 16:49:44 GMT+0200 (Mitteleuropäische Sommerzeit)","2","2","0","1729610588169"
"1221","j","SpeechGestureMatch","../RequiredFiles/videos/JaKopfNein_f.mp4","Ist der Ball in der blauen Box?","Blue","Green","J","negation","mismatch","gesture","yes","HeadShake","female","gesture-speech","1280","720","edge-chromium","60.65","Windows 10","21","female","right","Tue Oct 22 2024 16:49:51 GMT+0200 (Mitteleuropäische Sommerzeit)","2","3","0","1729610588169"
"848","j","SpeechGestureMatch","../RequiredFiles/videos/JaKopfJa_m.mp4","Ist der Ball in der grünen Box?","Blue","Green","J","affirmation","match","gesture","yes","HeadNod","male","gesture-speech","1280","720","edge-chromium","60.65","Windows 10","21","female","right","Tue Oct 22 2024 16:49:57 GMT+0200 (Mitteleuropäische Sommerzeit)","2","4","0","1729610588169"
"941","j","SpeechGestureMatch","../RequiredFiles/videos/NeinKopfNein_f_no_sound.mp4","Ist der Ball in der grünen Box?","Green","Blue","J","negation","na","gesture","na","HeadShake","female","gesture-speech","1280","720","edge-chromium","60.65","Windows 10","21","female","right","Tue Oct 22 2024 16:50:04 GMT+0200 (Mitteleuropäische Sommerzeit)","2","5","0","1729610588169"
"788","j","SpeechGestureMatch","../RequiredFiles/videos/JaKopfJa_m_no_sound.mp4","Ist der Ball in der blauen Box?","Green","Blue","J","affirmation","na","gesture","na","HeadNod","male","gesture-speech","1280","720","edge-chromium","60.65","Windows 10","21","female","right","Tue Oct 22 2024 16:50:10 GMT+0200 (Mitteleuropäische Sommerzeit)","2","6","0","1729610588169"
"1220","j","SpeechGestureMatch","../RequiredFiles/videos/JaKopfJa_m.mp4","Ist der Ball in der grünen Box?","Blue","Green","J","affirmation","match","gesture","yes","HeadNod","male","gesture-speech","1280","720","edge-chromium","60.65","Windows 10","21","female","right","Tue Oct 22 2024 16:50:17 GMT+0200 (Mitteleuropäische Sommerzeit)","2","7","0","1729610588169"
"770","j","SpeechGestureMatch","../RequiredFiles/videos/NeinKopfNein_m.mp4","Ist der Ball in der blauen Box?","Blue","Green","J","negation","match","gesture","no","HeadShake","male","gesture-speech","1280","720","edge-chromium","60.65","Windows 10","21","female","right","Tue Oct 22 2024 16:50:23 GMT+0200 (Mitteleuropäische Sommerzeit)","2","8","0","1729610588169"
"1028","f","SpeechGestureMatch","../RequiredFiles/videos/JaKopfNein_f.mp4","Ist der Ball in der blauen Box?","Green","Blue","F","negation","mismatch","gesture","yes","HeadShake","female","gesture-speech","1280","720","edge-chromium","60.65","Windows 10","21","female","right","Tue Oct 22 2024 16:50:30 GMT+0200 (Mitteleuropäische Sommerzeit)","2","9","0","1729610588169"
"883","j","SpeechGestureMatch","../RequiredFiles/videos/NeinKopfJa_f.mp4","Ist der Ball in der blauen Box?","Green","Blue","J","affirmation","mismatch","gesture","no","HeadNod","female","gesture-speech","1280","720","edge-chromium","60.65","Windows 10","21","female","right","Tue Oct 22 2024 16:50:36 GMT+0200 (Mitteleuropäische Sommerzeit)","2","10","0","1729610588169"
"962","j","SpeechGestureMatch","../RequiredFiles/videos/NeinKopfJa_m.mp4","Ist der Ball in der blauen Box?","Green","Blue","J","affirmation","mismatch","gesture","no","HeadNod","male","gesture-speech","1280","720","edge-chromium","60.65","Windows 10","21","female","right","Tue Oct 22 2024 16:50:43 GMT+0200 (Mitteleuropäische Sommerzeit)","2","11","0","1729610588169"
"861","j","SpeechGestureMatch","../RequiredFiles/videos/NeinKopfNein_f.mp4","Ist der Ball in der grünen Box?","Green","Blue","J","negation","match","gesture","no","HeadShake","female","gesture-speech","1280","720","edge-chromium","60.65","Windows 10","21","female","right","Tue Oct 22 2024 16:50:49 GMT+0200 (Mitteleuropäische Sommerzeit)","2","12","0","1729610588169"
"774","j","SpeechGestureMatch","../RequiredFiles/videos/JaKopfNein_f.mp4","Ist der Ball in der grünen Box?","Green","Blue","J","negation","mismatch","gesture","yes","HeadShake","female","gesture-speech","1280","720","edge-chromium","60.65","Windows 10","21","female","right","Tue Oct 22 2024 16:50:55 GMT+0200 (Mitteleuropäische Sommerzeit)","2","13","0","1729610588169"
"789","f","SpeechGestureMatch","../RequiredFiles/videos/NeinKopfJa_f.mp4","Ist der Ball in der grünen Box?","Green","Blue","F","affirmation","mismatch","gesture","no","HeadNod","female","gesture-speech","1280","720","edge-chromium","60.65","Windows 10","21","female","right","Tue Oct 22 2024 16:51:02 GMT+0200 (Mitteleuropäische Sommerzeit)","2","14","0","1729610588169"
"1049","f","SpeechGestureMatch","../RequiredFiles/videos/NeinKopfNein_f.mp4","Ist der Ball in der blauen Box?","Green","Blue","F","negation","match","gesture","no","HeadShake","female","gesture-speech","1280","720","edge-chromium","60.65","Windows 10","21","female","right","Tue Oct 22 2024 16:51:08 GMT+0200 (Mitteleuropäische Sommerzeit)","2","15","0","1729610588169"
"957","f","SpeechGestureMatch","../RequiredFiles/videos/JaKopfJa_m.mp4","Ist der Ball in der grünen Box?","Green","Blue","F","affirmation","match","gesture","yes","HeadNod","male","gesture-speech","1280","720","edge-chromium","60.65","Windows 10","21","female","right","Tue Oct 22 2024 16:51:15 GMT+0200 (Mitteleuropäische Sommerzeit)","2","16","0","1729610588169"
"807","f","SpeechGestureMatch","../RequiredFiles/videos/NeinKopfNein_f.mp4","Ist der Ball in der grünen Box?","Blue","Green","F","negation","match","gesture","no","HeadShake","female","gesture-speech","1280","720","edge-chromium","60.65","Windows 10","21","female","right","Tue Oct 22 2024 16:51:21 GMT+0200 (Mitteleuropäische Sommerzeit)","2","17","0","1729610588169"
"813","j","SpeechGestureMatch","../RequiredFiles/videos/JaKopfJa_f.mp4","Ist der Ball in der grünen Box?","Blue","Green","J","affirmation","match","gesture","yes","HeadNod","female","gesture-speech","1280","720","edge-chromium","60.65","Windows 10","21","female","right","Tue Oct 22 2024 16:51:27 GMT+0200 (Mitteleuropäische Sommerzeit)","2","18","0","1729610588169"
"1479","j","SpeechGestureMatch","../RequiredFiles/videos/JaKopfNein_m_no_sound.mp4","Ist der Ball in der grünen Box?","Green","Blue","J","negation","na","gesture","na","HeadShake","male","gesture-speech","1280","720","edge-chromium","60.65","Windows 10","21","female","right","Tue Oct 22 2024 16:51:35 GMT+0200 (Mitteleuropäische Sommerzeit)","2","19","0","1729610588169"
"1217","f","SpeechGestureMatch","../RequiredFiles/videos/JaKopfJa_m_no_sound.mp4","Ist der Ball in der blauen Box?","Blue","Green","F","affirmation","na","gesture","na","HeadNod","male","gesture-speech","1280","720","edge-chromium","60.65","Windows 10","21","female","right","Tue Oct 22 2024 16:51:41 GMT+0200 (Mitteleuropäische Sommerzeit)","2","20","0","1729610588169"
"1059","f","SpeechGestureMatch","../RequiredFiles/videos/JaKopfNein_m.mp4","Ist der Ball in der blauen Box?","Green","Blue","F","negation","mismatch","gesture","yes","HeadShake","male","gesture-speech","1280","720","edge-chromium","60.65","Windows 10","21","female","right","Tue Oct 22 2024 16:51:48 GMT+0200 (Mitteleuropäische Sommerzeit)","2","21","0","1729610588169"
"796","f","SpeechGestureMatch","../RequiredFiles/videos/NeinKopfNein_f_no_sound.mp4","Ist der Ball in der grünen Box?","Blue","Green","F","negation","na","gesture","na","HeadShake","female","gesture-speech","1280","720","edge-chromium","60.65","Windows 10","21","female","right","Tue Oct 22 2024 16:51:54 GMT+0200 (Mitteleuropäische Sommerzeit)","2","22","0","1729610588169"
"1113","f","SpeechGestureMatch","../RequiredFiles/videos/JaKopfNein_m.mp4","Ist der Ball in der grünen Box?","Blue","Green","F","negation","mismatch","gesture","yes","HeadShake","male","gesture-speech","1280","720","edge-chromium","60.65","Windows 10","21","female","right","Tue Oct 22 2024 16:52:01 GMT+0200 (Mitteleuropäische Sommerzeit)","2","23","0","1729610588169"
"908","j","SpeechGestureMatch","../RequiredFiles/videos/JaKopfNein_f.mp4","Ist der Ball in der blauen Box?","Blue","Green","J","negation","mismatch","gesture","yes","HeadShake","female","gesture-speech","1280","720","edge-chromium","60.65","Windows 10","21","female","right","Tue Oct 22 2024 16:52:07 GMT+0200 (Mitteleuropäische Sommerzeit)","2","24","0","1729610588169"
"882","j","SpeechGestureMatch","../RequiredFiles/videos/NeinKopfNein_f.mp4","Ist der Ball in der grünen Box?","Green","Blue","J","negation","match","gesture","no","HeadShake","female","gesture-speech","1280","720","edge-chromium","60.65","Windows 10","21","female","right","Tue Oct 22 2024 16:52:14 GMT+0200 (Mitteleuropäische Sommerzeit)","2","25","0","1729610588169"
"858","j","SpeechGestureMatch","../RequiredFiles/videos/JaKopfNein_m.mp4","Ist der Ball in der blauen Box?","Blue","Green","J","negation","mismatch","gesture","yes","HeadShake","male","gesture-speech","1280","720","edge-chromium","60.65","Windows 10","21","female","right","Tue Oct 22 2024 16:52:20 GMT+0200 (Mitteleuropäische Sommerzeit)","2","26","0","1729610588169"
"863","f","SpeechGestureMatch","../RequiredFiles/videos/NeinKopfJa_m.mp4","Ist der Ball in der grünen Box?","Green","Blue","F","affirmation","mismatch","gesture","no","HeadNod","male","gesture-speech","1280","720","edge-chromium","60.65","Windows 10","21","female","right","Tue Oct 22 2024 16:52:27 GMT+0200 (Mitteleuropäische Sommerzeit)","2","27","0","1729610588169"
"838","j","SpeechGestureMatch","../RequiredFiles/videos/NeinKopfNein_f_no_sound.mp4","Ist der Ball in der blauen Box?","Blue","Green","J","negation","na","gesture","na","HeadShake","female","gesture-speech","1280","720","edge-chromium","60.65","Windows 10","21","female","right","Tue Oct 22 2024 16:52:33 GMT+0200 (Mitteleuropäische Sommerzeit)","2","28","0","1729610588169"
"1366","j","SpeechGestureMatch","../RequiredFiles/videos/NeinKopfNein_m.mp4","Ist der Ball in der grünen Box?","Green","Blue","J","negation","match","gesture","no","HeadShake","male","gesture-speech","1280","720","edge-chromium","60.65","Windows 10","21","female","right","Tue Oct 22 2024 16:52:40 GMT+0200 (Mitteleuropäische Sommerzeit)","2","29","0","1729610588169"
"1097","f","SpeechGestureMatch","../RequiredFiles/videos/JaKopfNein_f.mp4","Ist der Ball in der grünen Box?","Blue","Green","F","negation","mismatch","gesture","yes","HeadShake","female","gesture-speech","1280","720","edge-chromium","60.65","Windows 10","21","female","right","Tue Oct 22 2024 16:52:47 GMT+0200 (Mitteleuropäische Sommerzeit)","2","30","0","1729610588169"
"1465","f","SpeechGestureMatch","../RequiredFiles/videos/NeinKopfNein_m.mp4","Ist der Ball in der grünen Box?","Blue","Green","F","negation","match","gesture","no","HeadShake","male","gesture-speech","1280","720","edge-chromium","60.65","Windows 10","21","female","right","Tue Oct 22 2024 16:52:54 GMT+0200 (Mitteleuropäische Sommerzeit)","2","31","0","1729610588169"
"914","f","SpeechGestureMatch","../RequiredFiles/videos/NeinKopfNein_f.mp4","Ist der Ball in der blauen Box?","Green","Blue","F","negation","match","gesture","no","HeadShake","female","gesture-speech","1280","720","edge-chromium","60.65","Windows 10","21","female","right","Tue Oct 22 2024 16:53:00 GMT+0200 (Mitteleuropäische Sommerzeit)","2","32","0","1729610588169"
"900","j","SpeechGestureMatch","../RequiredFiles/videos/JaKopfNein_m.mp4","Ist der Ball in der blauen Box?","Blue","Green","J","negation","mismatch","gesture","yes","HeadShake","male","gesture-speech","1280","720","edge-chromium","60.65","Windows 10","21","female","right","Tue Oct 22 2024 16:53:06 GMT+0200 (Mitteleuropäische Sommerzeit)","2","33","0","1729610588169"
"835","f","SpeechGestureMatch","../RequiredFiles/videos/JaKopfNein_f_no_sound.mp4","Ist der Ball in der grünen Box?","Blue","Green","F","negation","na","gesture","na","HeadShake","female","gesture-speech","1280","720","edge-chromium","60.65","Windows 10","21","female","right","Tue Oct 22 2024 16:53:13 GMT+0200 (Mitteleuropäische Sommerzeit)","2","34","0","1729610588169"
"1675","j","SpeechGestureMatch","../RequiredFiles/videos/JaKopfJa_m.mp4","Ist der Ball in der blauen Box?","Blue","Green","F","affirmation","match","gesture","yes","HeadNod","male","gesture-speech","1280","720","edge-chromium","60.65","Windows 10","21","female","right","Tue Oct 22 2024 16:53:20 GMT+0200 (Mitteleuropäische Sommerzeit)","2","35","1","1729610588169"
"746","f","SpeechGestureMatch","../RequiredFiles/videos/NeinKopfJa_f_no_sound.mp4","Ist der Ball in der blauen Box?","Blue","Green","F","affirmation","na","gesture","na","HeadNod","female","gesture-speech","1280","720","edge-chromium","60.65","Windows 10","21","female","right","Tue Oct 22 2024 16:53:26 GMT+0200 (Mitteleuropäische Sommerzeit)","2","36","0","1729610588169"
"739","j","SpeechGestureMatch","../RequiredFiles/videos/NeinKopfJa_f_no_sound.mp4","Ist der Ball in der blauen Box?","Green","Blue","J","affirmation","na","gesture","na","HeadNod","female","gesture-speech","1280","720","edge-chromium","60.65","Windows 10","21","female","right","Tue Oct 22 2024 16:53:33 GMT+0200 (Mitteleuropäische Sommerzeit)","2","37","0","1729610588169"
"812","f","SpeechGestureMatch","../RequiredFiles/videos/JaKopfJa_f_no_sound.mp4","Ist der Ball in der blauen Box?","Blue","Green","F","affirmation","na","gesture","na","HeadNod","female","gesture-speech","1280","720","edge-chromium","60.65","Windows 10","21","female","right","Tue Oct 22 2024 16:53:39 GMT+0200 (Mitteleuropäische Sommerzeit)","2","38","0","1729610588169"
"709","f","SpeechGestureMatch","../RequiredFiles/videos/JaKopfJa_f_no_sound.mp4","Ist der Ball in der grünen Box?","Green","Blue","F","affirmation","na","gesture","na","HeadNod","female","gesture-speech","1280","720","edge-chromium","60.65","Windows 10","21","female","right","Tue Oct 22 2024 16:53:45 GMT+0200 (Mitteleuropäische Sommerzeit)","2","39","0","1729610588169"
"968","j","SpeechGestureMatch","../RequiredFiles/videos/JaKopfJa_m.mp4","Ist der Ball in der blauen Box?","Green","Blue","J","affirmation","match","gesture","yes","HeadNod","male","gesture-speech","1280","720","edge-chromium","60.65","Windows 10","21","female","right","Tue Oct 22 2024 16:53:52 GMT+0200 (Mitteleuropäische Sommerzeit)","2","40","0","1729610588169"
"632","f","SpeechGestureMatch","../RequiredFiles/videos/NeinKopfJa_f_no_sound.mp4","Ist der Ball in der grünen Box?","Green","Blue","F","affirmation","na","gesture","na","HeadNod","female","gesture-speech","1280","720","edge-chromium","60.65","Windows 10","21","female","right","Tue Oct 22 2024 16:53:58 GMT+0200 (Mitteleuropäische Sommerzeit)","2","41","0","1729610588169"
"1490","j","SpeechGestureMatch","../RequiredFiles/videos/JaKopfJa_f.mp4","Ist der Ball in der blauen Box?","Green","Blue","J","affirmation","match","gesture","yes","HeadNod","female","gesture-speech","1280","720","edge-chromium","60.65","Windows 10","21","female","right","Tue Oct 22 2024 16:54:05 GMT+0200 (Mitteleuropäische Sommerzeit)","2","42","0","1729610588169"
"831","f","SpeechGestureMatch","../RequiredFiles/videos/NeinKopfJa_m.mp4","Ist der Ball in der grünen Box?","Green","Blue","F","affirmation","mismatch","gesture","no","HeadNod","male","gesture-speech","1280","720","edge-chromium","60.65","Windows 10","21","female","right","Tue Oct 22 2024 16:54:11 GMT+0200 (Mitteleuropäische Sommerzeit)","2","43","0","1729610588169"
"1139","j","SpeechGestureMatch","../RequiredFiles/videos/NeinKopfJa_m.mp4","Ist der Ball in der blauen Box?","Green","Blue","J","affirmation","mismatch","gesture","no","HeadNod","male","gesture-speech","1280","720","edge-chromium","60.65","Windows 10","21","female","right","Tue Oct 22 2024 16:54:18 GMT+0200 (Mitteleuropäische Sommerzeit)","2","44","0","1729610588169"
"883","f","SpeechGestureMatch","../RequiredFiles/videos/NeinKopfNein_m_no_sound.mp4","Ist der Ball in der blauen Box?","Green","Blue","F","negation","na","gesture","na","HeadShake","male","gesture-speech","1280","720","edge-chromium","60.65","Windows 10","21","female","right","Tue Oct 22 2024 16:54:24 GMT+0200 (Mitteleuropäische Sommerzeit)","2","45","0","1729610588169"
"1764","f","SpeechGestureMatch","../RequiredFiles/videos/JaKopfJa_f.mp4","Ist der Ball in der grünen Box?","Green","Blue","F","affirmation","match","gesture","yes","HeadNod","female","gesture-speech","1280","720","edge-chromium","60.65","Windows 10","21","female","right","Tue Oct 22 2024 16:54:32 GMT+0200 (Mitteleuropäische Sommerzeit)","2","46","0","1729610588169"
"858","j","SpeechGestureMatch","../RequiredFiles/videos/JaKopfNein_f_no_sound.mp4","Ist der Ball in der blauen Box?","Blue","Green","J","negation","na","gesture","na","HeadShake","female","gesture-speech","1280","720","edge-chromium","60.65","Windows 10","21","female","right","Tue Oct 22 2024 16:54:38 GMT+0200 (Mitteleuropäische Sommerzeit)","2","47","0","1729610588169"
"1081","j","SpeechGestureMatch","../RequiredFiles/videos/NeinKopfNein_f.mp4","Ist der Ball in der blauen Box?","Blue","Green","J","negation","match","gesture","no","HeadShake","female","gesture-speech","1280","720","edge-chromium","60.65","Windows 10","21","female","right","Tue Oct 22 2024 16:54:45 GMT+0200 (Mitteleuropäische Sommerzeit)","2","48","0","1729610588169"
"1415","j","SpeechGestureMatch","../RequiredFiles/videos/NeinKopfNein_m_no_sound.mp4","Ist der Ball in der grünen Box?","Green","Blue","J","negation","na","gesture","na","HeadShake","male","gesture-speech","1280","720","edge-chromium","60.65","Windows 10","21","female","right","Tue Oct 22 2024 16:54:52 GMT+0200 (Mitteleuropäische Sommerzeit)","2","49","0","1729610588169"
"1048","j","SpeechGestureMatch","../RequiredFiles/videos/JaKopfNein_f.mp4","Ist der Ball in der grünen Box?","Green","Blue","J","negation","mismatch","gesture","yes","HeadShake","female","gesture-speech","1280","720","edge-chromium","60.65","Windows 10","21","female","right","Tue Oct 22 2024 16:54:58 GMT+0200 (Mitteleuropäische Sommerzeit)","2","50","0","1729610588169"
"904","f","SpeechGestureMatch","../RequiredFiles/videos/JaKopfJa_m.mp4","Ist der Ball in der blauen Box?","Blue","Green","F","affirmation","match","gesture","yes","HeadNod","male","gesture-speech","1280","720","edge-chromium","60.65","Windows 10","21","female","right","Tue Oct 22 2024 16:55:05 GMT+0200 (Mitteleuropäische Sommerzeit)","2","51","0","1729610588169"
"999","f","SpeechGestureMatch","../RequiredFiles/videos/JaKopfJa_m_no_sound.mp4","Ist der Ball in der grünen Box?","Green","Blue","F","affirmation","na","gesture","na","HeadNod","male","gesture-speech","1280","720","edge-chromium","60.65","Windows 10","21","female","right","Tue Oct 22 2024 16:55:11 GMT+0200 (Mitteleuropäische Sommerzeit)","2","52","0","1729610588169"
"1586","j","SpeechGestureMatch","../RequiredFiles/videos/JaKopfJa_f.mp4","Ist der Ball in der blauen Box?","Green","Blue","J","affirmation","match","gesture","yes","HeadNod","female","gesture-speech","1280","720","edge-chromium","60.65","Windows 10","21","female","right","Tue Oct 22 2024 16:55:18 GMT+0200 (Mitteleuropäische Sommerzeit)","2","53","0","1729610588169"
"799","f","SpeechGestureMatch","../RequiredFiles/videos/JaKopfJa_f.mp4","Ist der Ball in der blauen Box?","Blue","Green","F","affirmation","match","gesture","yes","HeadNod","female","gesture-speech","1280","720","edge-chromium","60.65","Windows 10","21","female","right","Tue Oct 22 2024 16:55:25 GMT+0200 (Mitteleuropäische Sommerzeit)","2","54","0","1729610588169"
"989","f","SpeechGestureMatch","../RequiredFiles/videos/NeinKopfJa_f.mp4","Ist der Ball in der blauen Box?","Blue","Green","F","affirmation","mismatch","gesture","no","HeadNod","female","gesture-speech","1280","720","edge-chromium","60.65","Windows 10","21","female","right","Tue Oct 22 2024 16:55:31 GMT+0200 (Mitteleuropäische Sommerzeit)","2","55","0","1729610588169"
"776","j","SpeechGestureMatch","../RequiredFiles/videos/NeinKopfJa_m_no_sound.mp4","Ist der Ball in der grünen Box?","Blue","Green","J","affirmation","na","gesture","na","HeadNod","male","gesture-speech","1280","720","edge-chromium","60.65","Windows 10","21","female","right","Tue Oct 22 2024 16:55:38 GMT+0200 (Mitteleuropäische Sommerzeit)","2","56","0","1729610588169"
"1068","j","SpeechGestureMatch","../RequiredFiles/videos/NeinKopfJa_f.mp4","Ist der Ball in der grünen Box?","Blue","Green","J","affirmation","mismatch","gesture","no","HeadNod","female","gesture-speech","1280","720","edge-chromium","60.65","Windows 10","21","female","right","Tue Oct 22 2024 16:55:44 GMT+0200 (Mitteleuropäische Sommerzeit)","2","57","0","1729610588169"
"921","f","SpeechGestureMatch","../RequiredFiles/videos/NeinKopfNein_m_no_sound.mp4","Ist der Ball in der grünen Box?","Blue","Green","F","negation","na","gesture","na","HeadShake","male","gesture-speech","1280","720","edge-chromium","60.65","Windows 10","21","female","right","Tue Oct 22 2024 16:55:51 GMT+0200 (Mitteleuropäische Sommerzeit)","2","58","0","1729610588169"
"925","f","SpeechGestureMatch","../RequiredFiles/videos/JaKopfNein_f_no_sound.mp4","Ist der Ball in der blauen Box?","Green","Blue","F","negation","na","gesture","na","HeadShake","female","gesture-speech","1280","720","edge-chromium","60.65","Windows 10","21","female","right","Tue Oct 22 2024 16:55:57 GMT+0200 (Mitteleuropäische Sommerzeit)","2","59","0","1729610588169"
"1204","f","SpeechGestureMatch","../RequiredFiles/videos/NeinKopfJa_f.mp4","Ist der Ball in der grünen Box?","Green","Blue","F","affirmation","mismatch","gesture","no","HeadNod","female","gesture-speech","1280","720","edge-chromium","60.65","Windows 10","21","female","right","Tue Oct 22 2024 16:56:04 GMT+0200 (Mitteleuropäische Sommerzeit)","2","60","0","1729610588169"
"853","f","SpeechGestureMatch","../RequiredFiles/videos/NeinKopfJa_f.mp4","Ist der Ball in der blauen Box?","Blue","Green","F","affirmation","mismatch","gesture","no","HeadNod","female","gesture-speech","1280","720","edge-chromium","60.65","Windows 10","21","female","right","Tue Oct 22 2024 16:56:10 GMT+0200 (Mitteleuropäische Sommerzeit)","2","61","0","1729610588169"
"1352","j","SpeechGestureMatch","../RequiredFiles/videos/NeinKopfNein_m.mp4","Ist der Ball in der blauen Box?","Blue","Green","J","negation","match","gesture","no","HeadShake","male","gesture-speech","1280","720","edge-chromium","60.65","Windows 10","21","female","right","Tue Oct 22 2024 16:56:17 GMT+0200 (Mitteleuropäische Sommerzeit)","2","62","0","1729610588169"
"883","j","SpeechGestureMatch","../RequiredFiles/videos/JaKopfNein_f_no_sound.mp4","Ist der Ball in der grünen Box?","Green","Blue","J","negation","na","gesture","na","HeadShake","female","gesture-speech","1280","720","edge-chromium","60.65","Windows 10","21","female","right","Tue Oct 22 2024 16:56:24 GMT+0200 (Mitteleuropäische Sommerzeit)","2","63","0","1729610588169"
"1048","f","SpeechGestureMatch","../RequiredFiles/videos/JaKopfNein_m_no_sound.mp4","Ist der Ball in der grünen Box?","Blue","Green","F","negation","na","gesture","na","HeadShake","male","gesture-speech","1280","720","edge-chromium","60.65","Windows 10","21","female","right","Tue Oct 22 2024 16:56:30 GMT+0200 (Mitteleuropäische Sommerzeit)","2","64","0","1729610588169"
"1169","f","SpeechGestureMatch","../RequiredFiles/videos/JaKopfJa_m.mp4","Ist der Ball in der grünen Box?","Green","Blue","F","affirmation","match","gesture","yes","HeadNod","male","gesture-speech","1280","720","edge-chromium","60.65","Windows 10","21","female","right","Tue Oct 22 2024 16:56:37 GMT+0200 (Mitteleuropäische Sommerzeit)","2","65","0","1729610588169"
"1294","j","SpeechGestureMatch","../RequiredFiles/videos/JaKopfJa_m_no_sound.mp4","Ist der Ball in der grünen Box?","Blue","Green","J","affirmation","na","gesture","na","HeadNod","male","gesture-speech","1280","720","edge-chromium","60.65","Windows 10","21","female","right","Tue Oct 22 2024 16:56:44 GMT+0200 (Mitteleuropäische Sommerzeit)","2","66","0","1729610588169"
"2462","j","SpeechGestureMatch","../RequiredFiles/videos/NeinKopfJa_m_no_sound.mp4","Ist der Ball in der blauen Box?","Green","Blue","J","affirmation","na","gesture","na","HeadNod","male","gesture-speech","1280","720","edge-chromium","60.65","Windows 10","21","female","right","Tue Oct 22 2024 16:56:52 GMT+0200 (Mitteleuropäische Sommerzeit)","2","67","0","1729610588169"
"154","j","SpeechGestureMatch","../RequiredFiles/videos/NeinKopfNein_m_no_sound.mp4","Ist der Ball in der blauen Box?","Blue","Green","J","negation","na","gesture","na","HeadShake","male","gesture-speech","1280","720","edge-chromium","60.65","Windows 10","21","female","right","Tue Oct 22 2024 16:56:57 GMT+0200 (Mitteleuropäische Sommerzeit)","2","68","0","1729610588169"
"1137","j","SpeechGestureMatch","../RequiredFiles/videos/NeinKopfJa_m_no_sound.mp4","Ist der Ball in der blauen Box?","Blue","Green","F","affirmation","na","gesture","na","HeadNod","male","gesture-speech","1280","720","edge-chromium","60.65","Windows 10","21","female","right","Tue Oct 22 2024 16:57:04 GMT+0200 (Mitteleuropäische Sommerzeit)","2","69","1","1729610588169"
"970","f","SpeechGestureMatch","../RequiredFiles/videos/NeinKopfJa_m_no_sound.mp4","Ist der Ball in der grünen Box?","Green","Blue","F","affirmation","na","gesture","na","HeadNod","male","gesture-speech","1280","720","edge-chromium","60.65","Windows 10","21","female","right","Tue Oct 22 2024 16:57:11 GMT+0200 (Mitteleuropäische Sommerzeit)","2","70","0","1729610588169"
"730","j","SpeechGestureMatch","../RequiredFiles/videos/JaKopfNein_m_no_sound.mp4","Ist der Ball in der blauen Box?","Blue","Green","J","negation","na","gesture","na","HeadShake","male","gesture-speech","1280","720","edge-chromium","60.65","Windows 10","21","female","right","Tue Oct 22 2024 16:57:17 GMT+0200 (Mitteleuropäische Sommerzeit)","2","71","0","1729610588169"
"1546","f","SpeechGestureMatch","../RequiredFiles/videos/JaKopfNein_m.mp4","Ist der Ball in der grünen Box?","Blue","Green","F","negation","mismatch","gesture","yes","HeadShake","male","gesture-speech","1280","720","edge-chromium","60.65","Windows 10","21","female","right","Tue Oct 22 2024 16:57:24 GMT+0200 (Mitteleuropäische Sommerzeit)","2","72","0","1729610588169"
"973","f","SpeechGestureMatch","../RequiredFiles/videos/NeinKopfJa_m.mp4","Ist der Ball in der blauen Box?","Blue","Green","F","affirmation","mismatch","gesture","no","HeadNod","male","gesture-speech","1280","720","edge-chromium","60.65","Windows 10","21","female","right","Tue Oct 22 2024 16:57:31 GMT+0200 (Mitteleuropäische Sommerzeit)","2","73","0","1729610588169"
"1081","f","SpeechGestureMatch","../RequiredFiles/videos/JaKopfNein_f.mp4","Ist der Ball in der blauen Box?","Green","Blue","F","negation","mismatch","gesture","yes","HeadShake","female","gesture-speech","1280","720","edge-chromium","60.65","Windows 10","21","female","right","Tue Oct 22 2024 16:57:37 GMT+0200 (Mitteleuropäische Sommerzeit)","2","74","0","1729610588169"
"1001","j","SpeechGestureMatch","../RequiredFiles/videos/JaKopfNein_m.mp4","Ist der Ball in der grünen Box?","Green","Blue","J","negation","mismatch","gesture","yes","HeadShake","male","gesture-speech","1280","720","edge-chromium","60.65","Windows 10","21","female","right","Tue Oct 22 2024 16:57:44 GMT+0200 (Mitteleuropäische Sommerzeit)","2","75","0","1729610588169"
"1310","f","SpeechGestureMatch","../RequiredFiles/videos/NeinKopfNein_f.mp4","Ist der Ball in der grünen Box?","Blue","Green","F","negation","match","gesture","no","HeadShake","female","gesture-speech","1280","720","edge-chromium","60.65","Windows 10","21","female","right","Tue Oct 22 2024 16:57:51 GMT+0200 (Mitteleuropäische Sommerzeit)","2","76","0","1729610588169"
"980","f","SpeechGestureMatch","../RequiredFiles/videos/NeinKopfNein_m.mp4","Ist der Ball in der blauen Box?","Green","Blue","F","negation","match","gesture","no","HeadShake","male","gesture-speech","1280","720","edge-chromium","60.65","Windows 10","21","female","right","Tue Oct 22 2024 16:57:57 GMT+0200 (Mitteleuropäische Sommerzeit)","2","77","0","1729610588169"
"970","j","SpeechGestureMatch","../RequiredFiles/videos/NeinKopfJa_m.mp4","Ist der Ball in der grünen Box?","Blue","Green","J","affirmation","mismatch","gesture","no","HeadNod","male","gesture-speech","1280","720","edge-chromium","60.65","Windows 10","21","female","right","Tue Oct 22 2024 16:58:04 GMT+0200 (Mitteleuropäische Sommerzeit)","2","78","0","1729610588169"
"915","f","SpeechGestureMatch","../RequiredFiles/videos/JaKopfNein_f.mp4","Ist der Ball in der grünen Box?","Blue","Green","F","negation","mismatch","gesture","yes","HeadShake","female","gesture-speech","1280","720","edge-chromium","60.65","Windows 10","21","female","right","Tue Oct 22 2024 16:58:10 GMT+0200 (Mitteleuropäische Sommerzeit)","2","79","0","1729610588169"
"848","f","SpeechGestureMatch","../RequiredFiles/videos/JaKopfNein_m.mp4","Ist der Ball in der blauen Box?","Green","Blue","F","negation","mismatch","gesture","yes","HeadShake","male","gesture-speech","1280","720","edge-chromium","60.65","Windows 10","21","female","right","Tue Oct 22 2024 16:58:17 GMT+0200 (Mitteleuropäische Sommerzeit)","2","80","0","1729610588169"
"847","j","SpeechGestureMatch","../RequiredFiles/videos/NeinKopfJa_f.mp4","Ist der Ball in der blauen Box?","Green","Blue","J","affirmation","mismatch","gesture","no","HeadNod","female","gesture-speech","1280","720","edge-chromium","60.65","Windows 10","21","female","right","Tue Oct 22 2024 16:58:23 GMT+0200 (Mitteleuropäische Sommerzeit)","2","81","0","1729610588169"
"1185","f","SpeechGestureMatch","../RequiredFiles/videos/JaKopfNein_m_no_sound.mp4","Ist der Ball in der blauen Box?","Green","Blue","F","negation","na","gesture","na","HeadShake","male","gesture-speech","1280","720","edge-chromium","60.65","Windows 10","21","female","right","Tue Oct 22 2024 16:58:30 GMT+0200 (Mitteleuropäische Sommerzeit)","2","82","0","1729610588169"
"1288","j","SpeechGestureMatch","../RequiredFiles/videos/NeinKopfNein_m.mp4","Ist der Ball in der grünen Box?","Green","Blue","J","negation","match","gesture","no","HeadShake","male","gesture-speech","1280","720","edge-chromium","60.65","Windows 10","21","female","right","Tue Oct 22 2024 16:58:36 GMT+0200 (Mitteleuropäische Sommerzeit)","2","83","0","1729610588169"
"743","f","SpeechGestureMatch","../RequiredFiles/videos/NeinKopfJa_m.mp4","Ist der Ball in der blauen Box?","Blue","Green","F","affirmation","mismatch","gesture","no","HeadNod","male","gesture-speech","1280","720","edge-chromium","60.65","Windows 10","21","female","right","Tue Oct 22 2024 16:58:43 GMT+0200 (Mitteleuropäische Sommerzeit)","2","84","0","1729610588169"
"813","j","SpeechGestureMatch","../RequiredFiles/videos/NeinKopfJa_f_no_sound.mp4","Ist der Ball in der grünen Box?","Blue","Green","J","affirmation","na","gesture","na","HeadNod","female","gesture-speech","1280","720","edge-chromium","60.65","Windows 10","21","female","right","Tue Oct 22 2024 16:58:49 GMT+0200 (Mitteleuropäische Sommerzeit)","2","85","0","1729610588169"
"976","j","SpeechGestureMatch","../RequiredFiles/videos/JaKopfJa_f_no_sound.mp4","Ist der Ball in der blauen Box?","Green","Blue","J","affirmation","na","gesture","na","HeadNod","female","gesture-speech","1280","720","edge-chromium","60.65","Windows 10","21","female","right","Tue Oct 22 2024 16:58:56 GMT+0200 (Mitteleuropäische Sommerzeit)","2","86","0","1729610588169"
"1088","f","SpeechGestureMatch","../RequiredFiles/videos/NeinKopfNein_m.mp4","Ist der Ball in der blauen Box?","Green","Blue","F","negation","match","gesture","no","HeadShake","male","gesture-speech","1280","720","edge-chromium","60.65","Windows 10","21","female","right","Tue Oct 22 2024 16:59:02 GMT+0200 (Mitteleuropäische Sommerzeit)","2","87","0","1729610588169"
"3689","j","SpeechGestureMatch","../RequiredFiles/videos/JaKopfNein_m.mp4","Ist der Ball in der grünen Box?","Green","Blue","J","negation","mismatch","gesture","yes","HeadShake","male","gesture-speech","1280","720","edge-chromium","60.65","Windows 10","21","female","right","Tue Oct 22 2024 16:59:11 GMT+0200 (Mitteleuropäische Sommerzeit)","2","88","0","1729610588169"
"881","f","SpeechGestureMatch","../RequiredFiles/videos/JaKopfJa_f.mp4","Ist der Ball in der grünen Box?","Green","Blue","F","affirmation","match","gesture","yes","HeadNod","female","gesture-speech","1280","720","edge-chromium","60.65","Windows 10","21","female","right","Tue Oct 22 2024 16:59:18 GMT+0200 (Mitteleuropäische Sommerzeit)","2","89","0","1729610588169"
"931","j","SpeechGestureMatch","../RequiredFiles/videos/NeinKopfJa_m.mp4","Ist der Ball in der grünen Box?","Blue","Green","J","affirmation","mismatch","gesture","no","HeadNod","male","gesture-speech","1280","720","edge-chromium","60.65","Windows 10","21","female","right","Tue Oct 22 2024 16:59:24 GMT+0200 (Mitteleuropäische Sommerzeit)","2","90","0","1729610588169"
"788","j","SpeechGestureMatch","../RequiredFiles/videos/JaKopfJa_f.mp4","Ist der Ball in der grünen Box?","Blue","Green","J","affirmation","match","gesture","yes","HeadNod","female","gesture-speech","1280","720","edge-chromium","60.65","Windows 10","21","female","right","Tue Oct 22 2024 16:59:31 GMT+0200 (Mitteleuropäische Sommerzeit)","2","91","0","1729610588169"
"848","j","SpeechGestureMatch","../RequiredFiles/videos/JaKopfJa_m.mp4","Ist der Ball in der blauen Box?","Green","Blue","J","affirmation","match","gesture","yes","HeadNod","male","gesture-speech","1280","720","edge-chromium","60.65","Windows 10","21","female","right","Tue Oct 22 2024 16:59:37 GMT+0200 (Mitteleuropäische Sommerzeit)","2","92","0","1729610588169"
"1040","j","SpeechGestureMatch","../RequiredFiles/videos/NeinKopfNein_f.mp4","Ist der Ball in der blauen Box?","Blue","Green","J","negation","match","gesture","no","HeadShake","female","gesture-speech","1280","720","edge-chromium","60.65","Windows 10","21","female","right","Tue Oct 22 2024 16:59:44 GMT+0200 (Mitteleuropäische Sommerzeit)","2","93","0","1729610588169"
"679","f","SpeechGestureMatch","../RequiredFiles/videos/JaKopfJa_f.mp4","Ist der Ball in der blauen Box?","Blue","Green","F","affirmation","match","gesture","yes","HeadNod","female","gesture-speech","1280","720","edge-chromium","60.65","Windows 10","21","female","right","Tue Oct 22 2024 16:59:50 GMT+0200 (Mitteleuropäische Sommerzeit)","2","94","0","1729610588169"
"932","j","SpeechGestureMatch","../RequiredFiles/videos/NeinKopfJa_f.mp4","Ist der Ball in der grünen Box?","Blue","Green","J","affirmation","mismatch","gesture","no","HeadNod","female","gesture-speech","1280","720","edge-chromium","60.65","Windows 10","21","female","right","Tue Oct 22 2024 16:59:56 GMT+0200 (Mitteleuropäische Sommerzeit)","2","95","0","1729610588169"
"689","j","SpeechGestureMatch","../RequiredFiles/videos/JaKopfJa_f_no_sound.mp4","Ist der Ball in der grünen Box?","Blue","Green","J","affirmation","na","gesture","na","HeadNod","female","gesture-speech","1280","720","edge-chromium","60.65","Windows 10","21","female","right","Tue Oct 22 2024 17:00:03 GMT+0200 (Mitteleuropäische Sommerzeit)","2","96","0","1729610588169"
"810","j","SpeechGestureMatch","../RequiredFiles/videos/JaKopfJa_m.mp4","Ist der Ball in der blauen Box?","Green","Blue","J","affirmation","match","speech","yes","HeadNod","male","gesture-speech","1280","720","edge-chromium","60.65","Windows 10","21","female","right","Tue Oct 22 2024 17:02:06 GMT+0200 (Mitteleuropäische Sommerzeit)","3","1","0","1729610588169"
"724","f","SpeechGestureMatch","../RequiredFiles/videos/JaKopfJa_f.mp4","Ist der Ball in der grünen Box?","Green","Blue","F","affirmation","match","speech","yes","HeadNod","female","gesture-speech","1280","720","edge-chromium","60.65","Windows 10","21","female","right","Tue Oct 22 2024 17:02:12 GMT+0200 (Mitteleuropäische Sommerzeit)","3","2","0","1729610588169"
"911","j","SpeechGestureMatch","../RequiredFiles/videos/JaKopfNein_m.mp4","Ist der Ball in der blauen Box?","Green","Blue","J","affirmation","mismatch","speech","yes","HeadShake","male","gesture-speech","1280","720","edge-chromium","60.65","Windows 10","21","female","right","Tue Oct 22 2024 17:02:19 GMT+0200 (Mitteleuropäische Sommerzeit)","3","3","0","1729610588169"
"852","f","SpeechGestureMatch","../RequiredFiles/videos/JaKopfNein_m_no_gesture.mp4","Ist der Ball in der blauen Box?","Blue","Green","F","affirmation","na","speech","yes","na","male","gesture-speech","1280","720","edge-chromium","60.65","Windows 10","21","female","right","Tue Oct 22 2024 17:02:25 GMT+0200 (Mitteleuropäische Sommerzeit)","3","4","0","1729610588169"
"851","f","SpeechGestureMatch","../RequiredFiles/videos/NeinKopfJa_m_no_gesture.mp4","Ist der Ball in der blauen Box?","Green","Blue","F","negation","na","speech","no","na","male","gesture-speech","1280","720","edge-chromium","60.65","Windows 10","21","female","right","Tue Oct 22 2024 17:02:31 GMT+0200 (Mitteleuropäische Sommerzeit)","3","5","0","1729610588169"
"866","j","SpeechGestureMatch","../RequiredFiles/videos/JaKopfJa_m_no_gesture.mp4","Ist der Ball in der blauen Box?","Green","Blue","J","affirmation","na","speech","yes","na","male","gesture-speech","1280","720","edge-chromium","60.65","Windows 10","21","female","right","Tue Oct 22 2024 17:02:38 GMT+0200 (Mitteleuropäische Sommerzeit)","3","6","0","1729610588169"
"1597","f","SpeechGestureMatch","../RequiredFiles/videos/JaKopfJa_m.mp4","Ist der Ball in der blauen Box?","Blue","Green","F","affirmation","match","speech","yes","HeadNod","male","gesture-speech","1280","720","edge-chromium","60.65","Windows 10","21","female","right","Tue Oct 22 2024 17:02:45 GMT+0200 (Mitteleuropäische Sommerzeit)","3","7","0","1729610588169"
"875","f","SpeechGestureMatch","../RequiredFiles/videos/NeinKopfNein_m.mp4","Ist der Ball in der grünen Box?","Blue","Green","F","negation","match","speech","no","HeadShake","male","gesture-speech","1280","720","edge-chromium","60.65","Windows 10","21","female","right","Tue Oct 22 2024 17:02:51 GMT+0200 (Mitteleuropäische Sommerzeit)","3","8","0","1729610588169"
"1866","f","SpeechGestureMatch","../RequiredFiles/videos/JaKopfNein_f.mp4","Ist der Ball in der grünen Box?","Green","Blue","F","affirmation","mismatch","speech","yes","HeadShake","female","gesture-speech","1280","720","edge-chromium","60.65","Windows 10","21","female","right","Tue Oct 22 2024 17:02:59 GMT+0200 (Mitteleuropäische Sommerzeit)","3","9","0","1729610588169"
"873","f","SpeechGestureMatch","../RequiredFiles/videos/JaKopfJa_m.mp4","Ist der Ball in der grünen Box?","Green","Blue","F","affirmation","match","speech","yes","HeadNod","male","gesture-speech","1280","720","edge-chromium","60.65","Windows 10","21","female","right","Tue Oct 22 2024 17:03:05 GMT+0200 (Mitteleuropäische Sommerzeit)","3","10","0","1729610588169"
"778","j","SpeechGestureMatch","../RequiredFiles/videos/NeinKopfNein_f.mp4","Ist der Ball in der grünen Box?","Green","Blue","J","negation","match","speech","no","HeadShake","female","gesture-speech","1280","720","edge-chromium","60.65","Windows 10","21","female","right","Tue Oct 22 2024 17:03:11 GMT+0200 (Mitteleuropäische Sommerzeit)","3","11","0","1729610588169"
"915","j","SpeechGestureMatch","../RequiredFiles/videos/NeinKopfJa_m_no_gesture.mp4","Ist der Ball in der blauen Box?","Blue","Green","J","negation","na","speech","no","na","male","gesture-speech","1280","720","edge-chromium","60.65","Windows 10","21","female","right","Tue Oct 22 2024 17:03:18 GMT+0200 (Mitteleuropäische Sommerzeit)","3","12","0","1729610588169"
"956","f","SpeechGestureMatch","../RequiredFiles/videos/NeinKopfJa_f.mp4","Ist der Ball in der grünen Box?","Blue","Green","F","negation","mismatch","speech","no","HeadNod","female","gesture-speech","1280","720","edge-chromium","60.65","Windows 10","21","female","right","Tue Oct 22 2024 17:03:24 GMT+0200 (Mitteleuropäische Sommerzeit)","3","13","0","1729610588169"
"812","f","SpeechGestureMatch","../RequiredFiles/videos/NeinKopfNein_m_no_gesture.mp4","Ist der Ball in der blauen Box?","Green","Blue","F","negation","na","speech","no","na","male","gesture-speech","1280","720","edge-chromium","60.65","Windows 10","21","female","right","Tue Oct 22 2024 17:03:31 GMT+0200 (Mitteleuropäische Sommerzeit)","3","14","0","1729610588169"
"1117","f","SpeechGestureMatch","../RequiredFiles/videos/NeinKopfNein_m_no_gesture.mp4","Ist der Ball in der grünen Box?","Blue","Green","F","negation","na","speech","no","na","male","gesture-speech","1280","720","edge-chromium","60.65","Windows 10","21","female","right","Tue Oct 22 2024 17:03:37 GMT+0200 (Mitteleuropäische Sommerzeit)","3","15","0","1729610588169"
"836","j","SpeechGestureMatch","../RequiredFiles/videos/NeinKopfNein_m.mp4","Ist der Ball in der grünen Box?","Green","Blue","J","negation","match","speech","no","HeadShake","male","gesture-speech","1280","720","edge-chromium","60.65","Windows 10","21","female","right","Tue Oct 22 2024 17:03:44 GMT+0200 (Mitteleuropäische Sommerzeit)","3","16","0","1729610588169"
"983","f","SpeechGestureMatch","../RequiredFiles/videos/NeinKopfNein_f.mp4","Ist der Ball in der grünen Box?","Blue","Green","F","negation","match","speech","no","HeadShake","female","gesture-speech","1280","720","edge-chromium","60.65","Windows 10","21","female","right","Tue Oct 22 2024 17:03:50 GMT+0200 (Mitteleuropäische Sommerzeit)","3","17","0","1729610588169"
"1059","f","SpeechGestureMatch","../RequiredFiles/videos/JaKopfNein_m_no_gesture.mp4","Ist der Ball in der grünen Box?","Green","Blue","F","affirmation","na","speech","yes","na","male","gesture-speech","1280","720","edge-chromium","60.65","Windows 10","21","female","right","Tue Oct 22 2024 17:03:57 GMT+0200 (Mitteleuropäische Sommerzeit)","3","18","0","1729610588169"
"1026","j","SpeechGestureMatch","../RequiredFiles/videos/NeinKopfNein_m.mp4","Ist der Ball in der grünen Box?","Green","Blue","J","negation","match","speech","no","HeadShake","male","gesture-speech","1280","720","edge-chromium","60.65","Windows 10","21","female","right","Tue Oct 22 2024 17:04:04 GMT+0200 (Mitteleuropäische Sommerzeit)","3","19","0","1729610588169"
"1258","j","SpeechGestureMatch","../RequiredFiles/videos/JaKopfNein_f_no_gesture.mp4","Ist der Ball in der grünen Box?","Blue","Green","J","affirmation","na","speech","yes","na","female","gesture-speech","1280","720","edge-chromium","60.65","Windows 10","21","female","right","Tue Oct 22 2024 17:04:10 GMT+0200 (Mitteleuropäische Sommerzeit)","3","20","0","1729610588169"
"918","f","SpeechGestureMatch","../RequiredFiles/videos/JaKopfNein_f.mp4","Ist der Ball in der blauen Box?","Blue","Green","F","affirmation","mismatch","speech","yes","HeadShake","female","gesture-speech","1280","720","edge-chromium","60.65","Windows 10","21","female","right","Tue Oct 22 2024 17:04:17 GMT+0200 (Mitteleuropäische Sommerzeit)","3","21","0","1729610588169"
"762","j","SpeechGestureMatch","../RequiredFiles/videos/JaKopfNein_f_no_gesture.mp4","Ist der Ball in der blauen Box?","Green","Blue","J","affirmation","na","speech","yes","na","female","gesture-speech","1280","720","edge-chromium","60.65","Windows 10","21","female","right","Tue Oct 22 2024 17:04:23 GMT+0200 (Mitteleuropäische Sommerzeit)","3","22","0","1729610588169"
"874","f","SpeechGestureMatch","../RequiredFiles/videos/NeinKopfNein_f.mp4","Ist der Ball in der blauen Box?","Green","Blue","F","negation","match","speech","no","HeadShake","female","gesture-speech","1280","720","edge-chromium","60.65","Windows 10","21","female","right","Tue Oct 22 2024 17:04:30 GMT+0200 (Mitteleuropäische Sommerzeit)","3","23","0","1729610588169"
"1406","j","SpeechGestureMatch","../RequiredFiles/videos/NeinKopfJa_m.mp4","Ist der Ball in der grünen Box?","Green","Blue","J","negation","mismatch","speech","no","HeadNod","male","gesture-speech","1280","720","edge-chromium","60.65","Windows 10","21","female","right","Tue Oct 22 2024 17:04:37 GMT+0200 (Mitteleuropäische Sommerzeit)","3","24","0","1729610588169"
"757","j","SpeechGestureMatch","../RequiredFiles/videos/JaKopfNein_f.mp4","Ist der Ball in der blauen Box?","Green","Blue","J","affirmation","mismatch","speech","yes","HeadShake","female","gesture-speech","1280","720","edge-chromium","60.65","Windows 10","21","female","right","Tue Oct 22 2024 17:04:43 GMT+0200 (Mitteleuropäische Sommerzeit)","3","25","0","1729610588169"
"834","f","SpeechGestureMatch","../RequiredFiles/videos/JaKopfJa_m.mp4","Ist der Ball in der grünen Box?","Green","Blue","F","affirmation","match","speech","yes","HeadNod","male","gesture-speech","1280","720","edge-chromium","60.65","Windows 10","21","female","right","Tue Oct 22 2024 17:04:49 GMT+0200 (Mitteleuropäische Sommerzeit)","3","26","0","1729610588169"
"1010","f","SpeechGestureMatch","../RequiredFiles/videos/JaKopfNein_m.mp4","Ist der Ball in der grünen Box?","Green","Blue","F","affirmation","mismatch","speech","yes","HeadShake","male","gesture-speech","1280","720","edge-chromium","60.65","Windows 10","21","female","right","Tue Oct 22 2024 17:04:56 GMT+0200 (Mitteleuropäische Sommerzeit)","3","27","0","1729610588169"
"760","f","SpeechGestureMatch","../RequiredFiles/videos/JaKopfJa_f.mp4","Ist der Ball in der blauen Box?","Blue","Green","F","affirmation","match","speech","yes","HeadNod","female","gesture-speech","1280","720","edge-chromium","60.65","Windows 10","21","female","right","Tue Oct 22 2024 17:05:02 GMT+0200 (Mitteleuropäische Sommerzeit)","3","28","0","1729610588169"
"942","f","SpeechGestureMatch","../RequiredFiles/videos/NeinKopfJa_m.mp4","Ist der Ball in der blauen Box?","Green","Blue","F","negation","mismatch","speech","no","HeadNod","male","gesture-speech","1280","720","edge-chromium","60.65","Windows 10","21","female","right","Tue Oct 22 2024 17:05:09 GMT+0200 (Mitteleuropäische Sommerzeit)","3","29","0","1729610588169"
"1409","f","SpeechGestureMatch","../RequiredFiles/videos/NeinKopfJa_f.mp4","Ist der Ball in der grünen Box?","Green","Blue","J","negation","mismatch","speech","no","HeadNod","female","gesture-speech","1280","720","edge-chromium","60.65","Windows 10","21","female","right","Tue Oct 22 2024 17:05:16 GMT+0200 (Mitteleuropäische Sommerzeit)","3","30","1","1729610588169"
"842","f","SpeechGestureMatch","../RequiredFiles/videos/JaKopfNein_f.mp4","Ist der Ball in der grünen Box?","Green","Blue","F","affirmation","mismatch","speech","yes","HeadShake","female","gesture-speech","1280","720","edge-chromium","60.65","Windows 10","21","female","right","Tue Oct 22 2024 17:05:22 GMT+0200 (Mitteleuropäische Sommerzeit)","3","31","0","1729610588169"
"859","j","SpeechGestureMatch","../RequiredFiles/videos/JaKopfNein_m_no_gesture.mp4","Ist der Ball in der blauen Box?","Green","Blue","J","affirmation","na","speech","yes","na","male","gesture-speech","1280","720","edge-chromium","60.65","Windows 10","21","female","right","Tue Oct 22 2024 17:05:28 GMT+0200 (Mitteleuropäische Sommerzeit)","3","32","0","1729610588169"
"950","j","SpeechGestureMatch","../RequiredFiles/videos/JaKopfNein_m.mp4","Ist der Ball in der grünen Box?","Blue","Green","J","affirmation","mismatch","speech","yes","HeadShake","male","gesture-speech","1280","720","edge-chromium","60.65","Windows 10","21","female","right","Tue Oct 22 2024 17:05:35 GMT+0200 (Mitteleuropäische Sommerzeit)","3","33","0","1729610588169"
"974","f","SpeechGestureMatch","../RequiredFiles/videos/NeinKopfJa_f_no_gesture.mp4","Ist der Ball in der grünen Box?","Blue","Green","F","negation","na","speech","no","na","female","gesture-speech","1280","720","edge-chromium","60.65","Windows 10","21","female","right","Tue Oct 22 2024 17:05:41 GMT+0200 (Mitteleuropäische Sommerzeit)","3","34","0","1729610588169"
"849","f","SpeechGestureMatch","../RequiredFiles/videos/NeinKopfNein_f.mp4","Ist der Ball in der blauen Box?","Green","Blue","F","negation","match","speech","no","HeadShake","female","gesture-speech","1280","720","edge-chromium","60.65","Windows 10","21","female","right","Tue Oct 22 2024 17:05:48 GMT+0200 (Mitteleuropäische Sommerzeit)","3","35","0","1729610588169"
"997","j","SpeechGestureMatch","../RequiredFiles/videos/NeinKopfJa_f_no_gesture.mp4","Ist der Ball in der grünen Box?","Green","Blue","J","negation","na","speech","no","na","female","gesture-speech","1280","720","edge-chromium","60.65","Windows 10","21","female","right","Tue Oct 22 2024 17:05:54 GMT+0200 (Mitteleuropäische Sommerzeit)","3","36","0","1729610588169"
"1322","f","SpeechGestureMatch","../RequiredFiles/videos/JaKopfNein_m.mp4","Ist der Ball in der blauen Box?","Blue","Green","F","affirmation","mismatch","speech","yes","HeadShake","male","gesture-speech","1280","720","edge-chromium","60.65","Windows 10","21","female","right","Tue Oct 22 2024 17:06:01 GMT+0200 (Mitteleuropäische Sommerzeit)","3","37","0","1729610588169"
"1150","f","SpeechGestureMatch","../RequiredFiles/videos/NeinKopfJa_f_no_gesture.mp4","Ist der Ball in der blauen Box?","Green","Blue","F","negation","na","speech","no","na","female","gesture-speech","1280","720","edge-chromium","60.65","Windows 10","21","female","right","Tue Oct 22 2024 17:06:08 GMT+0200 (Mitteleuropäische Sommerzeit)","3","38","0","1729610588169"
"779","f","SpeechGestureMatch","../RequiredFiles/videos/NeinKopfNein_m.mp4","Ist der Ball in der blauen Box?","Green","Blue","F","negation","match","speech","no","HeadShake","male","gesture-speech","1280","720","edge-chromium","60.65","Windows 10","21","female","right","Tue Oct 22 2024 17:06:14 GMT+0200 (Mitteleuropäische Sommerzeit)","3","39","0","1729610588169"
"773","j","SpeechGestureMatch","../RequiredFiles/videos/JaKopfNein_f.mp4","Ist der Ball in der grünen Box?","Blue","Green","J","affirmation","mismatch","speech","yes","HeadShake","female","gesture-speech","1280","720","edge-chromium","60.65","Windows 10","21","female","right","Tue Oct 22 2024 17:06:20 GMT+0200 (Mitteleuropäische Sommerzeit)","3","40","0","1729610588169"
"1207","f","SpeechGestureMatch","../RequiredFiles/videos/JaKopfNein_m.mp4","Ist der Ball in der grünen Box?","Green","Blue","F","affirmation","mismatch","speech","yes","HeadShake","male","gesture-speech","1280","720","edge-chromium","60.65","Windows 10","21","female","right","Tue Oct 22 2024 17:06:27 GMT+0200 (Mitteleuropäische Sommerzeit)","3","41","0","1729610588169"
"781","f","SpeechGestureMatch","../RequiredFiles/videos/JaKopfNein_f.mp4","Ist der Ball in der blauen Box?","Blue","Green","F","affirmation","mismatch","speech","yes","HeadShake","female","gesture-speech","1280","720","edge-chromium","60.65","Windows 10","21","female","right","Tue Oct 22 2024 17:06:34 GMT+0200 (Mitteleuropäische Sommerzeit)","3","42","0","1729610588169"
"815","j","SpeechGestureMatch","../RequiredFiles/videos/NeinKopfJa_m.mp4","Ist der Ball in der grünen Box?","Blue","Green","F","negation","mismatch","speech","no","HeadNod","male","gesture-speech","1280","720","edge-chromium","60.65","Windows 10","21","female","right","Tue Oct 22 2024 17:06:40 GMT+0200 (Mitteleuropäische Sommerzeit)","3","43","1","1729610588169"
"1188","f","SpeechGestureMatch","../RequiredFiles/videos/JaKopfJa_f_no_gesture.mp4","Ist der Ball in der blauen Box?","Blue","Green","F","affirmation","na","speech","yes","na","female","gesture-speech","1280","720","edge-chromium","60.65","Windows 10","21","female","right","Tue Oct 22 2024 17:06:47 GMT+0200 (Mitteleuropäische Sommerzeit)","3","44","0","1729610588169"
"1374","f","SpeechGestureMatch","../RequiredFiles/videos/NeinKopfNein_f_no_gesture.mp4","Ist der Ball in der grünen Box?","Blue","Green","F","negation","na","speech","no","na","female","gesture-speech","1280","720","edge-chromium","60.65","Windows 10","21","female","right","Tue Oct 22 2024 17:06:54 GMT+0200 (Mitteleuropäische Sommerzeit)","3","45","0","1729610588169"
"1081","j","SpeechGestureMatch","../RequiredFiles/videos/NeinKopfJa_m.mp4","Ist der Ball in der blauen Box?","Blue","Green","J","negation","mismatch","speech","no","HeadNod","male","gesture-speech","1280","720","edge-chromium","60.65","Windows 10","21","female","right","Tue Oct 22 2024 17:07:00 GMT+0200 (Mitteleuropäische Sommerzeit)","3","46","0","1729610588169"
"921","j","SpeechGestureMatch","../RequiredFiles/videos/NeinKopfNein_m_no_gesture.mp4","Ist der Ball in der grünen Box?","Green","Blue","J","negation","na","speech","no","na","male","gesture-speech","1280","720","edge-chromium","60.65","Windows 10","21","female","right","Tue Oct 22 2024 17:07:07 GMT+0200 (Mitteleuropäische Sommerzeit)","3","47","0","1729610588169"
"980","j","SpeechGestureMatch","../RequiredFiles/videos/NeinKopfNein_f.mp4","Ist der Ball in der blauen Box?","Blue","Green","J","negation","match","speech","no","HeadShake","female","gesture-speech","1280","720","edge-chromium","60.65","Windows 10","21","female","right","Tue Oct 22 2024 17:07:13 GMT+0200 (Mitteleuropäische Sommerzeit)","3","48","0","1729610588169"
"844","j","SpeechGestureMatch","../RequiredFiles/videos/JaKopfJa_f_no_gesture.mp4","Ist der Ball in der blauen Box?","Green","Blue","J","affirmation","na","speech","yes","na","female","gesture-speech","1280","720","edge-chromium","60.65","Windows 10","21","female","right","Tue Oct 22 2024 17:07:20 GMT+0200 (Mitteleuropäische Sommerzeit)","3","49","0","1729610588169"
"862","j","SpeechGestureMatch","../RequiredFiles/videos/NeinKopfJa_f.mp4","Ist der Ball in der blauen Box?","Blue","Green","J","negation","mismatch","speech","no","HeadNod","female","gesture-speech","1280","720","edge-chromium","60.65","Windows 10","21","female","right","Tue Oct 22 2024 17:07:26 GMT+0200 (Mitteleuropäische Sommerzeit)","3","50","0","1729610588169"
"1676","j","SpeechGestureMatch","../RequiredFiles/videos/NeinKopfJa_m.mp4","Ist der Ball in der blauen Box?","Blue","Green","J","negation","mismatch","speech","no","HeadNod","male","gesture-speech","1280","720","edge-chromium","60.65","Windows 10","21","female","right","Tue Oct 22 2024 17:07:33 GMT+0200 (Mitteleuropäische Sommerzeit)","3","51","0","1729610588169"
"1061","f","SpeechGestureMatch","../RequiredFiles/videos/NeinKopfNein_f_no_gesture.mp4","Ist der Ball in der blauen Box?","Green","Blue","F","negation","na","speech","no","na","female","gesture-speech","1280","720","edge-chromium","60.65","Windows 10","21","female","right","Tue Oct 22 2024 17:07:40 GMT+0200 (Mitteleuropäische Sommerzeit)","3","52","0","1729610588169"
"1008","f","SpeechGestureMatch","../RequiredFiles/videos/JaKopfNein_m.mp4","Ist der Ball in der blauen Box?","Blue","Green","F","affirmation","mismatch","speech","yes","HeadShake","male","gesture-speech","1280","720","edge-chromium","60.65","Windows 10","21","female","right","Tue Oct 22 2024 17:07:46 GMT+0200 (Mitteleuropäische Sommerzeit)","3","53","0","1729610588169"
"825","j","SpeechGestureMatch","../RequiredFiles/videos/JaKopfNein_m.mp4","Ist der Ball in der grünen Box?","Blue","Green","J","affirmation","mismatch","speech","yes","HeadShake","male","gesture-speech","1280","720","edge-chromium","60.65","Windows 10","21","female","right","Tue Oct 22 2024 17:07:53 GMT+0200 (Mitteleuropäische Sommerzeit)","3","54","0","1729610588169"
"1432","j","SpeechGestureMatch","../RequiredFiles/videos/NeinKopfJa_f.mp4","Ist der Ball in der grünen Box?","Green","Blue","J","negation","mismatch","speech","no","HeadNod","female","gesture-speech","1280","720","edge-chromium","60.65","Windows 10","21","female","right","Tue Oct 22 2024 17:08:00 GMT+0200 (Mitteleuropäische Sommerzeit)","3","55","0","1729610588169"
"1000","j","SpeechGestureMatch","../RequiredFiles/videos/NeinKopfNein_f.mp4","Ist der Ball in der blauen Box?","Blue","Green","J","negation","match","speech","no","HeadShake","female","gesture-speech","1280","720","edge-chromium","60.65","Windows 10","21","female","right","Tue Oct 22 2024 17:08:06 GMT+0200 (Mitteleuropäische Sommerzeit)","3","56","0","1729610588169"
"847","f","SpeechGestureMatch","../RequiredFiles/videos/JaKopfJa_f.mp4","Ist der Ball in der blauen Box?","Blue","Green","F","affirmation","match","speech","yes","HeadNod","female","gesture-speech","1280","720","edge-chromium","60.65","Windows 10","21","female","right","Tue Oct 22 2024 17:08:13 GMT+0200 (Mitteleuropäische Sommerzeit)","3","57","0","1729610588169"
"1411","f","SpeechGestureMatch","../RequiredFiles/videos/JaKopfJa_f_no_gesture.mp4","Ist der Ball in der grünen Box?","Green","Blue","F","affirmation","na","speech","yes","na","female","gesture-speech","1280","720","edge-chromium","60.65","Windows 10","21","female","right","Tue Oct 22 2024 17:08:20 GMT+0200 (Mitteleuropäische Sommerzeit)","3","58","0","1729610588169"
"872","j","SpeechGestureMatch","../RequiredFiles/videos/JaKopfJa_f.mp4","Ist der Ball in der blauen Box?","Green","Blue","J","affirmation","match","speech","yes","HeadNod","female","gesture-speech","1280","720","edge-chromium","60.65","Windows 10","21","female","right","Tue Oct 22 2024 17:08:26 GMT+0200 (Mitteleuropäische Sommerzeit)","3","59","0","1729610588169"
"893","j","SpeechGestureMatch","../RequiredFiles/videos/JaKopfJa_f_no_gesture.mp4","Ist der Ball in der grünen Box?","Blue","Green","J","affirmation","na","speech","yes","na","female","gesture-speech","1280","720","edge-chromium","60.65","Windows 10","21","female","right","Tue Oct 22 2024 17:08:32 GMT+0200 (Mitteleuropäische Sommerzeit)","3","60","0","1729610588169"
"1127","j","SpeechGestureMatch","../RequiredFiles/videos/JaKopfNein_m_no_gesture.mp4","Ist der Ball in der grünen Box?","Blue","Green","J","affirmation","na","speech","yes","na","male","gesture-speech","1280","720","edge-chromium","60.65","Windows 10","21","female","right","Tue Oct 22 2024 17:08:39 GMT+0200 (Mitteleuropäische Sommerzeit)","3","61","0","1729610588169"
"797","j","SpeechGestureMatch","../RequiredFiles/videos/NeinKopfJa_f_no_gesture.mp4","Ist der Ball in der blauen Box?","Blue","Green","J","negation","na","speech","no","na","female","gesture-speech","1280","720","edge-chromium","60.65","Windows 10","21","female","right","Tue Oct 22 2024 17:08:45 GMT+0200 (Mitteleuropäische Sommerzeit)","3","62","0","1729610588169"
"778","j","SpeechGestureMatch","../RequiredFiles/videos/JaKopfNein_f.mp4","Ist der Ball in der blauen Box?","Green","Blue","J","affirmation","mismatch","speech","yes","HeadShake","female","gesture-speech","1280","720","edge-chromium","60.65","Windows 10","21","female","right","Tue Oct 22 2024 17:08:52 GMT+0200 (Mitteleuropäische Sommerzeit)","3","63","0","1729610588169"
"759","f","SpeechGestureMatch","../RequiredFiles/videos/NeinKopfNein_m.mp4","Ist der Ball in der blauen Box?","Green","Blue","F","negation","match","speech","no","HeadShake","male","gesture-speech","1280","720","edge-chromium","60.65","Windows 10","21","female","right","Tue Oct 22 2024 17:08:58 GMT+0200 (Mitteleuropäische Sommerzeit)","3","64","0","1729610588169"
"905","j","SpeechGestureMatch","../RequiredFiles/videos/JaKopfJa_f.mp4","Ist der Ball in der blauen Box?","Green","Blue","J","affirmation","match","speech","yes","HeadNod","female","gesture-speech","1280","720","edge-chromium","60.65","Windows 10","21","female","right","Tue Oct 22 2024 17:09:05 GMT+0200 (Mitteleuropäische Sommerzeit)","3","65","0","1729610588169"
"780","j","SpeechGestureMatch","../RequiredFiles/videos/JaKopfJa_m_no_gesture.mp4","Ist der Ball in der grünen Box?","Blue","Green","J","affirmation","na","speech","yes","na","male","gesture-speech","1280","720","edge-chromium","60.65","Windows 10","21","female","right","Tue Oct 22 2024 17:09:11 GMT+0200 (Mitteleuropäische Sommerzeit)","3","66","0","1729610588169"
"872","f","SpeechGestureMatch","../RequiredFiles/videos/NeinKopfNein_m.mp4","Ist der Ball in der grünen Box?","Blue","Green","F","negation","match","speech","no","HeadShake","male","gesture-speech","1280","720","edge-chromium","60.65","Windows 10","21","female","right","Tue Oct 22 2024 17:09:17 GMT+0200 (Mitteleuropäische Sommerzeit)","3","67","0","1729610588169"
"876","j","SpeechGestureMatch","../RequiredFiles/videos/JaKopfJa_f.mp4","Ist der Ball in der grünen Box?","Blue","Green","J","affirmation","match","speech","yes","HeadNod","female","gesture-speech","1280","720","edge-chromium","60.65","Windows 10","21","female","right","Tue Oct 22 2024 17:09:24 GMT+0200 (Mitteleuropäische Sommerzeit)","3","68","0","1729610588169"
"880","j","SpeechGestureMatch","../RequiredFiles/videos/NeinKopfNein_f.mp4","Ist der Ball in der grünen Box?","Green","Blue","J","negation","match","speech","no","HeadShake","female","gesture-speech","1280","720","edge-chromium","60.65","Windows 10","21","female","right","Tue Oct 22 2024 17:09:30 GMT+0200 (Mitteleuropäische Sommerzeit)","3","69","0","1729610588169"
"1301","j","SpeechGestureMatch","../RequiredFiles/videos/NeinKopfNein_f_no_gesture.mp4","Ist der Ball in der blauen Box?","Blue","Green","J","negation","na","speech","no","na","female","gesture-speech","1280","720","edge-chromium","60.65","Windows 10","21","female","right","Tue Oct 22 2024 17:09:37 GMT+0200 (Mitteleuropäische Sommerzeit)","3","70","0","1729610588169"
"850","j","SpeechGestureMatch","../RequiredFiles/videos/NeinKopfNein_m.mp4","Ist der Ball in der blauen Box?","Blue","Green","J","negation","match","speech","no","HeadShake","male","gesture-speech","1280","720","edge-chromium","60.65","Windows 10","21","female","right","Tue Oct 22 2024 17:09:43 GMT+0200 (Mitteleuropäische Sommerzeit)","3","71","0","1729610588169"
"991","f","SpeechGestureMatch","../RequiredFiles/videos/JaKopfNein_f_no_gesture.mp4","Ist der Ball in der grünen Box?","Green","Blue","F","affirmation","na","speech","yes","na","female","gesture-speech","1280","720","edge-chromium","60.65","Windows 10","21","female","right","Tue Oct 22 2024 17:09:50 GMT+0200 (Mitteleuropäische Sommerzeit)","3","72","0","1729610588169"
"958","f","SpeechGestureMatch","../RequiredFiles/videos/NeinKopfJa_m.mp4","Ist der Ball in der grünen Box?","Blue","Green","F","negation","mismatch","speech","no","HeadNod","male","gesture-speech","1280","720","edge-chromium","60.65","Windows 10","21","female","right","Tue Oct 22 2024 17:09:56 GMT+0200 (Mitteleuropäische Sommerzeit)","3","73","0","1729610588169"
"861","f","SpeechGestureMatch","../RequiredFiles/videos/NeinKopfNein_f.mp4","Ist der Ball in der grünen Box?","Blue","Green","F","negation","match","speech","no","HeadShake","female","gesture-speech","1280","720","edge-chromium","60.65","Windows 10","21","female","right","Tue Oct 22 2024 17:10:03 GMT+0200 (Mitteleuropäische Sommerzeit)","3","74","0","1729610588169"
"807","f","SpeechGestureMatch","../RequiredFiles/videos/NeinKopfJa_f.mp4","Ist der Ball in der blauen Box?","Green","Blue","F","negation","mismatch","speech","no","HeadNod","female","gesture-speech","1280","720","edge-chromium","60.65","Windows 10","21","female","right","Tue Oct 22 2024 17:10:09 GMT+0200 (Mitteleuropäische Sommerzeit)","3","75","0","1729610588169"
"773","j","SpeechGestureMatch","../RequiredFiles/videos/JaKopfJa_f.mp4","Ist der Ball in der grünen Box?","Blue","Green","J","affirmation","match","speech","yes","HeadNod","female","gesture-speech","1280","720","edge-chromium","60.65","Windows 10","21","female","right","Tue Oct 22 2024 17:10:15 GMT+0200 (Mitteleuropäische Sommerzeit)","3","76","0","1729610588169"
"795","f","SpeechGestureMatch","../RequiredFiles/videos/JaKopfNein_f_no_gesture.mp4","Ist der Ball in der blauen Box?","Blue","Green","F","affirmation","na","speech","yes","na","female","gesture-speech","1280","720","edge-chromium","60.65","Windows 10","21","female","right","Tue Oct 22 2024 17:10:22 GMT+0200 (Mitteleuropäische Sommerzeit)","3","77","0","1729610588169"
