"rt","response","stim","video","question","box_colour_left","box_colour_right","correct_key","polarity","matching","modality","verbal","gesture","speaker","order","width","height","browser","vsync_rate","os","age","gender","handedness","date","blockNum","trialNum","error","vpNum"
"1993","j","SpeechGestureMatch","../RequiredFiles/videos/NeinDaumenrunter_m.mp4","Ist der Ball in der grünen Box?","Green","Blue","J","negation","match","gesture","no","ThumbDown","male","gesture-speech","1440","900","safari","60","Mac OS","23","female","right","Wed Oct 23 2024 10:33:25 GMT+0200 (Mitteleuropäische Sommerzeit)","1","1","0","1729675767958"
"2618","f","SpeechGestureMatch","../RequiredFiles/videos/JaDaumenrunter_f.mp4","Ist der Ball in der blauen Box?","Green","Blue","F","negation","mismatch","gesture","yes","ThumbDown","female","gesture-speech","1440","900","safari","60","Mac OS","23","female","right","Wed Oct 23 2024 10:33:33 GMT+0200 (Mitteleuropäische Sommerzeit)","1","2","0","1729675767958"
"3643","j","SpeechGestureMatch","../RequiredFiles/videos/NeinDaumenrunter_m.mp4","Ist der Ball in der blauen Box?","Blue","Green","J","negation","match","gesture","no","ThumbDown","male","gesture-speech","1440","900","safari","60","Mac OS","23","female","right","Wed Oct 23 2024 10:33:42 GMT+0200 (Mitteleuropäische Sommerzeit)","1","3","0","1729675767958"
"1856","f","SpeechGestureMatch","../RequiredFiles/videos/NeinDaumenrunter_f.mp4","Ist der Ball in der blauen Box?","Green","Blue","F","negation","match","gesture","no","ThumbDown","female","gesture-speech","1440","900","safari","60","Mac OS","23","female","right","Wed Oct 23 2024 10:33:49 GMT+0200 (Mitteleuropäische Sommerzeit)","1","4","0","1729675767958"
"2192","f","SpeechGestureMatch","../RequiredFiles/videos/JaDaumenrunter_m.mp4","Ist der Ball in der blauen Box?","Green","Blue","F","negation","mismatch","gesture","yes","ThumbDown","male","gesture-speech","1440","900","safari","60","Mac OS","23","female","right","Wed Oct 23 2024 10:33:57 GMT+0200 (Mitteleuropäische Sommerzeit)","1","5","0","1729675767958"
"2026","j","SpeechGestureMatch","../RequiredFiles/videos/NeinDaumenrunter_f_no_sound.mp4","Ist der Ball in der blauen Box?","Blue","Green","J","negation","na","gesture","na","ThumbDown","female","gesture-speech","1440","900","safari","60","Mac OS","23","female","right","Wed Oct 23 2024 10:34:04 GMT+0200 (Mitteleuropäische Sommerzeit)","1","6","0","1729675767958"
"3254","f","SpeechGestureMatch","../RequiredFiles/videos/NeinDaumenrunter_m.mp4","Ist der Ball in der grünen Box?","Blue","Green","F","negation","match","gesture","no","ThumbDown","male","gesture-speech","1440","900","safari","60","Mac OS","23","female","right","Wed Oct 23 2024 10:34:13 GMT+0200 (Mitteleuropäische Sommerzeit)","1","7","0","1729675767958"
"1929","j","SpeechGestureMatch","../RequiredFiles/videos/NeinDaumenrunter_f.mp4","Ist der Ball in der blauen Box?","Blue","Green","J","negation","match","gesture","no","ThumbDown","female","gesture-speech","1440","900","safari","60","Mac OS","23","female","right","Wed Oct 23 2024 10:34:21 GMT+0200 (Mitteleuropäische Sommerzeit)","1","8","0","1729675767958"
"1778","f","SpeechGestureMatch","../RequiredFiles/videos/JaDaumenhoch_f_no_sound.mp4","Ist der Ball in der grünen Box?","Green","Blue","F","affirmation","na","gesture","na","ThumbUp","female","gesture-speech","1440","900","safari","60","Mac OS","23","female","right","Wed Oct 23 2024 10:34:28 GMT+0200 (Mitteleuropäische Sommerzeit)","1","9","0","1729675767958"
"1745","j","SpeechGestureMatch","../RequiredFiles/videos/JaDaumenhoch_f.mp4","Ist der Ball in der grünen Box?","Blue","Green","J","affirmation","match","gesture","yes","ThumbUp","female","gesture-speech","1440","900","safari","60","Mac OS","23","female","right","Wed Oct 23 2024 10:34:35 GMT+0200 (Mitteleuropäische Sommerzeit)","1","10","0","1729675767958"
"1495","j","SpeechGestureMatch","../RequiredFiles/videos/NeinDaumenrunter_m_no_sound.mp4","Ist der Ball in der grünen Box?","Green","Blue","J","negation","na","gesture","na","ThumbDown","male","gesture-speech","1440","900","safari","60","Mac OS","23","female","right","Wed Oct 23 2024 10:34:42 GMT+0200 (Mitteleuropäische Sommerzeit)","1","11","0","1729675767958"
"1978","f","SpeechGestureMatch","../RequiredFiles/videos/JaDaumenrunter_m.mp4","Ist der Ball in der grünen Box?","Blue","Green","F","negation","mismatch","gesture","yes","ThumbDown","male","gesture-speech","1440","900","safari","60","Mac OS","23","female","right","Wed Oct 23 2024 10:34:50 GMT+0200 (Mitteleuropäische Sommerzeit)","1","12","0","1729675767958"
"1992","f","SpeechGestureMatch","../RequiredFiles/videos/JaDaumenhoch_m.mp4","Ist der Ball in der grünen Box?","Green","Blue","F","affirmation","match","gesture","yes","ThumbUp","male","gesture-speech","1440","900","safari","60","Mac OS","23","female","right","Wed Oct 23 2024 10:34:57 GMT+0200 (Mitteleuropäische Sommerzeit)","1","13","0","1729675767958"
"1341","j","SpeechGestureMatch","../RequiredFiles/videos/JaDaumenhoch_m_no_sound.mp4","Ist der Ball in der grünen Box?","Blue","Green","J","affirmation","na","gesture","na","ThumbUp","male","gesture-speech","1440","900","safari","60","Mac OS","23","female","right","Wed Oct 23 2024 10:35:04 GMT+0200 (Mitteleuropäische Sommerzeit)","1","14","0","1729675767958"
"2353","j","SpeechGestureMatch","../RequiredFiles/videos/NeinDaumenrunter_f.mp4","Ist der Ball in der grünen Box?","Green","Blue","J","negation","match","gesture","no","ThumbDown","female","gesture-speech","1440","900","safari","60","Mac OS","23","female","right","Wed Oct 23 2024 10:35:12 GMT+0200 (Mitteleuropäische Sommerzeit)","1","15","0","1729675767958"
"1708","j","SpeechGestureMatch","../RequiredFiles/videos/NeinDaumenrunter_m.mp4","Ist der Ball in der grünen Box?","Green","Blue","J","negation","match","gesture","no","ThumbDown","male","gesture-speech","1440","900","safari","60","Mac OS","23","female","right","Wed Oct 23 2024 10:35:19 GMT+0200 (Mitteleuropäische Sommerzeit)","1","16","0","1729675767958"
"3256","f","SpeechGestureMatch","../RequiredFiles/videos/NeinDaumenhoch_f.mp4","Ist der Ball in der blauen Box?","Blue","Green","F","affirmation","mismatch","gesture","no","ThumbUp","female","gesture-speech","1440","900","safari","60","Mac OS","23","female","right","Wed Oct 23 2024 10:35:28 GMT+0200 (Mitteleuropäische Sommerzeit)","1","17","0","1729675767958"
"2026","f","SpeechGestureMatch","../RequiredFiles/videos/NeinDaumenhoch_m.mp4","Ist der Ball in der blauen Box?","Blue","Green","F","affirmation","mismatch","gesture","no","ThumbUp","male","gesture-speech","1440","900","safari","60","Mac OS","23","female","right","Wed Oct 23 2024 10:35:35 GMT+0200 (Mitteleuropäische Sommerzeit)","1","18","0","1729675767958"
"1511","f","SpeechGestureMatch","../RequiredFiles/videos/JaDaumenhoch_m_no_sound.mp4","Ist der Ball in der blauen Box?","Blue","Green","F","affirmation","na","gesture","na","ThumbUp","male","gesture-speech","1440","900","safari","60","Mac OS","23","female","right","Wed Oct 23 2024 10:35:42 GMT+0200 (Mitteleuropäische Sommerzeit)","1","19","0","1729675767958"
"1671","j","SpeechGestureMatch","../RequiredFiles/videos/JaDaumenhoch_m.mp4","Ist der Ball in der blauen Box?","Green","Blue","J","affirmation","match","gesture","yes","ThumbUp","male","gesture-speech","1440","900","safari","60","Mac OS","23","female","right","Wed Oct 23 2024 10:35:50 GMT+0200 (Mitteleuropäische Sommerzeit)","1","20","0","1729675767958"
"3711","j","SpeechGestureMatch","../RequiredFiles/videos/JaDaumenhoch_f.mp4","Ist der Ball in der blauen Box?","Green","Blue","J","affirmation","match","gesture","yes","ThumbUp","female","gesture-speech","1440","900","safari","60","Mac OS","23","female","right","Wed Oct 23 2024 10:35:59 GMT+0200 (Mitteleuropäische Sommerzeit)","1","21","0","1729675767958"
"1758","j","SpeechGestureMatch","../RequiredFiles/videos/NeinDaumenhoch_f.mp4","Ist der Ball in der blauen Box?","Green","Blue","J","affirmation","mismatch","gesture","no","ThumbUp","female","gesture-speech","1440","900","safari","60","Mac OS","23","female","right","Wed Oct 23 2024 10:36:06 GMT+0200 (Mitteleuropäische Sommerzeit)","1","22","0","1729675767958"
"1303","f","SpeechGestureMatch","../RequiredFiles/videos/NeinDaumenrunter_m_no_sound.mp4","Ist der Ball in der blauen Box?","Green","Blue","F","negation","na","gesture","na","ThumbDown","male","gesture-speech","1440","900","safari","60","Mac OS","23","female","right","Wed Oct 23 2024 10:36:13 GMT+0200 (Mitteleuropäische Sommerzeit)","1","23","0","1729675767958"
"2681","j","SpeechGestureMatch","../RequiredFiles/videos/JaDaumenrunter_m.mp4","Ist der Ball in der blauen Box?","Blue","Green","J","negation","mismatch","gesture","yes","ThumbDown","male","gesture-speech","1440","900","safari","60","Mac OS","23","female","right","Wed Oct 23 2024 10:36:21 GMT+0200 (Mitteleuropäische Sommerzeit)","1","24","0","1729675767958"
"1627","f","SpeechGestureMatch","../RequiredFiles/videos/NeinDaumenrunter_f.mp4","Ist der Ball in der grünen Box?","Blue","Green","F","negation","match","gesture","no","ThumbDown","female","gesture-speech","1440","900","safari","60","Mac OS","23","female","right","Wed Oct 23 2024 10:36:28 GMT+0200 (Mitteleuropäische Sommerzeit)","1","25","0","1729675767958"
"1587","f","SpeechGestureMatch","../RequiredFiles/videos/JaDaumenrunter_m_no_sound.mp4","Ist der Ball in der grünen Box?","Blue","Green","F","negation","na","gesture","na","ThumbDown","male","gesture-speech","1440","900","safari","60","Mac OS","23","female","right","Wed Oct 23 2024 10:36:35 GMT+0200 (Mitteleuropäische Sommerzeit)","1","26","0","1729675767958"
"2028","f","SpeechGestureMatch","../RequiredFiles/videos/NeinDaumenhoch_f_no_sound.mp4","Ist der Ball in der grünen Box?","Green","Blue","F","affirmation","na","gesture","na","ThumbUp","female","gesture-speech","1440","900","safari","60","Mac OS","23","female","right","Wed Oct 23 2024 10:36:43 GMT+0200 (Mitteleuropäische Sommerzeit)","1","27","0","1729675767958"
"1995","j","SpeechGestureMatch","../RequiredFiles/videos/NeinDaumenhoch_m.mp4","Ist der Ball in der blauen Box?","Green","Blue","J","affirmation","mismatch","gesture","no","ThumbUp","male","gesture-speech","1440","900","safari","60","Mac OS","23","female","right","Wed Oct 23 2024 10:36:50 GMT+0200 (Mitteleuropäische Sommerzeit)","1","28","0","1729675767958"
"1737","f","SpeechGestureMatch","../RequiredFiles/videos/NeinDaumenhoch_f.mp4","Ist der Ball in der grünen Box?","Green","Blue","F","affirmation","mismatch","gesture","no","ThumbUp","female","gesture-speech","1440","900","safari","60","Mac OS","23","female","right","Wed Oct 23 2024 10:36:58 GMT+0200 (Mitteleuropäische Sommerzeit)","1","29","0","1729675767958"
"1575","f","SpeechGestureMatch","../RequiredFiles/videos/JaDaumenhoch_f.mp4","Ist der Ball in der blauen Box?","Blue","Green","F","affirmation","match","gesture","yes","ThumbUp","female","gesture-speech","1440","900","safari","60","Mac OS","23","female","right","Wed Oct 23 2024 10:37:05 GMT+0200 (Mitteleuropäische Sommerzeit)","1","30","0","1729675767958"
"1192","j","SpeechGestureMatch","../RequiredFiles/videos/NeinDaumenhoch_f_no_sound.mp4","Ist der Ball in der blauen Box?","Green","Blue","J","affirmation","na","gesture","na","ThumbUp","female","gesture-speech","1440","900","safari","60","Mac OS","23","female","right","Wed Oct 23 2024 10:37:12 GMT+0200 (Mitteleuropäische Sommerzeit)","1","31","0","1729675767958"
"1629","j","SpeechGestureMatch","../RequiredFiles/videos/NeinDaumenhoch_f.mp4","Ist der Ball in der blauen Box?","Green","Blue","J","affirmation","mismatch","gesture","no","ThumbUp","female","gesture-speech","1440","900","safari","60","Mac OS","23","female","right","Wed Oct 23 2024 10:37:19 GMT+0200 (Mitteleuropäische Sommerzeit)","1","32","0","1729675767958"
"1535","f","SpeechGestureMatch","../RequiredFiles/videos/JaDaumenrunter_f.mp4","Ist der Ball in der grünen Box?","Blue","Green","F","negation","mismatch","gesture","yes","ThumbDown","female","gesture-speech","1440","900","safari","60","Mac OS","23","female","right","Wed Oct 23 2024 10:37:26 GMT+0200 (Mitteleuropäische Sommerzeit)","1","33","0","1729675767958"
"1121","j","SpeechGestureMatch","../RequiredFiles/videos/JaDaumenhoch_f_no_sound.mp4","Ist der Ball in der grünen Box?","Blue","Green","J","affirmation","na","gesture","na","ThumbUp","female","gesture-speech","1440","900","safari","60","Mac OS","23","female","right","Wed Oct 23 2024 10:37:32 GMT+0200 (Mitteleuropäische Sommerzeit)","1","34","0","1729675767958"
"1652","j","SpeechGestureMatch","../RequiredFiles/videos/NeinDaumenhoch_f.mp4","Ist der Ball in der grünen Box?","Blue","Green","J","affirmation","mismatch","gesture","no","ThumbUp","female","gesture-speech","1440","900","safari","60","Mac OS","23","female","right","Wed Oct 23 2024 10:37:40 GMT+0200 (Mitteleuropäische Sommerzeit)","1","35","0","1729675767958"
"1476","j","SpeechGestureMatch","../RequiredFiles/videos/NeinDaumenhoch_m.mp4","Ist der Ball in der grünen Box?","Blue","Green","J","affirmation","mismatch","gesture","no","ThumbUp","male","gesture-speech","1440","900","safari","60","Mac OS","23","female","right","Wed Oct 23 2024 10:37:47 GMT+0200 (Mitteleuropäische Sommerzeit)","1","36","0","1729675767958"
"1689","f","SpeechGestureMatch","../RequiredFiles/videos/JaDaumenhoch_m.mp4","Ist der Ball in der blauen Box?","Blue","Green","F","affirmation","match","gesture","yes","ThumbUp","male","gesture-speech","1440","900","safari","60","Mac OS","23","female","right","Wed Oct 23 2024 10:37:54 GMT+0200 (Mitteleuropäische Sommerzeit)","1","37","0","1729675767958"
"1488","j","SpeechGestureMatch","../RequiredFiles/videos/JaDaumenrunter_f_no_sound.mp4","Ist der Ball in der blauen Box?","Blue","Green","J","negation","na","gesture","na","ThumbDown","female","gesture-speech","1440","900","safari","60","Mac OS","23","female","right","Wed Oct 23 2024 10:38:01 GMT+0200 (Mitteleuropäische Sommerzeit)","1","38","0","1729675767958"
"2416","j","SpeechGestureMatch","../RequiredFiles/videos/JaDaumenrunter_m.mp4","Ist der Ball in der blauen Box?","Blue","Green","J","negation","mismatch","gesture","yes","ThumbDown","male","gesture-speech","1440","900","safari","60","Mac OS","23","female","right","Wed Oct 23 2024 10:38:09 GMT+0200 (Mitteleuropäische Sommerzeit)","1","39","0","1729675767958"
"1877","j","SpeechGestureMatch","../RequiredFiles/videos/JaDaumenhoch_f_no_sound.mp4","Ist der Ball in der blauen Box?","Green","Blue","J","affirmation","na","gesture","na","ThumbUp","female","gesture-speech","1440","900","safari","60","Mac OS","23","female","right","Wed Oct 23 2024 10:38:16 GMT+0200 (Mitteleuropäische Sommerzeit)","1","40","0","1729675767958"
"2318","f","SpeechGestureMatch","../RequiredFiles/videos/JaDaumenrunter_f_no_sound.mp4","Ist der Ball in der grünen Box?","Blue","Green","F","negation","na","gesture","na","ThumbDown","female","gesture-speech","1440","900","safari","60","Mac OS","23","female","right","Wed Oct 23 2024 10:38:24 GMT+0200 (Mitteleuropäische Sommerzeit)","1","41","0","1729675767958"
"912","j","SpeechGestureMatch","../RequiredFiles/videos/JaDaumenhoch_f_no_sound.mp4","Ist der Ball in der blauen Box?","Blue","Green","F","affirmation","na","gesture","na","ThumbUp","female","gesture-speech","1440","900","safari","60","Mac OS","23","female","right","Wed Oct 23 2024 10:38:30 GMT+0200 (Mitteleuropäische Sommerzeit)","1","42","1","1729675767958"
"1965","j","SpeechGestureMatch","../RequiredFiles/videos/JaDaumenrunter_f.mp4","Ist der Ball in der blauen Box?","Blue","Green","J","negation","mismatch","gesture","yes","ThumbDown","female","gesture-speech","1440","900","safari","60","Mac OS","23","female","right","Wed Oct 23 2024 10:38:38 GMT+0200 (Mitteleuropäische Sommerzeit)","1","43","0","1729675767958"
"4074","f","SpeechGestureMatch","../RequiredFiles/videos/NeinDaumenhoch_m.mp4","Ist der Ball in der blauen Box?","Blue","Green","F","affirmation","mismatch","gesture","no","ThumbUp","male","gesture-speech","1440","900","safari","60","Mac OS","23","female","right","Wed Oct 23 2024 10:38:47 GMT+0200 (Mitteleuropäische Sommerzeit)","1","44","0","1729675767958"
"2187","j","SpeechGestureMatch","../RequiredFiles/videos/NeinDaumenhoch_m.mp4","Ist der Ball in der blauen Box?","Green","Blue","J","affirmation","mismatch","gesture","no","ThumbUp","male","gesture-speech","1440","900","safari","60","Mac OS","23","female","right","Wed Oct 23 2024 10:38:55 GMT+0200 (Mitteleuropäische Sommerzeit)","1","45","0","1729675767958"
"1594","f","SpeechGestureMatch","../RequiredFiles/videos/NeinDaumenhoch_f.mp4","Ist der Ball in der grünen Box?","Green","Blue","F","affirmation","mismatch","gesture","no","ThumbUp","female","gesture-speech","1440","900","safari","60","Mac OS","23","female","right","Wed Oct 23 2024 10:39:02 GMT+0200 (Mitteleuropäische Sommerzeit)","1","46","0","1729675767958"
"1212","j","SpeechGestureMatch","../RequiredFiles/videos/JaDaumenrunter_f_no_sound.mp4","Ist der Ball in der grünen Box?","Green","Blue","J","negation","na","gesture","na","ThumbDown","female","gesture-speech","1440","900","safari","60","Mac OS","23","female","right","Wed Oct 23 2024 10:39:09 GMT+0200 (Mitteleuropäische Sommerzeit)","1","47","0","1729675767958"
"1950","f","SpeechGestureMatch","../RequiredFiles/videos/JaDaumenhoch_m.mp4","Ist der Ball in der blauen Box?","Blue","Green","F","affirmation","match","gesture","yes","ThumbUp","male","gesture-speech","1440","900","safari","60","Mac OS","23","female","right","Wed Oct 23 2024 10:39:16 GMT+0200 (Mitteleuropäische Sommerzeit)","1","48","0","1729675767958"
"2747","f","SpeechGestureMatch","../RequiredFiles/videos/NeinDaumenrunter_m.mp4","Ist der Ball in der blauen Box?","Green","Blue","F","negation","match","gesture","no","ThumbDown","male","gesture-speech","1440","900","safari","60","Mac OS","23","female","right","Wed Oct 23 2024 10:39:25 GMT+0200 (Mitteleuropäische Sommerzeit)","1","49","0","1729675767958"
"1553","j","SpeechGestureMatch","../RequiredFiles/videos/JaDaumenhoch_f.mp4","Ist der Ball in der blauen Box?","Green","Blue","J","affirmation","match","gesture","yes","ThumbUp","female","gesture-speech","1440","900","safari","60","Mac OS","23","female","right","Wed Oct 23 2024 10:39:32 GMT+0200 (Mitteleuropäische Sommerzeit)","1","50","0","1729675767958"
"2270","f","SpeechGestureMatch","../RequiredFiles/videos/JaDaumenhoch_f.mp4","Ist der Ball in der grünen Box?","Green","Blue","F","affirmation","match","gesture","yes","ThumbUp","female","gesture-speech","1440","900","safari","60","Mac OS","23","female","right","Wed Oct 23 2024 10:39:39 GMT+0200 (Mitteleuropäische Sommerzeit)","1","51","0","1729675767958"
"1904","f","SpeechGestureMatch","../RequiredFiles/videos/NeinDaumenrunter_f.mp4","Ist der Ball in der grünen Box?","Blue","Green","F","negation","match","gesture","no","ThumbDown","female","gesture-speech","1440","900","safari","60","Mac OS","23","female","right","Wed Oct 23 2024 10:39:47 GMT+0200 (Mitteleuropäische Sommerzeit)","1","52","0","1729675767958"
"1567","j","SpeechGestureMatch","../RequiredFiles/videos/JaDaumenhoch_m.mp4","Ist der Ball in der grünen Box?","Blue","Green","J","affirmation","match","gesture","yes","ThumbUp","male","gesture-speech","1440","900","safari","60","Mac OS","23","female","right","Wed Oct 23 2024 10:39:54 GMT+0200 (Mitteleuropäische Sommerzeit)","1","53","0","1729675767958"
"1871","f","SpeechGestureMatch","../RequiredFiles/videos/NeinDaumenrunter_f.mp4","Ist der Ball in der blauen Box?","Green","Blue","F","negation","match","gesture","no","ThumbDown","female","gesture-speech","1440","900","safari","60","Mac OS","23","female","right","Wed Oct 23 2024 10:40:01 GMT+0200 (Mitteleuropäische Sommerzeit)","1","54","0","1729675767958"
"1646","f","SpeechGestureMatch","../RequiredFiles/videos/JaDaumenrunter_m.mp4","Ist der Ball in der grünen Box?","Blue","Green","F","negation","mismatch","gesture","yes","ThumbDown","male","gesture-speech","1440","900","safari","60","Mac OS","23","female","right","Wed Oct 23 2024 10:40:09 GMT+0200 (Mitteleuropäische Sommerzeit)","1","55","0","1729675767958"
"1990","f","SpeechGestureMatch","../RequiredFiles/videos/JaDaumenrunter_m_no_sound.mp4","Ist der Ball in der blauen Box?","Green","Blue","F","negation","na","gesture","na","ThumbDown","male","gesture-speech","1440","900","safari","60","Mac OS","23","female","right","Wed Oct 23 2024 10:40:16 GMT+0200 (Mitteleuropäische Sommerzeit)","1","56","0","1729675767958"
"1896","j","SpeechGestureMatch","../RequiredFiles/videos/JaDaumenrunter_f.mp4","Ist der Ball in der grünen Box?","Green","Blue","J","negation","mismatch","gesture","yes","ThumbDown","female","gesture-speech","1440","900","safari","60","Mac OS","23","female","right","Wed Oct 23 2024 10:40:23 GMT+0200 (Mitteleuropäische Sommerzeit)","1","57","0","1729675767958"
"1673","j","SpeechGestureMatch","../RequiredFiles/videos/NeinDaumenhoch_m.mp4","Ist der Ball in der grünen Box?","Blue","Green","J","affirmation","mismatch","gesture","no","ThumbUp","male","gesture-speech","1440","900","safari","60","Mac OS","23","female","right","Wed Oct 23 2024 10:40:31 GMT+0200 (Mitteleuropäische Sommerzeit)","1","58","0","1729675767958"
"1486","f","SpeechGestureMatch","../RequiredFiles/videos/JaDaumenhoch_f.mp4","Ist der Ball in der blauen Box?","Blue","Green","F","affirmation","match","gesture","yes","ThumbUp","female","gesture-speech","1440","900","safari","60","Mac OS","23","female","right","Wed Oct 23 2024 10:40:38 GMT+0200 (Mitteleuropäische Sommerzeit)","1","59","0","1729675767958"
"1862","f","SpeechGestureMatch","../RequiredFiles/videos/NeinDaumenrunter_f_no_sound.mp4","Ist der Ball in der grünen Box?","Blue","Green","F","negation","na","gesture","na","ThumbDown","female","gesture-speech","1440","900","safari","60","Mac OS","23","female","right","Wed Oct 23 2024 10:40:45 GMT+0200 (Mitteleuropäische Sommerzeit)","1","60","0","1729675767958"
"3429","f","SpeechGestureMatch","../RequiredFiles/videos/NeinDaumenhoch_m_no_sound.mp4","Ist der Ball in der grünen Box?","Green","Blue","F","affirmation","na","gesture","na","ThumbUp","male","gesture-speech","1440","900","safari","60","Mac OS","23","female","right","Wed Oct 23 2024 10:40:54 GMT+0200 (Mitteleuropäische Sommerzeit)","1","61","0","1729675767958"
"2917","j","SpeechGestureMatch","../RequiredFiles/videos/JaDaumenhoch_f.mp4","Ist der Ball in der grünen Box?","Blue","Green","J","affirmation","match","gesture","yes","ThumbUp","female","gesture-speech","1440","900","safari","60","Mac OS","23","female","right","Wed Oct 23 2024 10:41:02 GMT+0200 (Mitteleuropäische Sommerzeit)","1","62","0","1729675767958"
"1790","j","SpeechGestureMatch","../RequiredFiles/videos/NeinDaumenrunter_m.mp4","Ist der Ball in der blauen Box?","Blue","Green","J","negation","match","gesture","no","ThumbDown","male","gesture-speech","1440","900","safari","60","Mac OS","23","female","right","Wed Oct 23 2024 10:41:10 GMT+0200 (Mitteleuropäische Sommerzeit)","1","63","0","1729675767958"
"1853","j","SpeechGestureMatch","../RequiredFiles/videos/JaDaumenrunter_m.mp4","Ist der Ball in der grünen Box?","Green","Blue","J","negation","mismatch","gesture","yes","ThumbDown","male","gesture-speech","1440","900","safari","60","Mac OS","23","female","right","Wed Oct 23 2024 10:41:17 GMT+0200 (Mitteleuropäische Sommerzeit)","1","64","0","1729675767958"
"2995","f","SpeechGestureMatch","../RequiredFiles/videos/JaDaumenhoch_f.mp4","Ist der Ball in der grünen Box?","Green","Blue","F","affirmation","match","gesture","yes","ThumbUp","female","gesture-speech","1440","900","safari","60","Mac OS","23","female","right","Wed Oct 23 2024 10:41:26 GMT+0200 (Mitteleuropäische Sommerzeit)","1","65","0","1729675767958"
"1506","f","SpeechGestureMatch","../RequiredFiles/videos/NeinDaumenrunter_m.mp4","Ist der Ball in der blauen Box?","Green","Blue","F","negation","match","gesture","no","ThumbDown","male","gesture-speech","1440","900","safari","60","Mac OS","23","female","right","Wed Oct 23 2024 10:41:33 GMT+0200 (Mitteleuropäische Sommerzeit)","1","66","0","1729675767958"
"1095","j","SpeechGestureMatch","../RequiredFiles/videos/NeinDaumenhoch_m_no_sound.mp4","Ist der Ball in der grünen Box?","Blue","Green","J","affirmation","na","gesture","na","ThumbUp","male","gesture-speech","1440","900","safari","60","Mac OS","23","female","right","Wed Oct 23 2024 10:41:39 GMT+0200 (Mitteleuropäische Sommerzeit)","1","67","0","1729675767958"
"2352","f","SpeechGestureMatch","../RequiredFiles/videos/NeinDaumenhoch_f_no_sound.mp4","Ist der Ball in der blauen Box?","Blue","Green","F","affirmation","na","gesture","na","ThumbUp","female","gesture-speech","1440","900","safari","60","Mac OS","23","female","right","Wed Oct 23 2024 10:41:47 GMT+0200 (Mitteleuropäische Sommerzeit)","1","68","0","1729675767958"
"4265","f","SpeechGestureMatch","../RequiredFiles/videos/NeinDaumenhoch_m.mp4","Ist der Ball in der grünen Box?","Green","Blue","F","affirmation","mismatch","gesture","no","ThumbUp","male","gesture-speech","1440","900","safari","60","Mac OS","23","female","right","Wed Oct 23 2024 10:41:57 GMT+0200 (Mitteleuropäische Sommerzeit)","1","69","0","1729675767958"
"2730","j","SpeechGestureMatch","../RequiredFiles/videos/JaDaumenrunter_f.mp4","Ist der Ball in der grünen Box?","Green","Blue","J","negation","mismatch","gesture","yes","ThumbDown","female","gesture-speech","1440","900","safari","60","Mac OS","23","female","right","Wed Oct 23 2024 10:42:05 GMT+0200 (Mitteleuropäische Sommerzeit)","1","70","0","1729675767958"
"2014","j","SpeechGestureMatch","../RequiredFiles/videos/JaDaumenrunter_m.mp4","Ist der Ball in der grünen Box?","Green","Blue","J","negation","mismatch","gesture","yes","ThumbDown","male","gesture-speech","1440","900","safari","60","Mac OS","23","female","right","Wed Oct 23 2024 10:42:13 GMT+0200 (Mitteleuropäische Sommerzeit)","1","71","0","1729675767958"
"1286","j","SpeechGestureMatch","../RequiredFiles/videos/NeinDaumenrunter_m_no_sound.mp4","Ist der Ball in der blauen Box?","Blue","Green","J","negation","na","gesture","na","ThumbDown","male","gesture-speech","1440","900","safari","60","Mac OS","23","female","right","Wed Oct 23 2024 10:42:19 GMT+0200 (Mitteleuropäische Sommerzeit)","1","72","0","1729675767958"
"2229","f","SpeechGestureMatch","../RequiredFiles/videos/NeinDaumenrunter_m.mp4","Ist der Ball in der grünen Box?","Blue","Green","F","negation","match","gesture","no","ThumbDown","male","gesture-speech","1440","900","safari","60","Mac OS","23","female","right","Wed Oct 23 2024 10:42:27 GMT+0200 (Mitteleuropäische Sommerzeit)","1","73","0","1729675767958"
"2045","f","SpeechGestureMatch","../RequiredFiles/videos/NeinDaumenhoch_f.mp4","Ist der Ball in der blauen Box?","Blue","Green","F","affirmation","mismatch","gesture","no","ThumbUp","female","gesture-speech","1440","900","safari","60","Mac OS","23","female","right","Wed Oct 23 2024 10:42:35 GMT+0200 (Mitteleuropäische Sommerzeit)","1","74","0","1729675767958"
"1340","j","SpeechGestureMatch","../RequiredFiles/videos/NeinDaumenrunter_f_no_sound.mp4","Ist der Ball in der grünen Box?","Green","Blue","J","negation","na","gesture","na","ThumbDown","female","gesture-speech","1440","900","safari","60","Mac OS","23","female","right","Wed Oct 23 2024 10:42:42 GMT+0200 (Mitteleuropäische Sommerzeit)","1","75","0","1729675767958"
"2100","j","SpeechGestureMatch","../RequiredFiles/videos/JaDaumenrunter_m_no_sound.mp4","Ist der Ball in der grünen Box?","Green","Blue","J","negation","na","gesture","na","ThumbDown","male","gesture-speech","1440","900","safari","60","Mac OS","23","female","right","Wed Oct 23 2024 10:42:49 GMT+0200 (Mitteleuropäische Sommerzeit)","1","76","0","1729675767958"
"2420","f","SpeechGestureMatch","../RequiredFiles/videos/JaDaumenhoch_m.mp4","Ist der Ball in der grünen Box?","Green","Blue","F","affirmation","match","gesture","yes","ThumbUp","male","gesture-speech","1440","900","safari","60","Mac OS","23","female","right","Wed Oct 23 2024 10:42:57 GMT+0200 (Mitteleuropäische Sommerzeit)","1","77","0","1729675767958"
"2096","f","SpeechGestureMatch","../RequiredFiles/videos/JaDaumenhoch_m.mp4","Ist der Ball in der grünen Box?","Blue","Green","J","affirmation","match","gesture","yes","ThumbUp","male","gesture-speech","1440","900","safari","60","Mac OS","23","female","right","Wed Oct 23 2024 10:43:05 GMT+0200 (Mitteleuropäische Sommerzeit)","1","78","1","1729675767958"
"1329","f","SpeechGestureMatch","../RequiredFiles/videos/JaDaumenhoch_m_no_sound.mp4","Ist der Ball in der grünen Box?","Green","Blue","F","affirmation","na","gesture","na","ThumbUp","male","gesture-speech","1440","900","safari","60","Mac OS","23","female","right","Wed Oct 23 2024 10:43:12 GMT+0200 (Mitteleuropäische Sommerzeit)","1","79","0","1729675767958"
"1635","j","SpeechGestureMatch","../RequiredFiles/videos/JaDaumenrunter_f.mp4","Ist der Ball in der blauen Box?","Blue","Green","J","negation","mismatch","gesture","yes","ThumbDown","female","gesture-speech","1440","900","safari","60","Mac OS","23","female","right","Wed Oct 23 2024 10:43:19 GMT+0200 (Mitteleuropäische Sommerzeit)","1","80","0","1729675767958"
"2288","j","SpeechGestureMatch","../RequiredFiles/videos/NeinDaumenrunter_f.mp4","Ist der Ball in der grünen Box?","Green","Blue","J","negation","match","gesture","no","ThumbDown","female","gesture-speech","1440","900","safari","60","Mac OS","23","female","right","Wed Oct 23 2024 10:43:26 GMT+0200 (Mitteleuropäische Sommerzeit)","1","81","0","1729675767958"
"2111","f","SpeechGestureMatch","../RequiredFiles/videos/NeinDaumenrunter_m_no_sound.mp4","Ist der Ball in der grünen Box?","Blue","Green","F","negation","na","gesture","na","ThumbDown","male","gesture-speech","1440","900","safari","60","Mac OS","23","female","right","Wed Oct 23 2024 10:43:34 GMT+0200 (Mitteleuropäische Sommerzeit)","1","82","0","1729675767958"
"1415","f","SpeechGestureMatch","../RequiredFiles/videos/JaDaumenrunter_f_no_sound.mp4","Ist der Ball in der blauen Box?","Green","Blue","F","negation","na","gesture","na","ThumbDown","female","gesture-speech","1440","900","safari","60","Mac OS","23","female","right","Wed Oct 23 2024 10:43:41 GMT+0200 (Mitteleuropäische Sommerzeit)","1","83","0","1729675767958"
"1797","f","SpeechGestureMatch","../RequiredFiles/videos/JaDaumenrunter_f.mp4","Ist der Ball in der grünen Box?","Blue","Green","F","negation","mismatch","gesture","yes","ThumbDown","female","gesture-speech","1440","900","safari","60","Mac OS","23","female","right","Wed Oct 23 2024 10:43:48 GMT+0200 (Mitteleuropäische Sommerzeit)","1","84","0","1729675767958"
"1836","f","SpeechGestureMatch","../RequiredFiles/videos/NeinDaumenrunter_f_no_sound.mp4","Ist der Ball in der blauen Box?","Green","Blue","F","negation","na","gesture","na","ThumbDown","female","gesture-speech","1440","900","safari","60","Mac OS","23","female","right","Wed Oct 23 2024 10:43:56 GMT+0200 (Mitteleuropäische Sommerzeit)","1","85","0","1729675767958"
"2016","j","SpeechGestureMatch","../RequiredFiles/videos/NeinDaumenhoch_f.mp4","Ist der Ball in der grünen Box?","Blue","Green","J","affirmation","mismatch","gesture","no","ThumbUp","female","gesture-speech","1440","900","safari","60","Mac OS","23","female","right","Wed Oct 23 2024 10:44:03 GMT+0200 (Mitteleuropäische Sommerzeit)","1","86","0","1729675767958"
"1291","j","SpeechGestureMatch","../RequiredFiles/videos/NeinDaumenhoch_f_no_sound.mp4","Ist der Ball in der grünen Box?","Blue","Green","J","affirmation","na","gesture","na","ThumbUp","female","gesture-speech","1440","900","safari","60","Mac OS","23","female","right","Wed Oct 23 2024 10:44:10 GMT+0200 (Mitteleuropäische Sommerzeit)","1","87","0","1729675767958"
"2053","f","SpeechGestureMatch","../RequiredFiles/videos/JaDaumenrunter_f.mp4","Ist der Ball in der blauen Box?","Green","Blue","F","negation","mismatch","gesture","yes","ThumbDown","female","gesture-speech","1440","900","safari","60","Mac OS","23","female","right","Wed Oct 23 2024 10:44:18 GMT+0200 (Mitteleuropäische Sommerzeit)","1","88","0","1729675767958"
"1540","f","SpeechGestureMatch","../RequiredFiles/videos/NeinDaumenhoch_m_no_sound.mp4","Ist der Ball in der blauen Box?","Blue","Green","F","affirmation","na","gesture","na","ThumbUp","male","gesture-speech","1440","900","safari","60","Mac OS","23","female","right","Wed Oct 23 2024 10:44:25 GMT+0200 (Mitteleuropäische Sommerzeit)","1","89","0","1729675767958"
"1854","f","SpeechGestureMatch","../RequiredFiles/videos/JaDaumenrunter_m.mp4","Ist der Ball in der blauen Box?","Green","Blue","F","negation","mismatch","gesture","yes","ThumbDown","male","gesture-speech","1440","900","safari","60","Mac OS","23","female","right","Wed Oct 23 2024 10:44:32 GMT+0200 (Mitteleuropäische Sommerzeit)","1","90","0","1729675767958"
"2405","f","SpeechGestureMatch","../RequiredFiles/videos/NeinDaumenhoch_m.mp4","Ist der Ball in der grünen Box?","Green","Blue","F","affirmation","mismatch","gesture","no","ThumbUp","male","gesture-speech","1440","900","safari","60","Mac OS","23","female","right","Wed Oct 23 2024 10:44:40 GMT+0200 (Mitteleuropäische Sommerzeit)","1","91","0","1729675767958"
"1650","j","SpeechGestureMatch","../RequiredFiles/videos/JaDaumenrunter_m_no_sound.mp4","Ist der Ball in der blauen Box?","Blue","Green","J","negation","na","gesture","na","ThumbDown","male","gesture-speech","1440","900","safari","60","Mac OS","23","female","right","Wed Oct 23 2024 10:44:47 GMT+0200 (Mitteleuropäische Sommerzeit)","1","92","0","1729675767958"
"1822","j","SpeechGestureMatch","../RequiredFiles/videos/JaDaumenhoch_m.mp4","Ist der Ball in der blauen Box?","Green","Blue","J","affirmation","match","gesture","yes","ThumbUp","male","gesture-speech","1440","900","safari","60","Mac OS","23","female","right","Wed Oct 23 2024 10:44:54 GMT+0200 (Mitteleuropäische Sommerzeit)","1","93","0","1729675767958"
"1623","j","SpeechGestureMatch","../RequiredFiles/videos/NeinDaumenrunter_f.mp4","Ist der Ball in der blauen Box?","Blue","Green","J","negation","match","gesture","no","ThumbDown","female","gesture-speech","1440","900","safari","60","Mac OS","23","female","right","Wed Oct 23 2024 10:45:02 GMT+0200 (Mitteleuropäische Sommerzeit)","1","94","0","1729675767958"
"1416","j","SpeechGestureMatch","../RequiredFiles/videos/NeinDaumenhoch_m_no_sound.mp4","Ist der Ball in der blauen Box?","Green","Blue","J","affirmation","na","gesture","na","ThumbUp","male","gesture-speech","1440","900","safari","60","Mac OS","23","female","right","Wed Oct 23 2024 10:45:09 GMT+0200 (Mitteleuropäische Sommerzeit)","1","95","0","1729675767958"
"1269","j","SpeechGestureMatch","../RequiredFiles/videos/JaDaumenhoch_m_no_sound.mp4","Ist der Ball in der blauen Box?","Green","Blue","J","affirmation","na","gesture","na","ThumbUp","male","gesture-speech","1440","900","safari","60","Mac OS","23","female","right","Wed Oct 23 2024 10:45:15 GMT+0200 (Mitteleuropäische Sommerzeit)","1","96","0","1729675767958"
"2171","f","SpeechGestureMatch","../RequiredFiles/videos/JaDaumenrunter_f.mp4","Ist der Ball in der grünen Box?","Blue","Green","F","negation","mismatch","gesture","yes","ThumbDown","female","gesture-speech","1440","900","safari","60","Mac OS","23","female","right","Wed Oct 23 2024 10:49:15 GMT+0200 (Mitteleuropäische Sommerzeit)","2","1","0","1729675767958"
"1765","f","SpeechGestureMatch","../RequiredFiles/videos/NeinDaumenrunter_f_no_sound.mp4","Ist der Ball in der grünen Box?","Blue","Green","F","negation","na","gesture","na","ThumbDown","female","gesture-speech","1440","900","safari","60","Mac OS","23","female","right","Wed Oct 23 2024 10:49:22 GMT+0200 (Mitteleuropäische Sommerzeit)","2","2","0","1729675767958"
"1430","f","SpeechGestureMatch","../RequiredFiles/videos/JaDaumenhoch_f_no_sound.mp4","Ist der Ball in der blauen Box?","Blue","Green","F","affirmation","na","gesture","na","ThumbUp","female","gesture-speech","1440","900","safari","60","Mac OS","23","female","right","Wed Oct 23 2024 10:49:29 GMT+0200 (Mitteleuropäische Sommerzeit)","2","3","0","1729675767958"
"1789","j","SpeechGestureMatch","../RequiredFiles/videos/JaDaumenrunter_f_no_sound.mp4","Ist der Ball in der grünen Box?","Green","Blue","J","negation","na","gesture","na","ThumbDown","female","gesture-speech","1440","900","safari","60","Mac OS","23","female","right","Wed Oct 23 2024 10:49:37 GMT+0200 (Mitteleuropäische Sommerzeit)","2","4","0","1729675767958"
"2788","f","SpeechGestureMatch","../RequiredFiles/videos/JaDaumenrunter_m.mp4","Ist der Ball in der blauen Box?","Green","Blue","F","negation","mismatch","gesture","yes","ThumbDown","male","gesture-speech","1440","900","safari","60","Mac OS","23","female","right","Wed Oct 23 2024 10:49:45 GMT+0200 (Mitteleuropäische Sommerzeit)","2","5","0","1729675767958"
"1833","j","SpeechGestureMatch","../RequiredFiles/videos/JaDaumenhoch_f.mp4","Ist der Ball in der grünen Box?","Blue","Green","J","affirmation","match","gesture","yes","ThumbUp","female","gesture-speech","1440","900","safari","60","Mac OS","23","female","right","Wed Oct 23 2024 10:49:52 GMT+0200 (Mitteleuropäische Sommerzeit)","2","6","0","1729675767958"
"2828","f","SpeechGestureMatch","../RequiredFiles/videos/NeinDaumenrunter_m.mp4","Ist der Ball in der grünen Box?","Blue","Green","F","negation","match","gesture","no","ThumbDown","male","gesture-speech","1440","900","safari","60","Mac OS","23","female","right","Wed Oct 23 2024 10:50:01 GMT+0200 (Mitteleuropäische Sommerzeit)","2","7","0","1729675767958"
"2018","j","SpeechGestureMatch","../RequiredFiles/videos/NeinDaumenrunter_f.mp4","Ist der Ball in der grünen Box?","Green","Blue","J","negation","match","gesture","no","ThumbDown","female","gesture-speech","1440","900","safari","60","Mac OS","23","female","right","Wed Oct 23 2024 10:50:08 GMT+0200 (Mitteleuropäische Sommerzeit)","2","8","0","1729675767958"
"1426","f","SpeechGestureMatch","../RequiredFiles/videos/NeinDaumenhoch_m_no_sound.mp4","Ist der Ball in der blauen Box?","Blue","Green","F","affirmation","na","gesture","na","ThumbUp","male","gesture-speech","1440","900","safari","60","Mac OS","23","female","right","Wed Oct 23 2024 10:50:15 GMT+0200 (Mitteleuropäische Sommerzeit)","2","9","0","1729675767958"
"1615","f","SpeechGestureMatch","../RequiredFiles/videos/JaDaumenrunter_f.mp4","Ist der Ball in der blauen Box?","Green","Blue","F","negation","mismatch","gesture","yes","ThumbDown","female","gesture-speech","1440","900","safari","60","Mac OS","23","female","right","Wed Oct 23 2024 10:50:22 GMT+0200 (Mitteleuropäische Sommerzeit)","2","10","0","1729675767958"
"1891","j","SpeechGestureMatch","../RequiredFiles/videos/JaDaumenrunter_m.mp4","Ist der Ball in der blauen Box?","Blue","Green","J","negation","mismatch","gesture","yes","ThumbDown","male","gesture-speech","1440","900","safari","60","Mac OS","23","female","right","Wed Oct 23 2024 10:50:30 GMT+0200 (Mitteleuropäische Sommerzeit)","2","11","0","1729675767958"
"2161","j","SpeechGestureMatch","../RequiredFiles/videos/NeinDaumenrunter_m.mp4","Ist der Ball in der blauen Box?","Blue","Green","J","negation","match","gesture","no","ThumbDown","male","gesture-speech","1440","900","safari","60","Mac OS","23","female","right","Wed Oct 23 2024 10:50:37 GMT+0200 (Mitteleuropäische Sommerzeit)","2","12","0","1729675767958"
"2150","f","SpeechGestureMatch","../RequiredFiles/videos/JaDaumenrunter_m.mp4","Ist der Ball in der grünen Box?","Blue","Green","F","negation","mismatch","gesture","yes","ThumbDown","male","gesture-speech","1440","900","safari","60","Mac OS","23","female","right","Wed Oct 23 2024 10:50:45 GMT+0200 (Mitteleuropäische Sommerzeit)","2","13","0","1729675767958"
"1387","f","SpeechGestureMatch","../RequiredFiles/videos/JaDaumenhoch_m_no_sound.mp4","Ist der Ball in der blauen Box?","Blue","Green","F","affirmation","na","gesture","na","ThumbUp","male","gesture-speech","1440","900","safari","60","Mac OS","23","female","right","Wed Oct 23 2024 10:50:52 GMT+0200 (Mitteleuropäische Sommerzeit)","2","14","0","1729675767958"
"1280","f","SpeechGestureMatch","../RequiredFiles/videos/NeinDaumenrunter_m_no_sound.mp4","Ist der Ball in der grünen Box?","Blue","Green","F","negation","na","gesture","na","ThumbDown","male","gesture-speech","1440","900","safari","60","Mac OS","23","female","right","Wed Oct 23 2024 10:50:59 GMT+0200 (Mitteleuropäische Sommerzeit)","2","15","0","1729675767958"
"1934","j","SpeechGestureMatch","../RequiredFiles/videos/JaDaumenrunter_f.mp4","Ist der Ball in der blauen Box?","Blue","Green","J","negation","mismatch","gesture","yes","ThumbDown","female","gesture-speech","1440","900","safari","60","Mac OS","23","female","right","Wed Oct 23 2024 10:51:06 GMT+0200 (Mitteleuropäische Sommerzeit)","2","16","0","1729675767958"
"1236","j","SpeechGestureMatch","../RequiredFiles/videos/NeinDaumenrunter_m_no_sound.mp4","Ist der Ball in der blauen Box?","Blue","Green","J","negation","na","gesture","na","ThumbDown","male","gesture-speech","1440","900","safari","60","Mac OS","23","female","right","Wed Oct 23 2024 10:51:13 GMT+0200 (Mitteleuropäische Sommerzeit)","2","17","0","1729675767958"
"1715","f","SpeechGestureMatch","../RequiredFiles/videos/NeinDaumenrunter_f.mp4","Ist der Ball in der grünen Box?","Blue","Green","F","negation","match","gesture","no","ThumbDown","female","gesture-speech","1440","900","safari","60","Mac OS","23","female","right","Wed Oct 23 2024 10:51:20 GMT+0200 (Mitteleuropäische Sommerzeit)","2","18","0","1729675767958"
"2423","f","SpeechGestureMatch","../RequiredFiles/videos/JaDaumenrunter_f.mp4","Ist der Ball in der blauen Box?","Green","Blue","F","negation","mismatch","gesture","yes","ThumbDown","female","gesture-speech","1440","900","safari","60","Mac OS","23","female","right","Wed Oct 23 2024 10:51:28 GMT+0200 (Mitteleuropäische Sommerzeit)","2","19","0","1729675767958"
"1944","j","SpeechGestureMatch","../RequiredFiles/videos/JaDaumenhoch_m.mp4","Ist der Ball in der blauen Box?","Green","Blue","J","affirmation","match","gesture","yes","ThumbUp","male","gesture-speech","1440","900","safari","60","Mac OS","23","female","right","Wed Oct 23 2024 10:51:35 GMT+0200 (Mitteleuropäische Sommerzeit)","2","20","0","1729675767958"
"1613","f","SpeechGestureMatch","../RequiredFiles/videos/NeinDaumenhoch_m.mp4","Ist der Ball in der grünen Box?","Green","Blue","F","affirmation","mismatch","gesture","no","ThumbUp","male","gesture-speech","1440","900","safari","60","Mac OS","23","female","right","Wed Oct 23 2024 10:51:43 GMT+0200 (Mitteleuropäische Sommerzeit)","2","21","0","1729675767958"
"2157","f","SpeechGestureMatch","../RequiredFiles/videos/NeinDaumenhoch_m.mp4","Ist der Ball in der blauen Box?","Blue","Green","F","affirmation","mismatch","gesture","no","ThumbUp","male","gesture-speech","1440","900","safari","60","Mac OS","23","female","right","Wed Oct 23 2024 10:51:50 GMT+0200 (Mitteleuropäische Sommerzeit)","2","22","0","1729675767958"
"1080","f","SpeechGestureMatch","../RequiredFiles/videos/NeinDaumenrunter_m_no_sound.mp4","Ist der Ball in der blauen Box?","Green","Blue","F","negation","na","gesture","na","ThumbDown","male","gesture-speech","1440","900","safari","60","Mac OS","23","female","right","Wed Oct 23 2024 10:51:57 GMT+0200 (Mitteleuropäische Sommerzeit)","2","23","0","1729675767958"
"1643","j","SpeechGestureMatch","../RequiredFiles/videos/JaDaumenrunter_m.mp4","Ist der Ball in der grünen Box?","Green","Blue","J","negation","mismatch","gesture","yes","ThumbDown","male","gesture-speech","1440","900","safari","60","Mac OS","23","female","right","Wed Oct 23 2024 10:52:04 GMT+0200 (Mitteleuropäische Sommerzeit)","2","24","0","1729675767958"
"2208","j","SpeechGestureMatch","../RequiredFiles/videos/JaDaumenrunter_m.mp4","Ist der Ball in der blauen Box?","Blue","Green","J","negation","mismatch","gesture","yes","ThumbDown","male","gesture-speech","1440","900","safari","60","Mac OS","23","female","right","Wed Oct 23 2024 10:52:12 GMT+0200 (Mitteleuropäische Sommerzeit)","2","25","0","1729675767958"
"1108","j","SpeechGestureMatch","../RequiredFiles/videos/NeinDaumenhoch_m_no_sound.mp4","Ist der Ball in der grünen Box?","Green","Blue","F","affirmation","na","gesture","na","ThumbUp","male","gesture-speech","1440","900","safari","60","Mac OS","23","female","right","Wed Oct 23 2024 10:52:18 GMT+0200 (Mitteleuropäische Sommerzeit)","2","26","1","1729675767958"
"1835","f","SpeechGestureMatch","../RequiredFiles/videos/JaDaumenhoch_m.mp4","Ist der Ball in der blauen Box?","Blue","Green","F","affirmation","match","gesture","yes","ThumbUp","male","gesture-speech","1440","900","safari","60","Mac OS","23","female","right","Wed Oct 23 2024 10:52:26 GMT+0200 (Mitteleuropäische Sommerzeit)","2","27","0","1729675767958"
"1539","f","SpeechGestureMatch","../RequiredFiles/videos/JaDaumenhoch_f.mp4","Ist der Ball in der grünen Box?","Green","Blue","F","affirmation","match","gesture","yes","ThumbUp","female","gesture-speech","1440","900","safari","60","Mac OS","23","female","right","Wed Oct 23 2024 10:52:33 GMT+0200 (Mitteleuropäische Sommerzeit)","2","28","0","1729675767958"
"1270","f","SpeechGestureMatch","../RequiredFiles/videos/JaDaumenrunter_f_no_sound.mp4","Ist der Ball in der blauen Box?","Green","Blue","F","negation","na","gesture","na","ThumbDown","female","gesture-speech","1440","900","safari","60","Mac OS","23","female","right","Wed Oct 23 2024 10:52:40 GMT+0200 (Mitteleuropäische Sommerzeit)","2","29","0","1729675767958"
"1410","f","SpeechGestureMatch","../RequiredFiles/videos/NeinDaumenhoch_f_no_sound.mp4","Ist der Ball in der blauen Box?","Blue","Green","F","affirmation","na","gesture","na","ThumbUp","female","gesture-speech","1440","900","safari","60","Mac OS","23","female","right","Wed Oct 23 2024 10:52:46 GMT+0200 (Mitteleuropäische Sommerzeit)","2","30","0","1729675767958"
"1919","j","SpeechGestureMatch","../RequiredFiles/videos/NeinDaumenhoch_f.mp4","Ist der Ball in der grünen Box?","Blue","Green","J","affirmation","mismatch","gesture","no","ThumbUp","female","gesture-speech","1440","900","safari","60","Mac OS","23","female","right","Wed Oct 23 2024 10:52:54 GMT+0200 (Mitteleuropäische Sommerzeit)","2","31","0","1729675767958"
"1474","j","SpeechGestureMatch","../RequiredFiles/videos/JaDaumenhoch_f.mp4","Ist der Ball in der blauen Box?","Green","Blue","J","affirmation","match","gesture","yes","ThumbUp","female","gesture-speech","1440","900","safari","60","Mac OS","23","female","right","Wed Oct 23 2024 10:53:01 GMT+0200 (Mitteleuropäische Sommerzeit)","2","32","0","1729675767958"
"1067","j","SpeechGestureMatch","../RequiredFiles/videos/JaDaumenhoch_m_no_sound.mp4","Ist der Ball in der blauen Box?","Green","Blue","J","affirmation","na","gesture","na","ThumbUp","male","gesture-speech","1440","900","safari","60","Mac OS","23","female","right","Wed Oct 23 2024 10:53:07 GMT+0200 (Mitteleuropäische Sommerzeit)","2","33","0","1729675767958"
"1443","j","SpeechGestureMatch","../RequiredFiles/videos/NeinDaumenhoch_m.mp4","Ist der Ball in der grünen Box?","Blue","Green","J","affirmation","mismatch","gesture","no","ThumbUp","male","gesture-speech","1440","900","safari","60","Mac OS","23","female","right","Wed Oct 23 2024 10:53:14 GMT+0200 (Mitteleuropäische Sommerzeit)","2","34","0","1729675767958"
"1521","f","SpeechGestureMatch","../RequiredFiles/videos/JaDaumenrunter_m.mp4","Ist der Ball in der blauen Box?","Green","Blue","F","negation","mismatch","gesture","yes","ThumbDown","male","gesture-speech","1440","900","safari","60","Mac OS","23","female","right","Wed Oct 23 2024 10:53:21 GMT+0200 (Mitteleuropäische Sommerzeit)","2","35","0","1729675767958"
"1434","f","SpeechGestureMatch","../RequiredFiles/videos/JaDaumenhoch_m.mp4","Ist der Ball in der grünen Box?","Green","Blue","F","affirmation","match","gesture","yes","ThumbUp","male","gesture-speech","1440","900","safari","60","Mac OS","23","female","right","Wed Oct 23 2024 10:53:28 GMT+0200 (Mitteleuropäische Sommerzeit)","2","36","0","1729675767958"
"1559","j","SpeechGestureMatch","../RequiredFiles/videos/JaDaumenhoch_f.mp4","Ist der Ball in der grünen Box?","Blue","Green","J","affirmation","match","gesture","yes","ThumbUp","female","gesture-speech","1440","900","safari","60","Mac OS","23","female","right","Wed Oct 23 2024 10:53:35 GMT+0200 (Mitteleuropäische Sommerzeit)","2","37","0","1729675767958"
"1438","f","SpeechGestureMatch","../RequiredFiles/videos/NeinDaumenrunter_m.mp4","Ist der Ball in der grünen Box?","Green","Blue","J","negation","match","gesture","no","ThumbDown","male","gesture-speech","1440","900","safari","60","Mac OS","23","female","right","Wed Oct 23 2024 10:53:42 GMT+0200 (Mitteleuropäische Sommerzeit)","2","38","1","1729675767958"
"1692","f","SpeechGestureMatch","../RequiredFiles/videos/NeinDaumenrunter_m.mp4","Ist der Ball in der blauen Box?","Green","Blue","F","negation","match","gesture","no","ThumbDown","male","gesture-speech","1440","900","safari","60","Mac OS","23","female","right","Wed Oct 23 2024 10:53:50 GMT+0200 (Mitteleuropäische Sommerzeit)","2","39","0","1729675767958"
"1969","j","SpeechGestureMatch","../RequiredFiles/videos/NeinDaumenhoch_f_no_sound.mp4","Ist der Ball in der blauen Box?","Green","Blue","J","affirmation","na","gesture","na","ThumbUp","female","gesture-speech","1440","900","safari","60","Mac OS","23","female","right","Wed Oct 23 2024 10:53:57 GMT+0200 (Mitteleuropäische Sommerzeit)","2","40","0","1729675767958"
"1917","f","SpeechGestureMatch","../RequiredFiles/videos/NeinDaumenhoch_f.mp4","Ist der Ball in der grünen Box?","Green","Blue","F","affirmation","mismatch","gesture","no","ThumbUp","female","gesture-speech","1440","900","safari","60","Mac OS","23","female","right","Wed Oct 23 2024 10:54:05 GMT+0200 (Mitteleuropäische Sommerzeit)","2","41","0","1729675767958"
"1408","f","SpeechGestureMatch","../RequiredFiles/videos/NeinDaumenrunter_f_no_sound.mp4","Ist der Ball in der blauen Box?","Green","Blue","F","negation","na","gesture","na","ThumbDown","female","gesture-speech","1440","900","safari","60","Mac OS","23","female","right","Wed Oct 23 2024 10:54:11 GMT+0200 (Mitteleuropäische Sommerzeit)","2","42","0","1729675767958"
"1652","j","SpeechGestureMatch","../RequiredFiles/videos/JaDaumenrunter_f.mp4","Ist der Ball in der grünen Box?","Green","Blue","J","negation","mismatch","gesture","yes","ThumbDown","female","gesture-speech","1440","900","safari","60","Mac OS","23","female","right","Wed Oct 23 2024 10:54:19 GMT+0200 (Mitteleuropäische Sommerzeit)","2","43","0","1729675767958"
"1654","f","SpeechGestureMatch","../RequiredFiles/videos/JaDaumenhoch_m.mp4","Ist der Ball in der blauen Box?","Blue","Green","F","affirmation","match","gesture","yes","ThumbUp","male","gesture-speech","1440","900","safari","60","Mac OS","23","female","right","Wed Oct 23 2024 10:54:26 GMT+0200 (Mitteleuropäische Sommerzeit)","2","44","0","1729675767958"
"1574","f","SpeechGestureMatch","../RequiredFiles/videos/NeinDaumenrunter_f.mp4","Ist der Ball in der blauen Box?","Green","Blue","F","negation","match","gesture","no","ThumbDown","female","gesture-speech","1440","900","safari","60","Mac OS","23","female","right","Wed Oct 23 2024 10:54:33 GMT+0200 (Mitteleuropäische Sommerzeit)","2","45","0","1729675767958"
"1605","j","SpeechGestureMatch","../RequiredFiles/videos/JaDaumenrunter_f.mp4","Ist der Ball in der blauen Box?","Blue","Green","J","negation","mismatch","gesture","yes","ThumbDown","female","gesture-speech","1440","900","safari","60","Mac OS","23","female","right","Wed Oct 23 2024 10:54:40 GMT+0200 (Mitteleuropäische Sommerzeit)","2","46","0","1729675767958"
"1107","j","SpeechGestureMatch","../RequiredFiles/videos/JaDaumenhoch_f_no_sound.mp4","Ist der Ball in der blauen Box?","Green","Blue","J","affirmation","na","gesture","na","ThumbUp","female","gesture-speech","1440","900","safari","60","Mac OS","23","female","right","Wed Oct 23 2024 10:54:47 GMT+0200 (Mitteleuropäische Sommerzeit)","2","47","0","1729675767958"
"2225","j","SpeechGestureMatch","../RequiredFiles/videos/JaDaumenrunter_m_no_sound.mp4","Ist der Ball in der grünen Box?","Green","Blue","J","negation","na","gesture","na","ThumbDown","male","gesture-speech","1440","900","safari","60","Mac OS","23","female","right","Wed Oct 23 2024 10:54:54 GMT+0200 (Mitteleuropäische Sommerzeit)","2","48","0","1729675767958"
"1659","f","SpeechGestureMatch","../RequiredFiles/videos/NeinDaumenhoch_m_no_sound.mp4","Ist der Ball in der grünen Box?","Blue","Green","J","affirmation","na","gesture","na","ThumbUp","male","gesture-speech","1440","900","safari","60","Mac OS","23","female","right","Wed Oct 23 2024 10:55:02 GMT+0200 (Mitteleuropäische Sommerzeit)","2","49","1","1729675767958"
"2336","j","SpeechGestureMatch","../RequiredFiles/videos/NeinDaumenhoch_m.mp4","Ist der Ball in der blauen Box?","Green","Blue","J","affirmation","mismatch","gesture","no","ThumbUp","male","gesture-speech","1440","900","safari","60","Mac OS","23","female","right","Wed Oct 23 2024 10:55:09 GMT+0200 (Mitteleuropäische Sommerzeit)","2","50","0","1729675767958"
"1849","f","SpeechGestureMatch","../RequiredFiles/videos/JaDaumenrunter_m_no_sound.mp4","Ist der Ball in der blauen Box?","Green","Blue","F","negation","na","gesture","na","ThumbDown","male","gesture-speech","1440","900","safari","60","Mac OS","23","female","right","Wed Oct 23 2024 10:55:17 GMT+0200 (Mitteleuropäische Sommerzeit)","2","51","0","1729675767958"
"1077","j","SpeechGestureMatch","../RequiredFiles/videos/NeinDaumenhoch_f_no_sound.mp4","Ist der Ball in der grünen Box?","Blue","Green","J","affirmation","na","gesture","na","ThumbUp","female","gesture-speech","1440","900","safari","60","Mac OS","23","female","right","Wed Oct 23 2024 10:55:23 GMT+0200 (Mitteleuropäische Sommerzeit)","2","52","0","1729675767958"
"1722","j","SpeechGestureMatch","../RequiredFiles/videos/NeinDaumenhoch_f.mp4","Ist der Ball in der grünen Box?","Blue","Green","J","affirmation","mismatch","gesture","no","ThumbUp","female","gesture-speech","1440","900","safari","60","Mac OS","23","female","right","Wed Oct 23 2024 10:55:31 GMT+0200 (Mitteleuropäische Sommerzeit)","2","53","0","1729675767958"
"1145","f","SpeechGestureMatch","../RequiredFiles/videos/JaDaumenrunter_m_no_sound.mp4","Ist der Ball in der grünen Box?","Blue","Green","F","negation","na","gesture","na","ThumbDown","male","gesture-speech","1440","900","safari","60","Mac OS","23","female","right","Wed Oct 23 2024 10:55:37 GMT+0200 (Mitteleuropäische Sommerzeit)","2","54","0","1729675767958"
"1547","j","SpeechGestureMatch","../RequiredFiles/videos/NeinDaumenhoch_f.mp4","Ist der Ball in der blauen Box?","Green","Blue","J","affirmation","mismatch","gesture","no","ThumbUp","female","gesture-speech","1440","900","safari","60","Mac OS","23","female","right","Wed Oct 23 2024 10:55:44 GMT+0200 (Mitteleuropäische Sommerzeit)","2","55","0","1729675767958"
"1135","f","SpeechGestureMatch","../RequiredFiles/videos/NeinDaumenhoch_f_no_sound.mp4","Ist der Ball in der grünen Box?","Green","Blue","F","affirmation","na","gesture","na","ThumbUp","female","gesture-speech","1440","900","safari","60","Mac OS","23","female","right","Wed Oct 23 2024 10:55:51 GMT+0200 (Mitteleuropäische Sommerzeit)","2","56","0","1729675767958"
"1993","f","SpeechGestureMatch","../RequiredFiles/videos/NeinDaumenhoch_f.mp4","Ist der Ball in der grünen Box?","Green","Blue","F","affirmation","mismatch","gesture","no","ThumbUp","female","gesture-speech","1440","900","safari","60","Mac OS","23","female","right","Wed Oct 23 2024 10:55:58 GMT+0200 (Mitteleuropäische Sommerzeit)","2","57","0","1729675767958"
"1648","j","SpeechGestureMatch","../RequiredFiles/videos/NeinDaumenrunter_f.mp4","Ist der Ball in der blauen Box?","Blue","Green","J","negation","match","gesture","no","ThumbDown","female","gesture-speech","1440","900","safari","60","Mac OS","23","female","right","Wed Oct 23 2024 10:56:06 GMT+0200 (Mitteleuropäische Sommerzeit)","2","58","0","1729675767958"
"1567","j","SpeechGestureMatch","../RequiredFiles/videos/JaDaumenhoch_m.mp4","Ist der Ball in der grünen Box?","Blue","Green","J","affirmation","match","gesture","yes","ThumbUp","male","gesture-speech","1440","900","safari","60","Mac OS","23","female","right","Wed Oct 23 2024 10:56:13 GMT+0200 (Mitteleuropäische Sommerzeit)","2","59","0","1729675767958"
"1701","j","SpeechGestureMatch","../RequiredFiles/videos/JaDaumenrunter_m.mp4","Ist der Ball in der grünen Box?","Green","Blue","J","negation","mismatch","gesture","yes","ThumbDown","male","gesture-speech","1440","900","safari","60","Mac OS","23","female","right","Wed Oct 23 2024 10:56:20 GMT+0200 (Mitteleuropäische Sommerzeit)","2","60","0","1729675767958"
"1571","f","SpeechGestureMatch","../RequiredFiles/videos/NeinDaumenhoch_f.mp4","Ist der Ball in der blauen Box?","Blue","Green","F","affirmation","mismatch","gesture","no","ThumbUp","female","gesture-speech","1440","900","safari","60","Mac OS","23","female","right","Wed Oct 23 2024 10:56:27 GMT+0200 (Mitteleuropäische Sommerzeit)","2","61","0","1729675767958"
"1559","f","SpeechGestureMatch","../RequiredFiles/videos/JaDaumenhoch_m.mp4","Ist der Ball in der blauen Box?","Green","Blue","J","affirmation","match","gesture","yes","ThumbUp","male","gesture-speech","1440","900","safari","60","Mac OS","23","female","right","Wed Oct 23 2024 10:56:34 GMT+0200 (Mitteleuropäische Sommerzeit)","2","62","1","1729675767958"
"1844","j","SpeechGestureMatch","../RequiredFiles/videos/NeinDaumenrunter_m_no_sound.mp4","Ist der Ball in der grünen Box?","Green","Blue","J","negation","na","gesture","na","ThumbDown","male","gesture-speech","1440","900","safari","60","Mac OS","23","female","right","Wed Oct 23 2024 10:56:41 GMT+0200 (Mitteleuropäische Sommerzeit)","2","63","0","1729675767958"
"1752","f","SpeechGestureMatch","../RequiredFiles/videos/NeinDaumenrunter_f.mp4","Ist der Ball in der grünen Box?","Green","Blue","J","negation","match","gesture","no","ThumbDown","female","gesture-speech","1440","900","safari","60","Mac OS","23","female","right","Wed Oct 23 2024 10:56:49 GMT+0200 (Mitteleuropäische Sommerzeit)","2","64","1","1729675767958"
"1780","f","SpeechGestureMatch","../RequiredFiles/videos/JaDaumenrunter_m.mp4","Ist der Ball in der grünen Box?","Blue","Green","F","negation","mismatch","gesture","yes","ThumbDown","male","gesture-speech","1440","900","safari","60","Mac OS","23","female","right","Wed Oct 23 2024 10:56:56 GMT+0200 (Mitteleuropäische Sommerzeit)","2","65","0","1729675767958"
"1395","j","SpeechGestureMatch","../RequiredFiles/videos/JaDaumenrunter_f_no_sound.mp4","Ist der Ball in der blauen Box?","Blue","Green","J","negation","na","gesture","na","ThumbDown","female","gesture-speech","1440","900","safari","60","Mac OS","23","female","right","Wed Oct 23 2024 10:57:03 GMT+0200 (Mitteleuropäische Sommerzeit)","2","66","0","1729675767958"
"1569","f","SpeechGestureMatch","../RequiredFiles/videos/JaDaumenhoch_f.mp4","Ist der Ball in der blauen Box?","Blue","Green","F","affirmation","match","gesture","yes","ThumbUp","female","gesture-speech","1440","900","safari","60","Mac OS","23","female","right","Wed Oct 23 2024 10:57:10 GMT+0200 (Mitteleuropäische Sommerzeit)","2","67","0","1729675767958"
"147","j","SpeechGestureMatch","../RequiredFiles/videos/JaDaumenrunter_f.mp4","Ist der Ball in der grünen Box?","Blue","Green","F","negation","mismatch","gesture","yes","ThumbDown","female","gesture-speech","1440","900","safari","60","Mac OS","23","female","right","Wed Oct 23 2024 10:57:16 GMT+0200 (Mitteleuropäische Sommerzeit)","2","68","1","1729675767958"
"2252","f","SpeechGestureMatch","../RequiredFiles/videos/JaDaumenrunter_f.mp4","Ist der Ball in der grünen Box?","Green","Blue","J","negation","mismatch","gesture","yes","ThumbDown","female","gesture-speech","1440","900","safari","60","Mac OS","23","female","right","Wed Oct 23 2024 10:57:23 GMT+0200 (Mitteleuropäische Sommerzeit)","2","69","1","1729675767958"
"2439","j","SpeechGestureMatch","../RequiredFiles/videos/NeinDaumenrunter_f.mp4","Ist der Ball in der blauen Box?","Blue","Green","J","negation","match","gesture","no","ThumbDown","female","gesture-speech","1440","900","safari","60","Mac OS","23","female","right","Wed Oct 23 2024 10:57:31 GMT+0200 (Mitteleuropäische Sommerzeit)","2","70","0","1729675767958"
"1139","j","SpeechGestureMatch","../RequiredFiles/videos/JaDaumenhoch_m_no_sound.mp4","Ist der Ball in der grünen Box?","Blue","Green","J","affirmation","na","gesture","na","ThumbUp","male","gesture-speech","1440","900","safari","60","Mac OS","23","female","right","Wed Oct 23 2024 10:57:38 GMT+0200 (Mitteleuropäische Sommerzeit)","2","71","0","1729675767958"
"1242","j","SpeechGestureMatch","../RequiredFiles/videos/JaDaumenhoch_f_no_sound.mp4","Ist der Ball in der grünen Box?","Blue","Green","J","affirmation","na","gesture","na","ThumbUp","female","gesture-speech","1440","900","safari","60","Mac OS","23","female","right","Wed Oct 23 2024 10:57:45 GMT+0200 (Mitteleuropäische Sommerzeit)","2","72","0","1729675767958"
"1395","j","SpeechGestureMatch","../RequiredFiles/videos/JaDaumenrunter_m_no_sound.mp4","Ist der Ball in der blauen Box?","Blue","Green","J","negation","na","gesture","na","ThumbDown","male","gesture-speech","1440","900","safari","60","Mac OS","23","female","right","Wed Oct 23 2024 10:57:52 GMT+0200 (Mitteleuropäische Sommerzeit)","2","73","0","1729675767958"
"2683","f","SpeechGestureMatch","../RequiredFiles/videos/NeinDaumenrunter_f.mp4","Ist der Ball in der grünen Box?","Blue","Green","F","negation","match","gesture","no","ThumbDown","female","gesture-speech","1440","900","safari","60","Mac OS","23","female","right","Wed Oct 23 2024 10:58:00 GMT+0200 (Mitteleuropäische Sommerzeit)","2","74","0","1729675767958"
"1987","f","SpeechGestureMatch","../RequiredFiles/videos/NeinDaumenrunter_m.mp4","Ist der Ball in der blauen Box?","Green","Blue","F","negation","match","gesture","no","ThumbDown","male","gesture-speech","1440","900","safari","60","Mac OS","23","female","right","Wed Oct 23 2024 10:58:07 GMT+0200 (Mitteleuropäische Sommerzeit)","2","75","0","1729675767958"
"2041","f","SpeechGestureMatch","../RequiredFiles/videos/NeinDaumenhoch_f.mp4","Ist der Ball in der blauen Box?","Blue","Green","F","affirmation","mismatch","gesture","no","ThumbUp","female","gesture-speech","1440","900","safari","60","Mac OS","23","female","right","Wed Oct 23 2024 10:58:15 GMT+0200 (Mitteleuropäische Sommerzeit)","2","76","0","1729675767958"
"2046","j","SpeechGestureMatch","../RequiredFiles/videos/NeinDaumenhoch_m.mp4","Ist der Ball in der grünen Box?","Blue","Green","J","affirmation","mismatch","gesture","no","ThumbUp","male","gesture-speech","1440","900","safari","60","Mac OS","23","female","right","Wed Oct 23 2024 10:58:23 GMT+0200 (Mitteleuropäische Sommerzeit)","2","77","0","1729675767958"
"1985","f","SpeechGestureMatch","../RequiredFiles/videos/JaDaumenrunter_f_no_sound.mp4","Ist der Ball in der grünen Box?","Blue","Green","F","negation","na","gesture","na","ThumbDown","female","gesture-speech","1440","900","safari","60","Mac OS","23","female","right","Wed Oct 23 2024 10:58:30 GMT+0200 (Mitteleuropäische Sommerzeit)","2","78","0","1729675767958"
"1315","j","SpeechGestureMatch","../RequiredFiles/videos/NeinDaumenrunter_f_no_sound.mp4","Ist der Ball in der blauen Box?","Blue","Green","J","negation","na","gesture","na","ThumbDown","female","gesture-speech","1440","900","safari","60","Mac OS","23","female","right","Wed Oct 23 2024 10:58:37 GMT+0200 (Mitteleuropäische Sommerzeit)","2","79","0","1729675767958"
"1833","f","SpeechGestureMatch","../RequiredFiles/videos/NeinDaumenrunter_m.mp4","Ist der Ball in der grünen Box?","Blue","Green","F","negation","match","gesture","no","ThumbDown","male","gesture-speech","1440","900","safari","60","Mac OS","23","female","right","Wed Oct 23 2024 10:58:44 GMT+0200 (Mitteleuropäische Sommerzeit)","2","80","0","1729675767958"
"2275","j","SpeechGestureMatch","../RequiredFiles/videos/NeinDaumenrunter_m.mp4","Ist der Ball in der grünen Box?","Green","Blue","J","negation","match","gesture","no","ThumbDown","male","gesture-speech","1440","900","safari","60","Mac OS","23","female","right","Wed Oct 23 2024 10:58:52 GMT+0200 (Mitteleuropäische Sommerzeit)","2","81","0","1729675767958"
"2246","j","SpeechGestureMatch","../RequiredFiles/videos/JaDaumenhoch_f.mp4","Ist der Ball in der blauen Box?","Green","Blue","J","affirmation","match","gesture","yes","ThumbUp","female","gesture-speech","1440","900","safari","60","Mac OS","23","female","right","Wed Oct 23 2024 10:59:00 GMT+0200 (Mitteleuropäische Sommerzeit)","2","82","0","1729675767958"
"1491","f","SpeechGestureMatch","../RequiredFiles/videos/JaDaumenhoch_m.mp4","Ist der Ball in der grünen Box?","Green","Blue","F","affirmation","match","gesture","yes","ThumbUp","male","gesture-speech","1440","900","safari","60","Mac OS","23","female","right","Wed Oct 23 2024 10:59:07 GMT+0200 (Mitteleuropäische Sommerzeit)","2","83","0","1729675767958"
"1740","f","SpeechGestureMatch","../RequiredFiles/videos/NeinDaumenhoch_m.mp4","Ist der Ball in der blauen Box?","Blue","Green","F","affirmation","mismatch","gesture","no","ThumbUp","male","gesture-speech","1440","900","safari","60","Mac OS","23","female","right","Wed Oct 23 2024 10:59:14 GMT+0200 (Mitteleuropäische Sommerzeit)","2","84","0","1729675767958"
"1716","f","SpeechGestureMatch","../RequiredFiles/videos/JaDaumenhoch_m_no_sound.mp4","Ist der Ball in der grünen Box?","Green","Blue","F","affirmation","na","gesture","na","ThumbUp","male","gesture-speech","1440","900","safari","60","Mac OS","23","female","right","Wed Oct 23 2024 10:59:21 GMT+0200 (Mitteleuropäische Sommerzeit)","2","85","0","1729675767958"
"1608","j","SpeechGestureMatch","../RequiredFiles/videos/JaDaumenhoch_m.mp4","Ist der Ball in der grünen Box?","Blue","Green","J","affirmation","match","gesture","yes","ThumbUp","male","gesture-speech","1440","900","safari","60","Mac OS","23","female","right","Wed Oct 23 2024 10:59:28 GMT+0200 (Mitteleuropäische Sommerzeit)","2","86","0","1729675767958"
"2768","f","SpeechGestureMatch","../RequiredFiles/videos/NeinDaumenrunter_m.mp4","Ist der Ball in der blauen Box?","Blue","Green","J","negation","match","gesture","no","ThumbDown","male","gesture-speech","1440","900","safari","60","Mac OS","23","female","right","Wed Oct 23 2024 10:59:37 GMT+0200 (Mitteleuropäische Sommerzeit)","2","87","1","1729675767958"
"1638","f","SpeechGestureMatch","../RequiredFiles/videos/JaDaumenhoch_f.mp4","Ist der Ball in der blauen Box?","Blue","Green","F","affirmation","match","gesture","yes","ThumbUp","female","gesture-speech","1440","900","safari","60","Mac OS","23","female","right","Wed Oct 23 2024 10:59:44 GMT+0200 (Mitteleuropäische Sommerzeit)","2","88","0","1729675767958"
"1701","f","SpeechGestureMatch","../RequiredFiles/videos/NeinDaumenrunter_f.mp4","Ist der Ball in der blauen Box?","Green","Blue","F","negation","match","gesture","no","ThumbDown","female","gesture-speech","1440","900","safari","60","Mac OS","23","female","right","Wed Oct 23 2024 10:59:51 GMT+0200 (Mitteleuropäische Sommerzeit)","2","89","0","1729675767958"
"1227","f","SpeechGestureMatch","../RequiredFiles/videos/JaDaumenhoch_f_no_sound.mp4","Ist der Ball in der grünen Box?","Green","Blue","F","affirmation","na","gesture","na","ThumbUp","female","gesture-speech","1440","900","safari","60","Mac OS","23","female","right","Wed Oct 23 2024 10:59:58 GMT+0200 (Mitteleuropäische Sommerzeit)","2","90","0","1729675767958"
"1456","j","SpeechGestureMatch","../RequiredFiles/videos/NeinDaumenhoch_m.mp4","Ist der Ball in der blauen Box?","Green","Blue","J","affirmation","mismatch","gesture","no","ThumbUp","male","gesture-speech","1440","900","safari","60","Mac OS","23","female","right","Wed Oct 23 2024 11:00:05 GMT+0200 (Mitteleuropäische Sommerzeit)","2","91","0","1729675767958"
"1599","f","SpeechGestureMatch","../RequiredFiles/videos/JaDaumenhoch_f.mp4","Ist der Ball in der grünen Box?","Green","Blue","F","affirmation","match","gesture","yes","ThumbUp","female","gesture-speech","1440","900","safari","60","Mac OS","23","female","right","Wed Oct 23 2024 11:00:12 GMT+0200 (Mitteleuropäische Sommerzeit)","2","92","0","1729675767958"
"1512","j","SpeechGestureMatch","../RequiredFiles/videos/NeinDaumenhoch_f.mp4","Ist der Ball in der blauen Box?","Green","Blue","J","affirmation","mismatch","gesture","no","ThumbUp","female","gesture-speech","1440","900","safari","60","Mac OS","23","female","right","Wed Oct 23 2024 11:00:19 GMT+0200 (Mitteleuropäische Sommerzeit)","2","93","0","1729675767958"
"1295","j","SpeechGestureMatch","../RequiredFiles/videos/NeinDaumenrunter_f_no_sound.mp4","Ist der Ball in der grünen Box?","Green","Blue","J","negation","na","gesture","na","ThumbDown","female","gesture-speech","1440","900","safari","60","Mac OS","23","female","right","Wed Oct 23 2024 11:00:26 GMT+0200 (Mitteleuropäische Sommerzeit)","2","94","0","1729675767958"
"1016","j","SpeechGestureMatch","../RequiredFiles/videos/NeinDaumenhoch_m_no_sound.mp4","Ist der Ball in der blauen Box?","Green","Blue","J","affirmation","na","gesture","na","ThumbUp","male","gesture-speech","1440","900","safari","60","Mac OS","23","female","right","Wed Oct 23 2024 11:00:32 GMT+0200 (Mitteleuropäische Sommerzeit)","2","95","0","1729675767958"
"1608","f","SpeechGestureMatch","../RequiredFiles/videos/NeinDaumenhoch_m.mp4","Ist der Ball in der grünen Box?","Green","Blue","F","affirmation","mismatch","gesture","no","ThumbUp","male","gesture-speech","1440","900","safari","60","Mac OS","23","female","right","Wed Oct 23 2024 11:00:39 GMT+0200 (Mitteleuropäische Sommerzeit)","2","96","0","1729675767958"
"1979","j","SpeechGestureMatch","../RequiredFiles/videos/JaDaumenhoch_f_no_gesture.mp4","Ist der Ball in der grünen Box?","Blue","Green","J","affirmation","na","speech","yes","na","female","gesture-speech","1440","900","safari","60","Mac OS","23","female","right","Wed Oct 23 2024 11:03:56 GMT+0200 (Mitteleuropäische Sommerzeit)","3","1","0","1729675767958"
"1647","j","SpeechGestureMatch","../RequiredFiles/videos/JaDaumenhoch_m.mp4","Ist der Ball in der blauen Box?","Green","Blue","J","affirmation","match","speech","yes","ThumbUp","male","gesture-speech","1440","900","safari","60","Mac OS","23","female","right","Wed Oct 23 2024 11:04:03 GMT+0200 (Mitteleuropäische Sommerzeit)","3","2","0","1729675767958"
"1464","j","SpeechGestureMatch","../RequiredFiles/videos/JaDaumenhoch_m.mp4","Ist der Ball in der grünen Box?","Blue","Green","J","affirmation","match","speech","yes","ThumbUp","male","gesture-speech","1440","900","safari","60","Mac OS","23","female","right","Wed Oct 23 2024 11:04:10 GMT+0200 (Mitteleuropäische Sommerzeit)","3","3","0","1729675767958"
"1658","j","SpeechGestureMatch","../RequiredFiles/videos/NeinDaumenhoch_m.mp4","Ist der Ball in der grünen Box?","Green","Blue","J","negation","mismatch","speech","no","ThumbUp","male","gesture-speech","1440","900","safari","60","Mac OS","23","female","right","Wed Oct 23 2024 11:04:17 GMT+0200 (Mitteleuropäische Sommerzeit)","3","4","0","1729675767958"
"1817","f","SpeechGestureMatch","../RequiredFiles/videos/NeinDaumenhoch_f_no_gesture.mp4","Ist der Ball in der blauen Box?","Green","Blue","F","negation","na","speech","no","na","female","gesture-speech","1440","900","safari","60","Mac OS","23","female","right","Wed Oct 23 2024 11:04:24 GMT+0200 (Mitteleuropäische Sommerzeit)","3","5","0","1729675767958"
"1748","f","SpeechGestureMatch","../RequiredFiles/videos/JaDaumenrunter_f.mp4","Ist der Ball in der grünen Box?","Blue","Green","J","affirmation","mismatch","speech","yes","ThumbDown","female","gesture-speech","1440","900","safari","60","Mac OS","23","female","right","Wed Oct 23 2024 11:04:31 GMT+0200 (Mitteleuropäische Sommerzeit)","3","6","1","1729675767958"
"2074","j","SpeechGestureMatch","../RequiredFiles/videos/JaDaumenrunter_m.mp4","Ist der Ball in der blauen Box?","Green","Blue","J","affirmation","mismatch","speech","yes","ThumbDown","male","gesture-speech","1440","900","safari","60","Mac OS","23","female","right","Wed Oct 23 2024 11:04:39 GMT+0200 (Mitteleuropäische Sommerzeit)","3","7","0","1729675767958"
"1595","f","SpeechGestureMatch","../RequiredFiles/videos/JaDaumenrunter_m.mp4","Ist der Ball in der blauen Box?","Blue","Green","F","affirmation","mismatch","speech","yes","ThumbDown","male","gesture-speech","1440","900","safari","60","Mac OS","23","female","right","Wed Oct 23 2024 11:04:46 GMT+0200 (Mitteleuropäische Sommerzeit)","3","8","0","1729675767958"
"1601","f","SpeechGestureMatch","../RequiredFiles/videos/NeinDaumenhoch_m_no_gesture.mp4","Ist der Ball in der blauen Box?","Green","Blue","F","negation","na","speech","no","na","male","gesture-speech","1440","900","safari","60","Mac OS","23","female","right","Wed Oct 23 2024 11:04:53 GMT+0200 (Mitteleuropäische Sommerzeit)","3","9","0","1729675767958"
"2375","f","SpeechGestureMatch","../RequiredFiles/videos/NeinDaumenrunter_m_no_gesture.mp4","Ist der Ball in der blauen Box?","Green","Blue","F","negation","na","speech","no","na","male","gesture-speech","1440","900","safari","60","Mac OS","23","female","right","Wed Oct 23 2024 11:05:01 GMT+0200 (Mitteleuropäische Sommerzeit)","3","10","0","1729675767958"
"1768","j","SpeechGestureMatch","../RequiredFiles/videos/JaDaumenrunter_f_no_gesture.mp4","Ist der Ball in der grünen Box?","Blue","Green","J","affirmation","na","speech","yes","na","female","gesture-speech","1440","900","safari","60","Mac OS","23","female","right","Wed Oct 23 2024 11:05:08 GMT+0200 (Mitteleuropäische Sommerzeit)","3","11","0","1729675767958"
"1645","f","SpeechGestureMatch","../RequiredFiles/videos/JaDaumenrunter_m.mp4","Ist der Ball in der grünen Box?","Green","Blue","F","affirmation","mismatch","speech","yes","ThumbDown","male","gesture-speech","1440","900","safari","60","Mac OS","23","female","right","Wed Oct 23 2024 11:05:16 GMT+0200 (Mitteleuropäische Sommerzeit)","3","12","0","1729675767958"
"1729","f","SpeechGestureMatch","../RequiredFiles/videos/NeinDaumenrunter_f.mp4","Ist der Ball in der grünen Box?","Blue","Green","F","negation","match","speech","no","ThumbDown","female","gesture-speech","1440","900","safari","60","Mac OS","23","female","right","Wed Oct 23 2024 11:05:23 GMT+0200 (Mitteleuropäische Sommerzeit)","3","13","0","1729675767958"
"1776","j","SpeechGestureMatch","../RequiredFiles/videos/NeinDaumenrunter_f_no_gesture.mp4","Ist der Ball in der grünen Box?","Green","Blue","J","negation","na","speech","no","na","female","gesture-speech","1440","900","safari","60","Mac OS","23","female","right","Wed Oct 23 2024 11:05:30 GMT+0200 (Mitteleuropäische Sommerzeit)","3","14","0","1729675767958"
"2151","f","SpeechGestureMatch","../RequiredFiles/videos/JaDaumenrunter_f_no_gesture.mp4","Ist der Ball in der grünen Box?","Green","Blue","F","affirmation","na","speech","yes","na","female","gesture-speech","1440","900","safari","60","Mac OS","23","female","right","Wed Oct 23 2024 11:05:38 GMT+0200 (Mitteleuropäische Sommerzeit)","3","15","0","1729675767958"
"1669","j","SpeechGestureMatch","../RequiredFiles/videos/NeinDaumenhoch_m_no_gesture.mp4","Ist der Ball in der blauen Box?","Blue","Green","J","negation","na","speech","no","na","male","gesture-speech","1440","900","safari","60","Mac OS","23","female","right","Wed Oct 23 2024 11:05:45 GMT+0200 (Mitteleuropäische Sommerzeit)","3","16","0","1729675767958"
"2880","j","SpeechGestureMatch","../RequiredFiles/videos/NeinDaumenrunter_m_no_gesture.mp4","Ist der Ball in der grünen Box?","Green","Blue","J","negation","na","speech","no","na","male","gesture-speech","1440","900","safari","60","Mac OS","23","female","right","Wed Oct 23 2024 11:05:53 GMT+0200 (Mitteleuropäische Sommerzeit)","3","17","0","1729675767958"
"1818","j","SpeechGestureMatch","../RequiredFiles/videos/NeinDaumenhoch_m_no_gesture.mp4","Ist der Ball in der grünen Box?","Green","Blue","J","negation","na","speech","no","na","male","gesture-speech","1440","900","safari","60","Mac OS","23","female","right","Wed Oct 23 2024 11:06:01 GMT+0200 (Mitteleuropäische Sommerzeit)","3","18","0","1729675767958"
"2093","f","SpeechGestureMatch","../RequiredFiles/videos/NeinDaumenhoch_m.mp4","Ist der Ball in der blauen Box?","Blue","Green","J","negation","mismatch","speech","no","ThumbUp","male","gesture-speech","1440","900","safari","60","Mac OS","23","female","right","Wed Oct 23 2024 11:06:08 GMT+0200 (Mitteleuropäische Sommerzeit)","3","19","1","1729675767958"
"1884","j","SpeechGestureMatch","../RequiredFiles/videos/JaDaumenhoch_f.mp4","Ist der Ball in der grünen Box?","Blue","Green","J","affirmation","match","speech","yes","ThumbUp","female","gesture-speech","1440","900","safari","60","Mac OS","23","female","right","Wed Oct 23 2024 11:06:16 GMT+0200 (Mitteleuropäische Sommerzeit)","3","20","0","1729675767958"
"1986","j","SpeechGestureMatch","../RequiredFiles/videos/NeinDaumenrunter_m.mp4","Ist der Ball in der grünen Box?","Green","Blue","J","negation","match","speech","no","ThumbDown","male","gesture-speech","1440","900","safari","60","Mac OS","23","female","right","Wed Oct 23 2024 11:06:23 GMT+0200 (Mitteleuropäische Sommerzeit)","3","21","0","1729675767958"
"2480","j","SpeechGestureMatch","../RequiredFiles/videos/NeinDaumenhoch_f_no_gesture.mp4","Ist der Ball in der blauen Box?","Blue","Green","J","negation","na","speech","no","na","female","gesture-speech","1440","900","safari","60","Mac OS","23","female","right","Wed Oct 23 2024 11:06:31 GMT+0200 (Mitteleuropäische Sommerzeit)","3","22","0","1729675767958"
"2031","j","SpeechGestureMatch","../RequiredFiles/videos/NeinDaumenhoch_m.mp4","Ist der Ball in der grünen Box?","Blue","Green","F","negation","mismatch","speech","no","ThumbUp","male","gesture-speech","1440","900","safari","60","Mac OS","23","female","right","Wed Oct 23 2024 11:06:39 GMT+0200 (Mitteleuropäische Sommerzeit)","3","23","1","1729675767958"
"1572","f","SpeechGestureMatch","../RequiredFiles/videos/JaDaumenhoch_f.mp4","Ist der Ball in der grünen Box?","Green","Blue","F","affirmation","match","speech","yes","ThumbUp","female","gesture-speech","1440","900","safari","60","Mac OS","23","female","right","Wed Oct 23 2024 11:06:46 GMT+0200 (Mitteleuropäische Sommerzeit)","3","24","0","1729675767958"
"1521","f","SpeechGestureMatch","../RequiredFiles/videos/JaDaumenhoch_m.mp4","Ist der Ball in der grünen Box?","Green","Blue","F","affirmation","match","speech","yes","ThumbUp","male","gesture-speech","1440","900","safari","60","Mac OS","23","female","right","Wed Oct 23 2024 11:06:53 GMT+0200 (Mitteleuropäische Sommerzeit)","3","25","0","1729675767958"
"1688","j","SpeechGestureMatch","../RequiredFiles/videos/JaDaumenrunter_m_no_gesture.mp4","Ist der Ball in der grünen Box?","Blue","Green","J","affirmation","na","speech","yes","na","male","gesture-speech","1440","900","safari","60","Mac OS","23","female","right","Wed Oct 23 2024 11:07:00 GMT+0200 (Mitteleuropäische Sommerzeit)","3","26","0","1729675767958"
"2301","j","SpeechGestureMatch","../RequiredFiles/videos/JaDaumenrunter_m.mp4","Ist der Ball in der grünen Box?","Blue","Green","J","affirmation","mismatch","speech","yes","ThumbDown","male","gesture-speech","1440","900","safari","60","Mac OS","23","female","right","Wed Oct 23 2024 11:07:08 GMT+0200 (Mitteleuropäische Sommerzeit)","3","27","0","1729675767958"
"1996","f","SpeechGestureMatch","../RequiredFiles/videos/NeinDaumenrunter_m.mp4","Ist der Ball in der grünen Box?","Blue","Green","F","negation","match","speech","no","ThumbDown","male","gesture-speech","1440","900","safari","60","Mac OS","23","female","right","Wed Oct 23 2024 11:07:15 GMT+0200 (Mitteleuropäische Sommerzeit)","3","28","0","1729675767958"
"1792","f","SpeechGestureMatch","../RequiredFiles/videos/JaDaumenrunter_m_no_gesture.mp4","Ist der Ball in der blauen Box?","Blue","Green","F","affirmation","na","speech","yes","na","male","gesture-speech","1440","900","safari","60","Mac OS","23","female","right","Wed Oct 23 2024 11:07:23 GMT+0200 (Mitteleuropäische Sommerzeit)","3","29","0","1729675767958"
"1630","f","SpeechGestureMatch","../RequiredFiles/videos/NeinDaumenhoch_m_no_gesture.mp4","Ist der Ball in der grünen Box?","Blue","Green","F","negation","na","speech","no","na","male","gesture-speech","1440","900","safari","60","Mac OS","23","female","right","Wed Oct 23 2024 11:07:30 GMT+0200 (Mitteleuropäische Sommerzeit)","3","30","0","1729675767958"
"1886","f","SpeechGestureMatch","../RequiredFiles/videos/NeinDaumenrunter_f.mp4","Ist der Ball in der grünen Box?","Blue","Green","F","negation","match","speech","no","ThumbDown","female","gesture-speech","1440","900","safari","60","Mac OS","23","female","right","Wed Oct 23 2024 11:07:37 GMT+0200 (Mitteleuropäische Sommerzeit)","3","31","0","1729675767958"
"3511","f","SpeechGestureMatch","../RequiredFiles/videos/NeinDaumenrunter_f.mp4","Ist der Ball in der blauen Box?","Green","Blue","F","negation","match","speech","no","ThumbDown","female","gesture-speech","1440","900","safari","60","Mac OS","23","female","right","Wed Oct 23 2024 11:07:46 GMT+0200 (Mitteleuropäische Sommerzeit)","3","32","0","1729675767958"
"2137","f","SpeechGestureMatch","../RequiredFiles/videos/JaDaumenrunter_m.mp4","Ist der Ball in der blauen Box?","Blue","Green","F","affirmation","mismatch","speech","yes","ThumbDown","male","gesture-speech","1440","900","safari","60","Mac OS","23","female","right","Wed Oct 23 2024 11:07:54 GMT+0200 (Mitteleuropäische Sommerzeit)","3","33","0","1729675767958"
"1605","f","SpeechGestureMatch","../RequiredFiles/videos/NeinDaumenrunter_m.mp4","Ist der Ball in der blauen Box?","Green","Blue","F","negation","match","speech","no","ThumbDown","male","gesture-speech","1440","900","safari","60","Mac OS","23","female","right","Wed Oct 23 2024 11:08:01 GMT+0200 (Mitteleuropäische Sommerzeit)","3","34","0","1729675767958"
"1877","j","SpeechGestureMatch","../RequiredFiles/videos/NeinDaumenhoch_m.mp4","Ist der Ball in der grünen Box?","Green","Blue","J","negation","mismatch","speech","no","ThumbUp","male","gesture-speech","1440","900","safari","60","Mac OS","23","female","right","Wed Oct 23 2024 11:08:08 GMT+0200 (Mitteleuropäische Sommerzeit)","3","35","0","1729675767958"
"3149","f","SpeechGestureMatch","../RequiredFiles/videos/NeinDaumenhoch_f.mp4","Ist der Ball in der grünen Box?","Blue","Green","F","negation","mismatch","speech","no","ThumbUp","female","gesture-speech","1440","900","safari","60","Mac OS","23","female","right","Wed Oct 23 2024 11:08:17 GMT+0200 (Mitteleuropäische Sommerzeit)","3","36","0","1729675767958"
"2232","f","SpeechGestureMatch","../RequiredFiles/videos/JaDaumenhoch_f_no_gesture.mp4","Ist der Ball in der grünen Box?","Green","Blue","F","affirmation","na","speech","yes","na","female","gesture-speech","1440","900","safari","60","Mac OS","23","female","right","Wed Oct 23 2024 11:08:25 GMT+0200 (Mitteleuropäische Sommerzeit)","3","37","0","1729675767958"
"1639","j","SpeechGestureMatch","../RequiredFiles/videos/JaDaumenrunter_f_no_gesture.mp4","Ist der Ball in der blauen Box?","Green","Blue","J","affirmation","na","speech","yes","na","female","gesture-speech","1440","900","safari","60","Mac OS","23","female","right","Wed Oct 23 2024 11:08:32 GMT+0200 (Mitteleuropäische Sommerzeit)","3","38","0","1729675767958"
"1692","j","SpeechGestureMatch","../RequiredFiles/videos/NeinDaumenrunter_f.mp4","Ist der Ball in der blauen Box?","Blue","Green","J","negation","match","speech","no","ThumbDown","female","gesture-speech","1440","900","safari","60","Mac OS","23","female","right","Wed Oct 23 2024 11:08:39 GMT+0200 (Mitteleuropäische Sommerzeit)","3","39","0","1729675767958"
"1582","f","SpeechGestureMatch","../RequiredFiles/videos/JaDaumenhoch_f_no_gesture.mp4","Ist der Ball in der blauen Box?","Blue","Green","F","affirmation","na","speech","yes","na","female","gesture-speech","1440","900","safari","60","Mac OS","23","female","right","Wed Oct 23 2024 11:08:46 GMT+0200 (Mitteleuropäische Sommerzeit)","3","40","0","1729675767958"
"1714","j","SpeechGestureMatch","../RequiredFiles/videos/JaDaumenrunter_m.mp4","Ist der Ball in der grünen Box?","Blue","Green","J","affirmation","mismatch","speech","yes","ThumbDown","male","gesture-speech","1440","900","safari","60","Mac OS","23","female","right","Wed Oct 23 2024 11:08:54 GMT+0200 (Mitteleuropäische Sommerzeit)","3","41","0","1729675767958"
"1985","j","SpeechGestureMatch","../RequiredFiles/videos/JaDaumenhoch_f.mp4","Ist der Ball in der blauen Box?","Green","Blue","J","affirmation","match","speech","yes","ThumbUp","female","gesture-speech","1440","900","safari","60","Mac OS","23","female","right","Wed Oct 23 2024 11:09:01 GMT+0200 (Mitteleuropäische Sommerzeit)","3","42","0","1729675767958"
"1613","f","SpeechGestureMatch","../RequiredFiles/videos/NeinDaumenhoch_f.mp4","Ist der Ball in der grünen Box?","Green","Blue","J","negation","mismatch","speech","no","ThumbUp","female","gesture-speech","1440","900","safari","60","Mac OS","23","female","right","Wed Oct 23 2024 11:09:08 GMT+0200 (Mitteleuropäische Sommerzeit)","3","43","1","1729675767958"
"1933","f","SpeechGestureMatch","../RequiredFiles/videos/JaDaumenhoch_m.mp4","Ist der Ball in der grünen Box?","Green","Blue","F","affirmation","match","speech","yes","ThumbUp","male","gesture-speech","1440","900","safari","60","Mac OS","23","female","right","Wed Oct 23 2024 11:09:16 GMT+0200 (Mitteleuropäische Sommerzeit)","3","44","0","1729675767958"
"1689","f","SpeechGestureMatch","../RequiredFiles/videos/JaDaumenhoch_m_no_gesture.mp4","Ist der Ball in der blauen Box?","Blue","Green","F","affirmation","na","speech","yes","na","male","gesture-speech","1440","900","safari","60","Mac OS","23","female","right","Wed Oct 23 2024 11:09:23 GMT+0200 (Mitteleuropäische Sommerzeit)","3","45","0","1729675767958"
"2123","f","SpeechGestureMatch","../RequiredFiles/videos/NeinDaumenrunter_m.mp4","Ist der Ball in der grünen Box?","Blue","Green","F","negation","match","speech","no","ThumbDown","male","gesture-speech","1440","900","safari","60","Mac OS","23","female","right","Wed Oct 23 2024 11:09:30 GMT+0200 (Mitteleuropäische Sommerzeit)","3","46","0","1729675767958"
"2150","j","SpeechGestureMatch","../RequiredFiles/videos/NeinDaumenrunter_m.mp4","Ist der Ball in der blauen Box?","Blue","Green","J","negation","match","speech","no","ThumbDown","male","gesture-speech","1440","900","safari","60","Mac OS","23","female","right","Wed Oct 23 2024 11:09:38 GMT+0200 (Mitteleuropäische Sommerzeit)","3","47","0","1729675767958"
"1905","j","SpeechGestureMatch","../RequiredFiles/videos/JaDaumenrunter_f.mp4","Ist der Ball in der blauen Box?","Green","Blue","J","affirmation","mismatch","speech","yes","ThumbDown","female","gesture-speech","1440","900","safari","60","Mac OS","23","female","right","Wed Oct 23 2024 11:09:46 GMT+0200 (Mitteleuropäische Sommerzeit)","3","48","0","1729675767958"
"1858","f","SpeechGestureMatch","../RequiredFiles/videos/JaDaumenhoch_f.mp4","Ist der Ball in der blauen Box?","Blue","Green","F","affirmation","match","speech","yes","ThumbUp","female","gesture-speech","1440","900","safari","60","Mac OS","23","female","right","Wed Oct 23 2024 11:09:53 GMT+0200 (Mitteleuropäische Sommerzeit)","3","49","0","1729675767958"
"1897","j","SpeechGestureMatch","../RequiredFiles/videos/JaDaumenhoch_f.mp4","Ist der Ball in der grünen Box?","Blue","Green","J","affirmation","match","speech","yes","ThumbUp","female","gesture-speech","1440","900","safari","60","Mac OS","23","female","right","Wed Oct 23 2024 11:10:00 GMT+0200 (Mitteleuropäische Sommerzeit)","3","50","0","1729675767958"
"2348","f","SpeechGestureMatch","../RequiredFiles/videos/JaDaumenhoch_f.mp4","Ist der Ball in der blauen Box?","Blue","Green","F","affirmation","match","speech","yes","ThumbUp","female","gesture-speech","1440","900","safari","60","Mac OS","23","female","right","Wed Oct 23 2024 11:10:08 GMT+0200 (Mitteleuropäische Sommerzeit)","3","51","0","1729675767958"
"2584","f","SpeechGestureMatch","../RequiredFiles/videos/NeinDaumenrunter_f_no_gesture.mp4","Ist der Ball in der grünen Box?","Blue","Green","F","negation","na","speech","no","na","female","gesture-speech","1440","900","safari","60","Mac OS","23","female","right","Wed Oct 23 2024 11:10:16 GMT+0200 (Mitteleuropäische Sommerzeit)","3","52","0","1729675767958"
"2763","j","SpeechGestureMatch","../RequiredFiles/videos/NeinDaumenrunter_f.mp4","Ist der Ball in der grünen Box?","Green","Blue","J","negation","match","speech","no","ThumbDown","female","gesture-speech","1440","900","safari","60","Mac OS","23","female","right","Wed Oct 23 2024 11:10:25 GMT+0200 (Mitteleuropäische Sommerzeit)","3","53","0","1729675767958"
"1998","j","SpeechGestureMatch","../RequiredFiles/videos/JaDaumenhoch_m.mp4","Ist der Ball in der blauen Box?","Green","Blue","J","affirmation","match","speech","yes","ThumbUp","male","gesture-speech","1440","900","safari","60","Mac OS","23","female","right","Wed Oct 23 2024 11:10:32 GMT+0200 (Mitteleuropäische Sommerzeit)","3","54","0","1729675767958"
"1759","j","SpeechGestureMatch","../RequiredFiles/videos/JaDaumenrunter_m_no_gesture.mp4","Ist der Ball in der blauen Box?","Green","Blue","J","affirmation","na","speech","yes","na","male","gesture-speech","1440","900","safari","60","Mac OS","23","female","right","Wed Oct 23 2024 11:10:39 GMT+0200 (Mitteleuropäische Sommerzeit)","3","55","0","1729675767958"
"3118","f","SpeechGestureMatch","../RequiredFiles/videos/NeinDaumenhoch_m.mp4","Ist der Ball in der grünen Box?","Blue","Green","F","negation","mismatch","speech","no","ThumbUp","male","gesture-speech","1440","900","safari","60","Mac OS","23","female","right","Wed Oct 23 2024 11:10:48 GMT+0200 (Mitteleuropäische Sommerzeit)","3","56","0","1729675767958"
"2789","j","SpeechGestureMatch","../RequiredFiles/videos/NeinDaumenhoch_f_no_gesture.mp4","Ist der Ball in der grünen Box?","Green","Blue","J","negation","na","speech","no","na","female","gesture-speech","1440","900","safari","60","Mac OS","23","female","right","Wed Oct 23 2024 11:10:56 GMT+0200 (Mitteleuropäische Sommerzeit)","3","57","0","1729675767958"
"3318","j","SpeechGestureMatch","../RequiredFiles/videos/JaDaumenhoch_m.mp4","Ist der Ball in der grünen Box?","Blue","Green","J","affirmation","match","speech","yes","ThumbUp","male","gesture-speech","1440","900","safari","60","Mac OS","23","female","right","Wed Oct 23 2024 11:11:05 GMT+0200 (Mitteleuropäische Sommerzeit)","3","58","0","1729675767958"
"2332","f","SpeechGestureMatch","../RequiredFiles/videos/NeinDaumenhoch_f.mp4","Ist der Ball in der grünen Box?","Green","Blue","J","negation","mismatch","speech","no","ThumbUp","female","gesture-speech","1440","900","safari","60","Mac OS","23","female","right","Wed Oct 23 2024 11:11:13 GMT+0200 (Mitteleuropäische Sommerzeit)","3","59","1","1729675767958"
"2075","j","SpeechGestureMatch","../RequiredFiles/videos/NeinDaumenrunter_m.mp4","Ist der Ball in der blauen Box?","Blue","Green","J","negation","match","speech","no","ThumbDown","male","gesture-speech","1440","900","safari","60","Mac OS","23","female","right","Wed Oct 23 2024 11:11:21 GMT+0200 (Mitteleuropäische Sommerzeit)","3","60","0","1729675767958"
"3211","j","SpeechGestureMatch","../RequiredFiles/videos/NeinDaumenhoch_f.mp4","Ist der Ball in der blauen Box?","Blue","Green","J","negation","mismatch","speech","no","ThumbUp","female","gesture-speech","1440","900","safari","60","Mac OS","23","female","right","Wed Oct 23 2024 11:11:29 GMT+0200 (Mitteleuropäische Sommerzeit)","3","61","0","1729675767958"
"2863","f","SpeechGestureMatch","../RequiredFiles/videos/NeinDaumenrunter_m.mp4","Ist der Ball in der blauen Box?","Green","Blue","F","negation","match","speech","no","ThumbDown","male","gesture-speech","1440","900","safari","60","Mac OS","23","female","right","Wed Oct 23 2024 11:11:38 GMT+0200 (Mitteleuropäische Sommerzeit)","3","62","0","1729675767958"
"2856","f","SpeechGestureMatch","../RequiredFiles/videos/NeinDaumenhoch_f.mp4","Ist der Ball in der blauen Box?","Blue","Green","J","negation","mismatch","speech","no","ThumbUp","female","gesture-speech","1440","900","safari","60","Mac OS","23","female","right","Wed Oct 23 2024 11:11:46 GMT+0200 (Mitteleuropäische Sommerzeit)","3","63","1","1729675767958"
"4711","f","SpeechGestureMatch","../RequiredFiles/videos/JaDaumenrunter_f.mp4","Ist der Ball in der blauen Box?","Blue","Green","F","affirmation","mismatch","speech","yes","ThumbDown","female","gesture-speech","1440","900","safari","60","Mac OS","23","female","right","Wed Oct 23 2024 11:11:56 GMT+0200 (Mitteleuropäische Sommerzeit)","3","64","0","1729675767958"
"2364","j","SpeechGestureMatch","../RequiredFiles/videos/JaDaumenrunter_m.mp4","Ist der Ball in der grünen Box?","Green","Blue","F","affirmation","mismatch","speech","yes","ThumbDown","male","gesture-speech","1440","900","safari","60","Mac OS","23","female","right","Wed Oct 23 2024 11:12:04 GMT+0200 (Mitteleuropäische Sommerzeit)","3","65","1","1729675767958"
"3622","j","SpeechGestureMatch","../RequiredFiles/videos/JaDaumenhoch_f_no_gesture.mp4","Ist der Ball in der blauen Box?","Green","Blue","J","affirmation","na","speech","yes","na","female","gesture-speech","1440","900","safari","60","Mac OS","23","female","right","Wed Oct 23 2024 11:12:13 GMT+0200 (Mitteleuropäische Sommerzeit)","3","66","0","1729675767958"
"2100","f","SpeechGestureMatch","../RequiredFiles/videos/NeinDaumenhoch_m.mp4","Ist der Ball in der blauen Box?","Green","Blue","F","negation","mismatch","speech","no","ThumbUp","male","gesture-speech","1440","900","safari","60","Mac OS","23","female","right","Wed Oct 23 2024 11:12:21 GMT+0200 (Mitteleuropäische Sommerzeit)","3","67","0","1729675767958"
"3639","f","SpeechGestureMatch","../RequiredFiles/videos/JaDaumenhoch_m.mp4","Ist der Ball in der blauen Box?","Blue","Green","F","affirmation","match","speech","yes","ThumbUp","male","gesture-speech","1440","900","safari","60","Mac OS","23","female","right","Wed Oct 23 2024 11:12:30 GMT+0200 (Mitteleuropäische Sommerzeit)","3","68","0","1729675767958"
"2675","f","SpeechGestureMatch","../RequiredFiles/videos/JaDaumenrunter_m_no_gesture.mp4","Ist der Ball in der grünen Box?","Green","Blue","F","affirmation","na","speech","yes","na","male","gesture-speech","1440","900","safari","60","Mac OS","23","female","right","Wed Oct 23 2024 11:12:38 GMT+0200 (Mitteleuropäische Sommerzeit)","3","69","0","1729675767958"
"2950","j","SpeechGestureMatch","../RequiredFiles/videos/JaDaumenhoch_f.mp4","Ist der Ball in der blauen Box?","Green","Blue","J","affirmation","match","speech","yes","ThumbUp","female","gesture-speech","1440","900","safari","60","Mac OS","23","female","right","Wed Oct 23 2024 11:12:47 GMT+0200 (Mitteleuropäische Sommerzeit)","3","70","0","1729675767958"
"2083","f","SpeechGestureMatch","../RequiredFiles/videos/NeinDaumenrunter_f.mp4","Ist der Ball in der blauen Box?","Green","Blue","F","negation","match","speech","no","ThumbDown","female","gesture-speech","1440","900","safari","60","Mac OS","23","female","right","Wed Oct 23 2024 11:12:54 GMT+0200 (Mitteleuropäische Sommerzeit)","3","71","0","1729675767958"
"2526","f","SpeechGestureMatch","../RequiredFiles/videos/JaDaumenrunter_f.mp4","Ist der Ball in der grünen Box?","Green","Blue","F","affirmation","mismatch","speech","yes","ThumbDown","female","gesture-speech","1440","900","safari","60","Mac OS","23","female","right","Wed Oct 23 2024 11:13:02 GMT+0200 (Mitteleuropäische Sommerzeit)","3","72","0","1729675767958"
"2440","f","SpeechGestureMatch","../RequiredFiles/videos/NeinDaumenhoch_f.mp4","Ist der Ball in der blauen Box?","Green","Blue","F","negation","mismatch","speech","no","ThumbUp","female","gesture-speech","1440","900","safari","60","Mac OS","23","female","right","Wed Oct 23 2024 11:13:10 GMT+0200 (Mitteleuropäische Sommerzeit)","3","73","0","1729675767958"
"2709","f","SpeechGestureMatch","../RequiredFiles/videos/NeinDaumenrunter_f_no_gesture.mp4","Ist der Ball in der blauen Box?","Green","Blue","F","negation","na","speech","no","na","female","gesture-speech","1440","900","safari","60","Mac OS","23","female","right","Wed Oct 23 2024 11:13:18 GMT+0200 (Mitteleuropäische Sommerzeit)","3","74","0","1729675767958"
"2033","j","SpeechGestureMatch","../RequiredFiles/videos/NeinDaumenrunter_f.mp4","Ist der Ball in der grünen Box?","Green","Blue","J","negation","match","speech","no","ThumbDown","female","gesture-speech","1440","900","safari","60","Mac OS","23","female","right","Wed Oct 23 2024 11:13:26 GMT+0200 (Mitteleuropäische Sommerzeit)","3","75","0","1729675767958"
"2439","f","SpeechGestureMatch","../RequiredFiles/videos/JaDaumenhoch_m.mp4","Ist der Ball in der blauen Box?","Blue","Green","F","affirmation","match","speech","yes","ThumbUp","male","gesture-speech","1440","900","safari","60","Mac OS","23","female","right","Wed Oct 23 2024 11:13:34 GMT+0200 (Mitteleuropäische Sommerzeit)","3","76","0","1729675767958"
"2533","j","SpeechGestureMatch","../RequiredFiles/videos/JaDaumenhoch_m_no_gesture.mp4","Ist der Ball in der grünen Box?","Blue","Green","J","affirmation","na","speech","yes","na","male","gesture-speech","1440","900","safari","60","Mac OS","23","female","right","Wed Oct 23 2024 11:13:42 GMT+0200 (Mitteleuropäische Sommerzeit)","3","77","0","1729675767958"
"2573","f","SpeechGestureMatch","../RequiredFiles/videos/JaDaumenrunter_f.mp4","Ist der Ball in der blauen Box?","Blue","Green","F","affirmation","mismatch","speech","yes","ThumbDown","female","gesture-speech","1440","900","safari","60","Mac OS","23","female","right","Wed Oct 23 2024 11:13:50 GMT+0200 (Mitteleuropäische Sommerzeit)","3","78","0","1729675767958"
"2976","f","SpeechGestureMatch","../RequiredFiles/videos/JaDaumenhoch_f.mp4","Ist der Ball in der grünen Box?","Green","Blue","F","affirmation","match","speech","yes","ThumbUp","female","gesture-speech","1440","900","safari","60","Mac OS","23","female","right","Wed Oct 23 2024 11:13:59 GMT+0200 (Mitteleuropäische Sommerzeit)","3","79","0","1729675767958"
"1968","j","SpeechGestureMatch","../RequiredFiles/videos/JaDaumenrunter_f.mp4","Ist der Ball in der grünen Box?","Blue","Green","J","affirmation","mismatch","speech","yes","ThumbDown","female","gesture-speech","1440","900","safari","60","Mac OS","23","female","right","Wed Oct 23 2024 11:14:06 GMT+0200 (Mitteleuropäische Sommerzeit)","3","80","0","1729675767958"
"2118","f","SpeechGestureMatch","../RequiredFiles/videos/NeinDaumenhoch_f_no_gesture.mp4","Ist der Ball in der grünen Box?","Blue","Green","F","negation","na","speech","no","na","female","gesture-speech","1440","900","safari","60","Mac OS","23","female","right","Wed Oct 23 2024 11:14:14 GMT+0200 (Mitteleuropäische Sommerzeit)","3","81","0","1729675767958"
"2032","j","SpeechGestureMatch","../RequiredFiles/videos/NeinDaumenrunter_m_no_gesture.mp4","Ist der Ball in der blauen Box?","Blue","Green","J","negation","na","speech","no","na","male","gesture-speech","1440","900","safari","60","Mac OS","23","female","right","Wed Oct 23 2024 11:14:21 GMT+0200 (Mitteleuropäische Sommerzeit)","3","82","0","1729675767958"
"2398","f","SpeechGestureMatch","../RequiredFiles/videos/NeinDaumenhoch_f.mp4","Ist der Ball in der blauen Box?","Green","Blue","F","negation","mismatch","speech","no","ThumbUp","female","gesture-speech","1440","900","safari","60","Mac OS","23","female","right","Wed Oct 23 2024 11:14:29 GMT+0200 (Mitteleuropäische Sommerzeit)","3","83","0","1729675767958"
"2195","j","SpeechGestureMatch","../RequiredFiles/videos/JaDaumenrunter_m.mp4","Ist der Ball in der blauen Box?","Green","Blue","J","affirmation","mismatch","speech","yes","ThumbDown","male","gesture-speech","1440","900","safari","60","Mac OS","23","female","right","Wed Oct 23 2024 11:14:37 GMT+0200 (Mitteleuropäische Sommerzeit)","3","84","0","1729675767958"
