"rt","response","stim","video","question","box_colour_left","box_colour_right","correct_key","polarity","matching","modality","verbal","gesture","speaker","order","width","height","browser","vsync_rate","os","age","gender","handedness","date","blockNum","trialNum","error","vpNum"
"1075","f","SpeechGestureMatch","../RequiredFiles/videos/JaDaumenhoch_m_no_gesture.mp4","Ist der Ball in der blauen Box?","Blue","Green","F","affirmation","na","speech","yes","na","male","speech-gesture","1920","1200","firefox","32","Windows 10","32","male","left","Wed Oct 23 2024 16:32:53 GMT+0200 (Mitteleuropäische Sommerzeit)","1","1","0","1729697582876"
"1114","f","SpeechGestureMatch","../RequiredFiles/videos/JaDaumenrunter_f_no_gesture.mp4","Ist der Ball in der grünen Box?","Green","Blue","F","affirmation","na","speech","yes","na","female","speech-gesture","1920","1200","firefox","32","Windows 10","32","male","left","Wed Oct 23 2024 16:32:59 GMT+0200 (Mitteleuropäische Sommerzeit)","1","2","0","1729697582876"
"1154","f","SpeechGestureMatch","../RequiredFiles/videos/JaDaumenrunter_f.mp4","Ist der Ball in der grünen Box?","Green","Blue","F","affirmation","mismatch","speech","yes","ThumbDown","female","speech-gesture","1920","1200","firefox","32","Windows 10","32","male","left","Wed Oct 23 2024 16:33:06 GMT+0200 (Mitteleuropäische Sommerzeit)","1","3","0","1729697582876"
"1156","f","SpeechGestureMatch","../RequiredFiles/videos/JaDaumenrunter_f.mp4","Ist der Ball in der blauen Box?","Blue","Green","F","affirmation","mismatch","speech","yes","ThumbDown","female","speech-gesture","1920","1200","firefox","32","Windows 10","32","male","left","Wed Oct 23 2024 16:33:13 GMT+0200 (Mitteleuropäische Sommerzeit)","1","4","0","1729697582876"
"1139","j","SpeechGestureMatch","../RequiredFiles/videos/NeinDaumenrunter_m.mp4","Ist der Ball in der grünen Box?","Blue","Green","F","negation","match","speech","no","ThumbDown","male","speech-gesture","1920","1200","firefox","32","Windows 10","32","male","left","Wed Oct 23 2024 16:33:19 GMT+0200 (Mitteleuropäische Sommerzeit)","1","5","1","1729697582876"
"984","j","SpeechGestureMatch","../RequiredFiles/videos/NeinDaumenhoch_f_no_gesture.mp4","Ist der Ball in der blauen Box?","Blue","Green","J","negation","na","speech","no","na","female","speech-gesture","1920","1200","firefox","32","Windows 10","32","male","left","Wed Oct 23 2024 16:33:26 GMT+0200 (Mitteleuropäische Sommerzeit)","1","6","0","1729697582876"
"935","j","SpeechGestureMatch","../RequiredFiles/videos/NeinDaumenhoch_f.mp4","Ist der Ball in der grünen Box?","Green","Blue","J","negation","mismatch","speech","no","ThumbUp","female","speech-gesture","1920","1200","firefox","32","Windows 10","32","male","left","Wed Oct 23 2024 16:33:32 GMT+0200 (Mitteleuropäische Sommerzeit)","1","7","0","1729697582876"
"829","f","SpeechGestureMatch","../RequiredFiles/videos/JaDaumenhoch_m.mp4","Ist der Ball in der blauen Box?","Blue","Green","F","affirmation","match","speech","yes","ThumbUp","male","speech-gesture","1920","1200","firefox","32","Windows 10","32","male","left","Wed Oct 23 2024 16:33:39 GMT+0200 (Mitteleuropäische Sommerzeit)","1","8","0","1729697582876"
"1090","j","SpeechGestureMatch","../RequiredFiles/videos/NeinDaumenrunter_f_no_gesture.mp4","Ist der Ball in der blauen Box?","Green","Blue","F","negation","na","speech","no","na","female","speech-gesture","1920","1200","firefox","32","Windows 10","32","male","left","Wed Oct 23 2024 16:33:46 GMT+0200 (Mitteleuropäische Sommerzeit)","1","9","1","1729697582876"
"835","f","SpeechGestureMatch","../RequiredFiles/videos/JaDaumenhoch_m.mp4","Ist der Ball in der grünen Box?","Green","Blue","F","affirmation","match","speech","yes","ThumbUp","male","speech-gesture","1920","1200","firefox","32","Windows 10","32","male","left","Wed Oct 23 2024 16:33:52 GMT+0200 (Mitteleuropäische Sommerzeit)","1","10","0","1729697582876"
"815","j","SpeechGestureMatch","../RequiredFiles/videos/NeinDaumenrunter_f.mp4","Ist der Ball in der blauen Box?","Green","Blue","F","negation","match","speech","no","ThumbDown","female","speech-gesture","1920","1200","firefox","32","Windows 10","32","male","left","Wed Oct 23 2024 16:33:58 GMT+0200 (Mitteleuropäische Sommerzeit)","1","11","1","1729697582876"
"933","f","SpeechGestureMatch","../RequiredFiles/videos/JaDaumenhoch_f.mp4","Ist der Ball in der blauen Box?","Green","Blue","J","affirmation","match","speech","yes","ThumbUp","female","speech-gesture","1920","1200","firefox","32","Windows 10","32","male","left","Wed Oct 23 2024 16:34:05 GMT+0200 (Mitteleuropäische Sommerzeit)","1","12","1","1729697582876"
"844","f","SpeechGestureMatch","../RequiredFiles/videos/JaDaumenrunter_m.mp4","Ist der Ball in der grünen Box?","Green","Blue","F","affirmation","mismatch","speech","yes","ThumbDown","male","speech-gesture","1920","1200","firefox","32","Windows 10","32","male","left","Wed Oct 23 2024 16:34:11 GMT+0200 (Mitteleuropäische Sommerzeit)","1","13","0","1729697582876"
"1010","f","SpeechGestureMatch","../RequiredFiles/videos/JaDaumenrunter_m.mp4","Ist der Ball in der blauen Box?","Green","Blue","J","affirmation","mismatch","speech","yes","ThumbDown","male","speech-gesture","1920","1200","firefox","32","Windows 10","32","male","left","Wed Oct 23 2024 16:34:18 GMT+0200 (Mitteleuropäische Sommerzeit)","1","14","1","1729697582876"
"927","j","SpeechGestureMatch","../RequiredFiles/videos/NeinDaumenrunter_m.mp4","Ist der Ball in der grünen Box?","Blue","Green","F","negation","match","speech","no","ThumbDown","male","speech-gesture","1920","1200","firefox","32","Windows 10","32","male","left","Wed Oct 23 2024 16:34:24 GMT+0200 (Mitteleuropäische Sommerzeit)","1","15","1","1729697582876"
"1035","f","SpeechGestureMatch","../RequiredFiles/videos/JaDaumenhoch_f.mp4","Ist der Ball in der blauen Box?","Blue","Green","F","affirmation","match","speech","yes","ThumbUp","female","speech-gesture","1920","1200","firefox","32","Windows 10","32","male","left","Wed Oct 23 2024 16:34:31 GMT+0200 (Mitteleuropäische Sommerzeit)","1","16","0","1729697582876"
"998","j","SpeechGestureMatch","../RequiredFiles/videos/NeinDaumenhoch_f.mp4","Ist der Ball in der blauen Box?","Blue","Green","J","negation","mismatch","speech","no","ThumbUp","female","speech-gesture","1920","1200","firefox","32","Windows 10","32","male","left","Wed Oct 23 2024 16:34:37 GMT+0200 (Mitteleuropäische Sommerzeit)","1","17","0","1729697582876"
"1034","j","SpeechGestureMatch","../RequiredFiles/videos/NeinDaumenrunter_m.mp4","Ist der Ball in der grünen Box?","Green","Blue","J","negation","match","speech","no","ThumbDown","male","speech-gesture","1920","1200","firefox","32","Windows 10","32","male","left","Wed Oct 23 2024 16:34:44 GMT+0200 (Mitteleuropäische Sommerzeit)","1","18","0","1729697582876"
"857","j","SpeechGestureMatch","../RequiredFiles/videos/NeinDaumenrunter_m.mp4","Ist der Ball in der blauen Box?","Green","Blue","F","negation","match","speech","no","ThumbDown","male","speech-gesture","1920","1200","firefox","32","Windows 10","32","male","left","Wed Oct 23 2024 16:34:50 GMT+0200 (Mitteleuropäische Sommerzeit)","1","19","1","1729697582876"
"814","f","SpeechGestureMatch","../RequiredFiles/videos/JaDaumenhoch_m_no_gesture.mp4","Ist der Ball in der grünen Box?","Blue","Green","J","affirmation","na","speech","yes","na","male","speech-gesture","1920","1200","firefox","32","Windows 10","32","male","left","Wed Oct 23 2024 16:34:57 GMT+0200 (Mitteleuropäische Sommerzeit)","1","20","1","1729697582876"
"858","j","SpeechGestureMatch","../RequiredFiles/videos/NeinDaumenhoch_f.mp4","Ist der Ball in der blauen Box?","Green","Blue","F","negation","mismatch","speech","no","ThumbUp","female","speech-gesture","1920","1200","firefox","32","Windows 10","32","male","left","Wed Oct 23 2024 16:35:03 GMT+0200 (Mitteleuropäische Sommerzeit)","1","21","1","1729697582876"
"1102","j","SpeechGestureMatch","../RequiredFiles/videos/NeinDaumenhoch_f.mp4","Ist der Ball in der grünen Box?","Blue","Green","F","negation","mismatch","speech","no","ThumbUp","female","speech-gesture","1920","1200","firefox","32","Windows 10","32","male","left","Wed Oct 23 2024 16:35:10 GMT+0200 (Mitteleuropäische Sommerzeit)","1","22","1","1729697582876"
"1113","j","SpeechGestureMatch","../RequiredFiles/videos/NeinDaumenrunter_f_no_gesture.mp4","Ist der Ball in der grünen Box?","Blue","Green","F","negation","na","speech","no","na","female","speech-gesture","1920","1200","firefox","32","Windows 10","32","male","left","Wed Oct 23 2024 16:35:16 GMT+0200 (Mitteleuropäische Sommerzeit)","1","23","1","1729697582876"
"818","j","SpeechGestureMatch","../RequiredFiles/videos/NeinDaumenrunter_f_no_gesture.mp4","Ist der Ball in der grünen Box?","Green","Blue","J","negation","na","speech","no","na","female","speech-gesture","1920","1200","firefox","32","Windows 10","32","male","left","Wed Oct 23 2024 16:35:23 GMT+0200 (Mitteleuropäische Sommerzeit)","1","24","0","1729697582876"
"1006","f","SpeechGestureMatch","../RequiredFiles/videos/JaDaumenrunter_m_no_gesture.mp4","Ist der Ball in der grünen Box?","Green","Blue","F","affirmation","na","speech","yes","na","male","speech-gesture","1920","1200","firefox","32","Windows 10","32","male","left","Wed Oct 23 2024 16:35:29 GMT+0200 (Mitteleuropäische Sommerzeit)","1","25","0","1729697582876"
"919","f","SpeechGestureMatch","../RequiredFiles/videos/JaDaumenhoch_f.mp4","Ist der Ball in der grünen Box?","Blue","Green","J","affirmation","match","speech","yes","ThumbUp","female","speech-gesture","1920","1200","firefox","32","Windows 10","32","male","left","Wed Oct 23 2024 16:35:36 GMT+0200 (Mitteleuropäische Sommerzeit)","1","26","1","1729697582876"
"958","f","SpeechGestureMatch","../RequiredFiles/videos/JaDaumenhoch_f.mp4","Ist der Ball in der blauen Box?","Green","Blue","J","affirmation","match","speech","yes","ThumbUp","female","speech-gesture","1920","1200","firefox","32","Windows 10","32","male","left","Wed Oct 23 2024 16:35:43 GMT+0200 (Mitteleuropäische Sommerzeit)","1","27","1","1729697582876"
"1156","f","SpeechGestureMatch","../RequiredFiles/videos/JaDaumenrunter_f.mp4","Ist der Ball in der grünen Box?","Green","Blue","F","affirmation","mismatch","speech","yes","ThumbDown","female","speech-gesture","1920","1200","firefox","32","Windows 10","32","male","left","Wed Oct 23 2024 16:35:49 GMT+0200 (Mitteleuropäische Sommerzeit)","1","28","0","1729697582876"
"1692","j","SpeechGestureMatch","../RequiredFiles/videos/NeinDaumenrunter_f.mp4","Ist der Ball in der grünen Box?","Green","Blue","J","negation","match","speech","no","ThumbDown","female","speech-gesture","1920","1200","firefox","32","Windows 10","32","male","left","Wed Oct 23 2024 16:35:56 GMT+0200 (Mitteleuropäische Sommerzeit)","1","29","0","1729697582876"
"862","f","SpeechGestureMatch","../RequiredFiles/videos/JaDaumenrunter_f.mp4","Ist der Ball in der grünen Box?","Blue","Green","J","affirmation","mismatch","speech","yes","ThumbDown","female","speech-gesture","1920","1200","firefox","32","Windows 10","32","male","left","Wed Oct 23 2024 16:36:03 GMT+0200 (Mitteleuropäische Sommerzeit)","1","30","1","1729697582876"
"1498","j","SpeechGestureMatch","../RequiredFiles/videos/NeinDaumenrunter_m_no_gesture.mp4","Ist der Ball in der blauen Box?","Green","Blue","F","negation","na","speech","no","na","male","speech-gesture","1920","1200","firefox","32","Windows 10","32","male","left","Wed Oct 23 2024 16:36:10 GMT+0200 (Mitteleuropäische Sommerzeit)","1","31","1","1729697582876"
"815","f","SpeechGestureMatch","../RequiredFiles/videos/JaDaumenrunter_m.mp4","Ist der Ball in der blauen Box?","Green","Blue","J","affirmation","mismatch","speech","yes","ThumbDown","male","speech-gesture","1920","1200","firefox","32","Windows 10","32","male","left","Wed Oct 23 2024 16:36:16 GMT+0200 (Mitteleuropäische Sommerzeit)","1","32","1","1729697582876"
"1537","f","SpeechGestureMatch","../RequiredFiles/videos/JaDaumenrunter_f_no_gesture.mp4","Ist der Ball in der blauen Box?","Green","Blue","J","affirmation","na","speech","yes","na","female","speech-gesture","1920","1200","firefox","32","Windows 10","32","male","left","Wed Oct 23 2024 16:36:23 GMT+0200 (Mitteleuropäische Sommerzeit)","1","33","1","1729697582876"
"1088","f","SpeechGestureMatch","../RequiredFiles/videos/JaDaumenrunter_f.mp4","Ist der Ball in der blauen Box?","Green","Blue","J","affirmation","mismatch","speech","yes","ThumbDown","female","speech-gesture","1920","1200","firefox","32","Windows 10","32","male","left","Wed Oct 23 2024 16:36:30 GMT+0200 (Mitteleuropäische Sommerzeit)","1","34","1","1729697582876"
"1084","j","SpeechGestureMatch","../RequiredFiles/videos/NeinDaumenhoch_m_no_gesture.mp4","Ist der Ball in der blauen Box?","Blue","Green","J","negation","na","speech","no","na","male","speech-gesture","1920","1200","firefox","32","Windows 10","32","male","left","Wed Oct 23 2024 16:36:37 GMT+0200 (Mitteleuropäische Sommerzeit)","1","35","0","1729697582876"
"912","f","SpeechGestureMatch","../RequiredFiles/videos/JaDaumenrunter_f_no_gesture.mp4","Ist der Ball in der blauen Box?","Blue","Green","F","affirmation","na","speech","yes","na","female","speech-gesture","1920","1200","firefox","32","Windows 10","32","male","left","Wed Oct 23 2024 16:36:43 GMT+0200 (Mitteleuropäische Sommerzeit)","1","36","0","1729697582876"
"1131","j","SpeechGestureMatch","../RequiredFiles/videos/NeinDaumenhoch_m.mp4","Ist der Ball in der grünen Box?","Green","Blue","J","negation","mismatch","speech","no","ThumbUp","male","speech-gesture","1920","1200","firefox","32","Windows 10","32","male","left","Wed Oct 23 2024 16:36:50 GMT+0200 (Mitteleuropäische Sommerzeit)","1","37","0","1729697582876"
"1103","f","SpeechGestureMatch","../RequiredFiles/videos/JaDaumenhoch_f.mp4","Ist der Ball in der grünen Box?","Green","Blue","F","affirmation","match","speech","yes","ThumbUp","female","speech-gesture","1920","1200","firefox","32","Windows 10","32","male","left","Wed Oct 23 2024 16:36:57 GMT+0200 (Mitteleuropäische Sommerzeit)","1","38","0","1729697582876"
"1174","j","SpeechGestureMatch","../RequiredFiles/videos/NeinDaumenhoch_f_no_gesture.mp4","Ist der Ball in der blauen Box?","Green","Blue","F","negation","na","speech","no","na","female","speech-gesture","1920","1200","firefox","32","Windows 10","32","male","left","Wed Oct 23 2024 16:37:04 GMT+0200 (Mitteleuropäische Sommerzeit)","1","39","1","1729697582876"
"1010","j","SpeechGestureMatch","../RequiredFiles/videos/NeinDaumenhoch_f_no_gesture.mp4","Ist der Ball in der grünen Box?","Green","Blue","J","negation","na","speech","no","na","female","speech-gesture","1920","1200","firefox","32","Windows 10","32","male","left","Wed Oct 23 2024 16:37:10 GMT+0200 (Mitteleuropäische Sommerzeit)","1","40","0","1729697582876"
"1233","f","SpeechGestureMatch","../RequiredFiles/videos/JaDaumenrunter_m.mp4","Ist der Ball in der grünen Box?","Green","Blue","F","affirmation","mismatch","speech","yes","ThumbDown","male","speech-gesture","1920","1200","firefox","32","Windows 10","32","male","left","Wed Oct 23 2024 16:37:17 GMT+0200 (Mitteleuropäische Sommerzeit)","1","41","0","1729697582876"
"1215","f","SpeechGestureMatch","../RequiredFiles/videos/JaDaumenrunter_f.mp4","Ist der Ball in der blauen Box?","Blue","Green","F","affirmation","mismatch","speech","yes","ThumbDown","female","speech-gesture","1920","1200","firefox","32","Windows 10","32","male","left","Wed Oct 23 2024 16:37:24 GMT+0200 (Mitteleuropäische Sommerzeit)","1","42","0","1729697582876"
"1682","j","SpeechGestureMatch","../RequiredFiles/videos/NeinDaumenhoch_f.mp4","Ist der Ball in der grünen Box?","Blue","Green","F","negation","mismatch","speech","no","ThumbUp","female","speech-gesture","1920","1200","firefox","32","Windows 10","32","male","left","Wed Oct 23 2024 16:37:31 GMT+0200 (Mitteleuropäische Sommerzeit)","1","43","1","1729697582876"
"1236","f","SpeechGestureMatch","../RequiredFiles/videos/JaDaumenrunter_f.mp4","Ist der Ball in der blauen Box?","Green","Blue","J","affirmation","mismatch","speech","yes","ThumbDown","female","speech-gesture","1920","1200","firefox","32","Windows 10","32","male","left","Wed Oct 23 2024 16:37:38 GMT+0200 (Mitteleuropäische Sommerzeit)","1","44","1","1729697582876"
"856","j","SpeechGestureMatch","../RequiredFiles/videos/NeinDaumenhoch_m.mp4","Ist der Ball in der grünen Box?","Blue","Green","F","negation","mismatch","speech","no","ThumbUp","male","speech-gesture","1920","1200","firefox","32","Windows 10","32","male","left","Wed Oct 23 2024 16:37:44 GMT+0200 (Mitteleuropäische Sommerzeit)","1","45","1","1729697582876"
"939","j","SpeechGestureMatch","../RequiredFiles/videos/NeinDaumenhoch_m.mp4","Ist der Ball in der grünen Box?","Blue","Green","F","negation","mismatch","speech","no","ThumbUp","male","speech-gesture","1920","1200","firefox","32","Windows 10","32","male","left","Wed Oct 23 2024 16:37:51 GMT+0200 (Mitteleuropäische Sommerzeit)","1","46","1","1729697582876"
"1425","j","SpeechGestureMatch","../RequiredFiles/videos/JaDaumenrunter_f.mp4","Ist der Ball in der grünen Box?","Blue","Green","J","affirmation","mismatch","speech","yes","ThumbDown","female","speech-gesture","1920","1200","firefox","32","Windows 10","32","male","left","Wed Oct 23 2024 16:37:58 GMT+0200 (Mitteleuropäische Sommerzeit)","1","47","0","1729697582876"
"2152","j","SpeechGestureMatch","../RequiredFiles/videos/NeinDaumenrunter_m_no_gesture.mp4","Ist der Ball in der grünen Box?","Green","Blue","J","negation","na","speech","no","na","male","speech-gesture","1920","1200","firefox","32","Windows 10","32","male","left","Wed Oct 23 2024 16:38:06 GMT+0200 (Mitteleuropäische Sommerzeit)","1","48","0","1729697582876"
"921","f","SpeechGestureMatch","../RequiredFiles/videos/JaDaumenhoch_m.mp4","Ist der Ball in der blauen Box?","Green","Blue","J","affirmation","match","speech","yes","ThumbUp","male","speech-gesture","1920","1200","firefox","32","Windows 10","32","male","left","Wed Oct 23 2024 16:38:12 GMT+0200 (Mitteleuropäische Sommerzeit)","1","49","1","1729697582876"
"1107","j","SpeechGestureMatch","../RequiredFiles/videos/NeinDaumenhoch_m_no_gesture.mp4","Ist der Ball in der grünen Box?","Green","Blue","J","negation","na","speech","no","na","male","speech-gesture","1920","1200","firefox","32","Windows 10","32","male","left","Wed Oct 23 2024 16:38:19 GMT+0200 (Mitteleuropäische Sommerzeit)","1","50","0","1729697582876"
"1259","f","SpeechGestureMatch","../RequiredFiles/videos/JaDaumenhoch_f.mp4","Ist der Ball in der blauen Box?","Blue","Green","F","affirmation","match","speech","yes","ThumbUp","female","speech-gesture","1920","1200","firefox","32","Windows 10","32","male","left","Wed Oct 23 2024 16:38:26 GMT+0200 (Mitteleuropäische Sommerzeit)","1","51","0","1729697582876"
"1168","f","SpeechGestureMatch","../RequiredFiles/videos/JaDaumenhoch_f_no_gesture.mp4","Ist der Ball in der grünen Box?","Green","Blue","F","affirmation","na","speech","yes","na","female","speech-gesture","1920","1200","firefox","32","Windows 10","32","male","left","Wed Oct 23 2024 16:38:32 GMT+0200 (Mitteleuropäische Sommerzeit)","1","52","0","1729697582876"
"1248","j","SpeechGestureMatch","../RequiredFiles/videos/NeinDaumenhoch_m.mp4","Ist der Ball in der blauen Box?","Blue","Green","J","negation","mismatch","speech","no","ThumbUp","male","speech-gesture","1920","1200","firefox","32","Windows 10","32","male","left","Wed Oct 23 2024 16:38:39 GMT+0200 (Mitteleuropäische Sommerzeit)","1","53","0","1729697582876"
"899","j","SpeechGestureMatch","../RequiredFiles/videos/NeinDaumenrunter_f.mp4","Ist der Ball in der blauen Box?","Green","Blue","F","negation","match","speech","no","ThumbDown","female","speech-gesture","1920","1200","firefox","32","Windows 10","32","male","left","Wed Oct 23 2024 16:38:46 GMT+0200 (Mitteleuropäische Sommerzeit)","1","54","1","1729697582876"
"1066","f","SpeechGestureMatch","../RequiredFiles/videos/JaDaumenhoch_f_no_gesture.mp4","Ist der Ball in der grünen Box?","Blue","Green","J","affirmation","na","speech","yes","na","female","speech-gesture","1920","1200","firefox","32","Windows 10","32","male","left","Wed Oct 23 2024 16:38:52 GMT+0200 (Mitteleuropäische Sommerzeit)","1","55","1","1729697582876"
"1676","f","SpeechGestureMatch","../RequiredFiles/videos/JaDaumenrunter_m.mp4","Ist der Ball in der grünen Box?","Blue","Green","J","affirmation","mismatch","speech","yes","ThumbDown","male","speech-gesture","1920","1200","firefox","32","Windows 10","32","male","left","Wed Oct 23 2024 16:39:00 GMT+0200 (Mitteleuropäische Sommerzeit)","1","56","1","1729697582876"
"955","j","SpeechGestureMatch","../RequiredFiles/videos/NeinDaumenhoch_m_no_gesture.mp4","Ist der Ball in der grünen Box?","Blue","Green","F","negation","na","speech","no","na","male","speech-gesture","1920","1200","firefox","32","Windows 10","32","male","left","Wed Oct 23 2024 16:39:06 GMT+0200 (Mitteleuropäische Sommerzeit)","1","57","1","1729697582876"
"1330","j","SpeechGestureMatch","../RequiredFiles/videos/NeinDaumenhoch_f_no_gesture.mp4","Ist der Ball in der grünen Box?","Blue","Green","F","negation","na","speech","no","na","female","speech-gesture","1920","1200","firefox","32","Windows 10","32","male","left","Wed Oct 23 2024 16:39:13 GMT+0200 (Mitteleuropäische Sommerzeit)","1","58","1","1729697582876"
"1100","j","SpeechGestureMatch","../RequiredFiles/videos/NeinDaumenhoch_m_no_gesture.mp4","Ist der Ball in der blauen Box?","Green","Blue","F","negation","na","speech","no","na","male","speech-gesture","1920","1200","firefox","32","Windows 10","32","male","left","Wed Oct 23 2024 16:39:20 GMT+0200 (Mitteleuropäische Sommerzeit)","1","59","1","1729697582876"
"1174","f","SpeechGestureMatch","../RequiredFiles/videos/JaDaumenrunter_m.mp4","Ist der Ball in der blauen Box?","Blue","Green","F","affirmation","mismatch","speech","yes","ThumbDown","male","speech-gesture","1920","1200","firefox","32","Windows 10","32","male","left","Wed Oct 23 2024 16:39:26 GMT+0200 (Mitteleuropäische Sommerzeit)","1","60","0","1729697582876"
"996","f","SpeechGestureMatch","../RequiredFiles/videos/JaDaumenrunter_m_no_gesture.mp4","Ist der Ball in der blauen Box?","Green","Blue","J","affirmation","na","speech","yes","na","male","speech-gesture","1920","1200","firefox","32","Windows 10","32","male","left","Wed Oct 23 2024 16:39:33 GMT+0200 (Mitteleuropäische Sommerzeit)","1","61","1","1729697582876"
"1125","j","SpeechGestureMatch","../RequiredFiles/videos/NeinDaumenhoch_m.mp4","Ist der Ball in der blauen Box?","Blue","Green","J","negation","mismatch","speech","no","ThumbUp","male","speech-gesture","1920","1200","firefox","32","Windows 10","32","male","left","Wed Oct 23 2024 16:39:40 GMT+0200 (Mitteleuropäische Sommerzeit)","1","62","0","1729697582876"
"1187","j","SpeechGestureMatch","../RequiredFiles/videos/NeinDaumenrunter_m_no_gesture.mp4","Ist der Ball in der grünen Box?","Blue","Green","F","negation","na","speech","no","na","male","speech-gesture","1920","1200","firefox","32","Windows 10","32","male","left","Wed Oct 23 2024 16:39:46 GMT+0200 (Mitteleuropäische Sommerzeit)","1","63","1","1729697582876"
"965","j","SpeechGestureMatch","../RequiredFiles/videos/NeinDaumenrunter_f.mp4","Ist der Ball in der blauen Box?","Blue","Green","J","negation","match","speech","no","ThumbDown","female","speech-gesture","1920","1200","firefox","32","Windows 10","32","male","left","Wed Oct 23 2024 16:39:53 GMT+0200 (Mitteleuropäische Sommerzeit)","1","64","0","1729697582876"
"1385","f","SpeechGestureMatch","../RequiredFiles/videos/JaDaumenrunter_m.mp4","Ist der Ball in der grünen Box?","Blue","Green","J","affirmation","mismatch","speech","yes","ThumbDown","male","speech-gesture","1920","1200","firefox","32","Windows 10","32","male","left","Wed Oct 23 2024 16:40:00 GMT+0200 (Mitteleuropäische Sommerzeit)","1","65","1","1729697582876"
"950","f","SpeechGestureMatch","../RequiredFiles/videos/NeinDaumenhoch_m.mp4","Ist der Ball in der blauen Box?","Green","Blue","F","negation","mismatch","speech","no","ThumbUp","male","speech-gesture","1920","1200","firefox","32","Windows 10","32","male","left","Wed Oct 23 2024 16:40:06 GMT+0200 (Mitteleuropäische Sommerzeit)","1","66","0","1729697582876"
"1124","f","SpeechGestureMatch","../RequiredFiles/videos/JaDaumenrunter_m_no_gesture.mp4","Ist der Ball in der grünen Box?","Blue","Green","J","affirmation","na","speech","yes","na","male","speech-gesture","1920","1200","firefox","32","Windows 10","32","male","left","Wed Oct 23 2024 16:40:13 GMT+0200 (Mitteleuropäische Sommerzeit)","1","67","1","1729697582876"
"1147","j","SpeechGestureMatch","../RequiredFiles/videos/NeinDaumenrunter_m.mp4","Ist der Ball in der grünen Box?","Green","Blue","J","negation","match","speech","no","ThumbDown","male","speech-gesture","1920","1200","firefox","32","Windows 10","32","male","left","Wed Oct 23 2024 16:40:20 GMT+0200 (Mitteleuropäische Sommerzeit)","1","68","0","1729697582876"
"1249","j","SpeechGestureMatch","../RequiredFiles/videos/NeinDaumenrunter_f.mp4","Ist der Ball in der grünen Box?","Blue","Green","F","negation","match","speech","no","ThumbDown","female","speech-gesture","1920","1200","firefox","32","Windows 10","32","male","left","Wed Oct 23 2024 16:40:27 GMT+0200 (Mitteleuropäische Sommerzeit)","1","69","1","1729697582876"
"1275","f","SpeechGestureMatch","../RequiredFiles/videos/JaDaumenrunter_f_no_gesture.mp4","Ist der Ball in der grünen Box?","Blue","Green","J","affirmation","na","speech","yes","na","female","speech-gesture","1920","1200","firefox","32","Windows 10","32","male","left","Wed Oct 23 2024 16:40:34 GMT+0200 (Mitteleuropäische Sommerzeit)","1","70","1","1729697582876"
"927","j","SpeechGestureMatch","../RequiredFiles/videos/NeinDaumenrunter_f_no_gesture.mp4","Ist der Ball in der blauen Box?","Blue","Green","J","negation","na","speech","no","na","female","speech-gesture","1920","1200","firefox","32","Windows 10","32","male","left","Wed Oct 23 2024 16:40:40 GMT+0200 (Mitteleuropäische Sommerzeit)","1","71","0","1729697582876"
"1998","j","SpeechGestureMatch","../RequiredFiles/videos/NeinDaumenhoch_f.mp4","Ist der Ball in der grünen Box?","Green","Blue","J","negation","mismatch","speech","no","ThumbUp","female","speech-gesture","1920","1200","firefox","32","Windows 10","32","male","left","Wed Oct 23 2024 16:40:48 GMT+0200 (Mitteleuropäische Sommerzeit)","1","72","0","1729697582876"
"1104","f","SpeechGestureMatch","../RequiredFiles/videos/JaDaumenrunter_m.mp4","Ist der Ball in der blauen Box?","Blue","Green","F","affirmation","mismatch","speech","yes","ThumbDown","male","speech-gesture","1920","1200","firefox","32","Windows 10","32","male","left","Wed Oct 23 2024 16:40:54 GMT+0200 (Mitteleuropäische Sommerzeit)","1","73","0","1729697582876"
"1440","j","SpeechGestureMatch","../RequiredFiles/videos/NeinDaumenhoch_f.mp4","Ist der Ball in der blauen Box?","Green","Blue","F","negation","mismatch","speech","no","ThumbUp","female","speech-gesture","1920","1200","firefox","32","Windows 10","32","male","left","Wed Oct 23 2024 16:41:01 GMT+0200 (Mitteleuropäische Sommerzeit)","1","74","1","1729697582876"
"1220","f","SpeechGestureMatch","../RequiredFiles/videos/JaDaumenhoch_f.mp4","Ist der Ball in der grünen Box?","Green","Blue","F","affirmation","match","speech","yes","ThumbUp","female","speech-gesture","1920","1200","firefox","32","Windows 10","32","male","left","Wed Oct 23 2024 16:41:08 GMT+0200 (Mitteleuropäische Sommerzeit)","1","75","0","1729697582876"
"1017","f","SpeechGestureMatch","../RequiredFiles/videos/JaDaumenhoch_m_no_gesture.mp4","Ist der Ball in der blauen Box?","Green","Blue","J","affirmation","na","speech","yes","na","male","speech-gesture","1920","1200","firefox","32","Windows 10","32","male","left","Wed Oct 23 2024 16:41:15 GMT+0200 (Mitteleuropäische Sommerzeit)","1","76","1","1729697582876"
"2169","f","SpeechGestureMatch","../RequiredFiles/videos/JaDaumenrunter_m_no_gesture.mp4","Ist der Ball in der blauen Box?","Blue","Green","F","affirmation","na","speech","yes","na","male","speech-gesture","1920","1200","firefox","32","Windows 10","32","male","left","Wed Oct 23 2024 16:41:22 GMT+0200 (Mitteleuropäische Sommerzeit)","1","77","0","1729697582876"
"2804","f","SpeechGestureMatch","../RequiredFiles/videos/JaDaumenhoch_f_no_gesture.mp4","Ist der Ball in der blauen Box?","Green","Blue","J","affirmation","na","speech","yes","na","female","speech-gesture","1920","1200","firefox","32","Windows 10","32","male","left","Wed Oct 23 2024 16:41:31 GMT+0200 (Mitteleuropäische Sommerzeit)","1","78","1","1729697582876"
"1260","f","SpeechGestureMatch","../RequiredFiles/videos/JaDaumenhoch_f_no_gesture.mp4","Ist der Ball in der blauen Box?","Blue","Green","F","affirmation","na","speech","yes","na","female","speech-gesture","1920","1200","firefox","32","Windows 10","32","male","left","Wed Oct 23 2024 16:41:38 GMT+0200 (Mitteleuropäische Sommerzeit)","1","79","0","1729697582876"
"1002","f","SpeechGestureMatch","../RequiredFiles/videos/JaDaumenhoch_f.mp4","Ist der Ball in der grünen Box?","Blue","Green","J","affirmation","match","speech","yes","ThumbUp","female","speech-gesture","1920","1200","firefox","32","Windows 10","32","male","left","Wed Oct 23 2024 16:41:44 GMT+0200 (Mitteleuropäische Sommerzeit)","1","80","1","1729697582876"
"1209","f","SpeechGestureMatch","../RequiredFiles/videos/JaDaumenhoch_m.mp4","Ist der Ball in der grünen Box?","Blue","Green","J","affirmation","match","speech","yes","ThumbUp","male","speech-gesture","1920","1200","firefox","32","Windows 10","32","male","left","Wed Oct 23 2024 16:41:51 GMT+0200 (Mitteleuropäische Sommerzeit)","1","81","1","1729697582876"
"1016","f","SpeechGestureMatch","../RequiredFiles/videos/JaDaumenhoch_m.mp4","Ist der Ball in der grünen Box?","Blue","Green","J","affirmation","match","speech","yes","ThumbUp","male","speech-gesture","1920","1200","firefox","32","Windows 10","32","male","left","Wed Oct 23 2024 16:41:57 GMT+0200 (Mitteleuropäische Sommerzeit)","1","82","1","1729697582876"
"1315","j","SpeechGestureMatch","../RequiredFiles/videos/NeinDaumenrunter_m.mp4","Ist der Ball in der blauen Box?","Blue","Green","J","negation","match","speech","no","ThumbDown","male","speech-gesture","1920","1200","firefox","32","Windows 10","32","male","left","Wed Oct 23 2024 16:42:04 GMT+0200 (Mitteleuropäische Sommerzeit)","1","83","0","1729697582876"
"1445","j","SpeechGestureMatch","../RequiredFiles/videos/NeinDaumenhoch_f.mp4","Ist der Ball in der blauen Box?","Blue","Green","J","negation","mismatch","speech","no","ThumbUp","female","speech-gesture","1920","1200","firefox","32","Windows 10","32","male","left","Wed Oct 23 2024 16:42:11 GMT+0200 (Mitteleuropäische Sommerzeit)","1","84","0","1729697582876"
"1294","j","SpeechGestureMatch","../RequiredFiles/videos/NeinDaumenrunter_f.mp4","Ist der Ball in der blauen Box?","Blue","Green","J","negation","match","speech","no","ThumbDown","female","speech-gesture","1920","1200","firefox","32","Windows 10","32","male","left","Wed Oct 23 2024 16:42:18 GMT+0200 (Mitteleuropäische Sommerzeit)","1","85","0","1729697582876"
"1097","j","SpeechGestureMatch","../RequiredFiles/videos/NeinDaumenrunter_m.mp4","Ist der Ball in der blauen Box?","Blue","Green","J","negation","match","speech","no","ThumbDown","male","speech-gesture","1920","1200","firefox","32","Windows 10","32","male","left","Wed Oct 23 2024 16:42:25 GMT+0200 (Mitteleuropäische Sommerzeit)","1","86","0","1729697582876"
"1199","j","SpeechGestureMatch","../RequiredFiles/videos/NeinDaumenrunter_f.mp4","Ist der Ball in der grünen Box?","Blue","Green","F","negation","match","speech","no","ThumbDown","female","speech-gesture","1920","1200","firefox","32","Windows 10","32","male","left","Wed Oct 23 2024 16:42:32 GMT+0200 (Mitteleuropäische Sommerzeit)","1","87","1","1729697582876"
"1785","j","SpeechGestureMatch","../RequiredFiles/videos/NeinDaumenrunter_m_no_gesture.mp4","Ist der Ball in der blauen Box?","Blue","Green","J","negation","na","speech","no","na","male","speech-gesture","1920","1200","firefox","32","Windows 10","32","male","left","Wed Oct 23 2024 16:42:39 GMT+0200 (Mitteleuropäische Sommerzeit)","1","88","0","1729697582876"
"1029","j","SpeechGestureMatch","../RequiredFiles/videos/NeinDaumenrunter_m.mp4","Ist der Ball in der blauen Box?","Green","Blue","F","negation","match","speech","no","ThumbDown","male","speech-gesture","1920","1200","firefox","32","Windows 10","32","male","left","Wed Oct 23 2024 16:42:46 GMT+0200 (Mitteleuropäische Sommerzeit)","1","89","1","1729697582876"
"1066","f","SpeechGestureMatch","../RequiredFiles/videos/JaDaumenhoch_m_no_gesture.mp4","Ist der Ball in der grünen Box?","Green","Blue","F","affirmation","na","speech","yes","na","male","speech-gesture","1920","1200","firefox","32","Windows 10","32","male","left","Wed Oct 23 2024 16:42:52 GMT+0200 (Mitteleuropäische Sommerzeit)","1","90","0","1729697582876"
"1600","f","SpeechGestureMatch","../RequiredFiles/videos/JaDaumenhoch_m.mp4","Ist der Ball in der blauen Box?","Green","Blue","J","affirmation","match","speech","yes","ThumbUp","male","speech-gesture","1920","1200","firefox","32","Windows 10","32","male","left","Wed Oct 23 2024 16:43:00 GMT+0200 (Mitteleuropäische Sommerzeit)","1","91","1","1729697582876"
"1110","f","SpeechGestureMatch","../RequiredFiles/videos/JaDaumenhoch_m.mp4","Ist der Ball in der grünen Box?","Green","Blue","F","affirmation","match","speech","yes","ThumbUp","male","speech-gesture","1920","1200","firefox","32","Windows 10","32","male","left","Wed Oct 23 2024 16:43:06 GMT+0200 (Mitteleuropäische Sommerzeit)","1","92","0","1729697582876"
"1304","j","SpeechGestureMatch","../RequiredFiles/videos/NeinDaumenhoch_m.mp4","Ist der Ball in der grünen Box?","Green","Blue","J","negation","mismatch","speech","no","ThumbUp","male","speech-gesture","1920","1200","firefox","32","Windows 10","32","male","left","Wed Oct 23 2024 16:43:13 GMT+0200 (Mitteleuropäische Sommerzeit)","1","93","0","1729697582876"
"1162","j","SpeechGestureMatch","../RequiredFiles/videos/NeinDaumenhoch_m.mp4","Ist der Ball in der blauen Box?","Green","Blue","F","negation","mismatch","speech","no","ThumbUp","male","speech-gesture","1920","1200","firefox","32","Windows 10","32","male","left","Wed Oct 23 2024 16:43:20 GMT+0200 (Mitteleuropäische Sommerzeit)","1","94","1","1729697582876"
"1134","j","SpeechGestureMatch","../RequiredFiles/videos/NeinDaumenrunter_f.mp4","Ist der Ball in der grünen Box?","Green","Blue","J","negation","match","speech","no","ThumbDown","female","speech-gesture","1920","1200","firefox","32","Windows 10","32","male","left","Wed Oct 23 2024 16:43:27 GMT+0200 (Mitteleuropäische Sommerzeit)","1","95","0","1729697582876"
"1629","f","SpeechGestureMatch","../RequiredFiles/videos/JaDaumenhoch_m.mp4","Ist der Ball in der blauen Box?","Blue","Green","F","affirmation","match","speech","yes","ThumbUp","male","speech-gesture","1920","1200","firefox","32","Windows 10","32","male","left","Wed Oct 23 2024 16:43:34 GMT+0200 (Mitteleuropäische Sommerzeit)","1","96","0","1729697582876"
"1513","j","SpeechGestureMatch","../RequiredFiles/videos/NeinDaumenhoch_f_no_gesture.mp4","Ist der Ball in der grünen Box?","Green","Blue","J","negation","na","speech","no","na","female","speech-gesture","1920","1200","firefox","32","Windows 10","32","male","left","Wed Oct 23 2024 16:57:05 GMT+0200 (Mitteleuropäische Sommerzeit)","2","1","0","1729697582876"
"1687","f","SpeechGestureMatch","../RequiredFiles/videos/JaDaumenhoch_f.mp4","Ist der Ball in der grünen Box?","Blue","Green","J","affirmation","match","speech","yes","ThumbUp","female","speech-gesture","1920","1200","firefox","32","Windows 10","32","male","left","Wed Oct 23 2024 16:57:12 GMT+0200 (Mitteleuropäische Sommerzeit)","2","2","1","1729697582876"
"990","f","SpeechGestureMatch","../RequiredFiles/videos/JaDaumenhoch_f_no_gesture.mp4","Ist der Ball in der grünen Box?","Green","Blue","F","affirmation","na","speech","yes","na","female","speech-gesture","1920","1200","firefox","32","Windows 10","32","male","left","Wed Oct 23 2024 16:57:18 GMT+0200 (Mitteleuropäische Sommerzeit)","2","3","0","1729697582876"
"1456","j","SpeechGestureMatch","../RequiredFiles/videos/NeinDaumenrunter_f.mp4","Ist der Ball in der blauen Box?","Green","Blue","F","negation","match","speech","no","ThumbDown","female","speech-gesture","1920","1200","firefox","32","Windows 10","32","male","left","Wed Oct 23 2024 16:57:25 GMT+0200 (Mitteleuropäische Sommerzeit)","2","4","1","1729697582876"
"2277","j","SpeechGestureMatch","../RequiredFiles/videos/NeinDaumenrunter_m.mp4","Ist der Ball in der grünen Box?","Green","Blue","J","negation","match","speech","no","ThumbDown","male","speech-gesture","1920","1200","firefox","32","Windows 10","32","male","left","Wed Oct 23 2024 16:57:33 GMT+0200 (Mitteleuropäische Sommerzeit)","2","5","0","1729697582876"
"1298","j","SpeechGestureMatch","../RequiredFiles/videos/NeinDaumenhoch_f.mp4","Ist der Ball in der grünen Box?","Green","Blue","J","negation","mismatch","speech","no","ThumbUp","female","speech-gesture","1920","1200","firefox","32","Windows 10","32","male","left","Wed Oct 23 2024 16:57:40 GMT+0200 (Mitteleuropäische Sommerzeit)","2","6","0","1729697582876"
"801","f","SpeechGestureMatch","../RequiredFiles/videos/JaDaumenhoch_m.mp4","Ist der Ball in der grünen Box?","Blue","Green","J","affirmation","match","speech","yes","ThumbUp","male","speech-gesture","1920","1200","firefox","32","Windows 10","32","male","left","Wed Oct 23 2024 16:57:46 GMT+0200 (Mitteleuropäische Sommerzeit)","2","7","1","1729697582876"
"987","j","SpeechGestureMatch","../RequiredFiles/videos/NeinDaumenhoch_m.mp4","Ist der Ball in der grünen Box?","Blue","Green","F","negation","mismatch","speech","no","ThumbUp","male","speech-gesture","1920","1200","firefox","32","Windows 10","32","male","left","Wed Oct 23 2024 16:57:53 GMT+0200 (Mitteleuropäische Sommerzeit)","2","8","1","1729697582876"
"1099","f","SpeechGestureMatch","../RequiredFiles/videos/JaDaumenrunter_f.mp4","Ist der Ball in der blauen Box?","Blue","Green","F","affirmation","mismatch","speech","yes","ThumbDown","female","speech-gesture","1920","1200","firefox","32","Windows 10","32","male","left","Wed Oct 23 2024 16:58:00 GMT+0200 (Mitteleuropäische Sommerzeit)","2","9","0","1729697582876"
"863","j","SpeechGestureMatch","../RequiredFiles/videos/NeinDaumenrunter_m.mp4","Ist der Ball in der grünen Box?","Blue","Green","F","negation","match","speech","no","ThumbDown","male","speech-gesture","1920","1200","firefox","32","Windows 10","32","male","left","Wed Oct 23 2024 16:58:06 GMT+0200 (Mitteleuropäische Sommerzeit)","2","10","1","1729697582876"
"1002","j","SpeechGestureMatch","../RequiredFiles/videos/NeinDaumenhoch_m_no_gesture.mp4","Ist der Ball in der grünen Box?","Blue","Green","F","negation","na","speech","no","na","male","speech-gesture","1920","1200","firefox","32","Windows 10","32","male","left","Wed Oct 23 2024 16:58:13 GMT+0200 (Mitteleuropäische Sommerzeit)","2","11","1","1729697582876"
"983","j","SpeechGestureMatch","../RequiredFiles/videos/NeinDaumenhoch_m.mp4","Ist der Ball in der blauen Box?","Green","Blue","F","negation","mismatch","speech","no","ThumbUp","male","speech-gesture","1920","1200","firefox","32","Windows 10","32","male","left","Wed Oct 23 2024 16:58:19 GMT+0200 (Mitteleuropäische Sommerzeit)","2","12","1","1729697582876"
"945","j","SpeechGestureMatch","../RequiredFiles/videos/NeinDaumenrunter_m.mp4","Ist der Ball in der blauen Box?","Green","Blue","F","negation","match","speech","no","ThumbDown","male","speech-gesture","1920","1200","firefox","32","Windows 10","32","male","left","Wed Oct 23 2024 16:58:26 GMT+0200 (Mitteleuropäische Sommerzeit)","2","13","1","1729697582876"
"899","j","SpeechGestureMatch","../RequiredFiles/videos/NeinDaumenrunter_m_no_gesture.mp4","Ist der Ball in der grünen Box?","Green","Blue","J","negation","na","speech","no","na","male","speech-gesture","1920","1200","firefox","32","Windows 10","32","male","left","Wed Oct 23 2024 16:58:32 GMT+0200 (Mitteleuropäische Sommerzeit)","2","14","0","1729697582876"
"1079","j","SpeechGestureMatch","../RequiredFiles/videos/NeinDaumenrunter_m_no_gesture.mp4","Ist der Ball in der grünen Box?","Blue","Green","F","negation","na","speech","no","na","male","speech-gesture","1920","1200","firefox","32","Windows 10","32","male","left","Wed Oct 23 2024 16:58:39 GMT+0200 (Mitteleuropäische Sommerzeit)","2","15","1","1729697582876"
"911","j","SpeechGestureMatch","../RequiredFiles/videos/NeinDaumenrunter_f.mp4","Ist der Ball in der blauen Box?","Blue","Green","J","negation","match","speech","no","ThumbDown","female","speech-gesture","1920","1200","firefox","32","Windows 10","32","male","left","Wed Oct 23 2024 16:58:45 GMT+0200 (Mitteleuropäische Sommerzeit)","2","16","0","1729697582876"
"897","j","SpeechGestureMatch","../RequiredFiles/videos/NeinDaumenrunter_m.mp4","Ist der Ball in der blauen Box?","Blue","Green","J","negation","match","speech","no","ThumbDown","male","speech-gesture","1920","1200","firefox","32","Windows 10","32","male","left","Wed Oct 23 2024 16:58:52 GMT+0200 (Mitteleuropäische Sommerzeit)","2","17","0","1729697582876"
"1111","f","SpeechGestureMatch","../RequiredFiles/videos/JaDaumenrunter_m.mp4","Ist der Ball in der blauen Box?","Blue","Green","F","affirmation","mismatch","speech","yes","ThumbDown","male","speech-gesture","1920","1200","firefox","32","Windows 10","32","male","left","Wed Oct 23 2024 16:58:59 GMT+0200 (Mitteleuropäische Sommerzeit)","2","18","0","1729697582876"
"1081","f","SpeechGestureMatch","../RequiredFiles/videos/JaDaumenrunter_f.mp4","Ist der Ball in der grünen Box?","Blue","Green","J","affirmation","mismatch","speech","yes","ThumbDown","female","speech-gesture","1920","1200","firefox","32","Windows 10","32","male","left","Wed Oct 23 2024 16:59:05 GMT+0200 (Mitteleuropäische Sommerzeit)","2","19","1","1729697582876"
"1196","f","SpeechGestureMatch","../RequiredFiles/videos/JaDaumenhoch_f.mp4","Ist der Ball in der blauen Box?","Blue","Green","F","affirmation","match","speech","yes","ThumbUp","female","speech-gesture","1920","1200","firefox","32","Windows 10","32","male","left","Wed Oct 23 2024 16:59:12 GMT+0200 (Mitteleuropäische Sommerzeit)","2","20","0","1729697582876"
"935","f","SpeechGestureMatch","../RequiredFiles/videos/JaDaumenrunter_f_no_gesture.mp4","Ist der Ball in der grünen Box?","Green","Blue","F","affirmation","na","speech","yes","na","female","speech-gesture","1920","1200","firefox","32","Windows 10","32","male","left","Wed Oct 23 2024 16:59:19 GMT+0200 (Mitteleuropäische Sommerzeit)","2","21","0","1729697582876"
"919","f","SpeechGestureMatch","../RequiredFiles/videos/JaDaumenrunter_f.mp4","Ist der Ball in der blauen Box?","Green","Blue","J","affirmation","mismatch","speech","yes","ThumbDown","female","speech-gesture","1920","1200","firefox","32","Windows 10","32","male","left","Wed Oct 23 2024 16:59:25 GMT+0200 (Mitteleuropäische Sommerzeit)","2","22","1","1729697582876"
"1079","f","SpeechGestureMatch","../RequiredFiles/videos/JaDaumenhoch_f_no_gesture.mp4","Ist der Ball in der blauen Box?","Green","Blue","J","affirmation","na","speech","yes","na","female","speech-gesture","1920","1200","firefox","32","Windows 10","32","male","left","Wed Oct 23 2024 16:59:32 GMT+0200 (Mitteleuropäische Sommerzeit)","2","23","1","1729697582876"
"995","f","SpeechGestureMatch","../RequiredFiles/videos/JaDaumenrunter_f.mp4","Ist der Ball in der blauen Box?","Green","Blue","J","affirmation","mismatch","speech","yes","ThumbDown","female","speech-gesture","1920","1200","firefox","32","Windows 10","32","male","left","Wed Oct 23 2024 16:59:39 GMT+0200 (Mitteleuropäische Sommerzeit)","2","24","1","1729697582876"
"1240","f","SpeechGestureMatch","../RequiredFiles/videos/JaDaumenrunter_m.mp4","Ist der Ball in der grünen Box?","Green","Blue","F","affirmation","mismatch","speech","yes","ThumbDown","male","speech-gesture","1920","1200","firefox","32","Windows 10","32","male","left","Wed Oct 23 2024 16:59:45 GMT+0200 (Mitteleuropäische Sommerzeit)","2","25","0","1729697582876"
"985","j","SpeechGestureMatch","../RequiredFiles/videos/NeinDaumenrunter_f_no_gesture.mp4","Ist der Ball in der blauen Box?","Green","Blue","F","negation","na","speech","no","na","female","speech-gesture","1920","1200","firefox","32","Windows 10","32","male","left","Wed Oct 23 2024 16:59:52 GMT+0200 (Mitteleuropäische Sommerzeit)","2","26","1","1729697582876"
"895","f","SpeechGestureMatch","../RequiredFiles/videos/JaDaumenhoch_f.mp4","Ist der Ball in der grünen Box?","Green","Blue","F","affirmation","match","speech","yes","ThumbUp","female","speech-gesture","1920","1200","firefox","32","Windows 10","32","male","left","Wed Oct 23 2024 16:59:58 GMT+0200 (Mitteleuropäische Sommerzeit)","2","27","0","1729697582876"
"1043","f","SpeechGestureMatch","../RequiredFiles/videos/JaDaumenhoch_m.mp4","Ist der Ball in der blauen Box?","Blue","Green","F","affirmation","match","speech","yes","ThumbUp","male","speech-gesture","1920","1200","firefox","32","Windows 10","32","male","left","Wed Oct 23 2024 17:00:05 GMT+0200 (Mitteleuropäische Sommerzeit)","2","28","0","1729697582876"
"941","j","SpeechGestureMatch","../RequiredFiles/videos/NeinDaumenhoch_m.mp4","Ist der Ball in der grünen Box?","Green","Blue","J","negation","mismatch","speech","no","ThumbUp","male","speech-gesture","1920","1200","firefox","32","Windows 10","32","male","left","Wed Oct 23 2024 17:00:12 GMT+0200 (Mitteleuropäische Sommerzeit)","2","29","0","1729697582876"
"1066","j","SpeechGestureMatch","../RequiredFiles/videos/NeinDaumenhoch_m.mp4","Ist der Ball in der grünen Box?","Blue","Green","F","negation","mismatch","speech","no","ThumbUp","male","speech-gesture","1920","1200","firefox","32","Windows 10","32","male","left","Wed Oct 23 2024 17:00:18 GMT+0200 (Mitteleuropäische Sommerzeit)","2","30","1","1729697582876"
"894","j","SpeechGestureMatch","../RequiredFiles/videos/NeinDaumenrunter_f_no_gesture.mp4","Ist der Ball in der grünen Box?","Blue","Green","F","negation","na","speech","no","na","female","speech-gesture","1920","1200","firefox","32","Windows 10","32","male","left","Wed Oct 23 2024 17:00:25 GMT+0200 (Mitteleuropäische Sommerzeit)","2","31","1","1729697582876"
"953","f","SpeechGestureMatch","../RequiredFiles/videos/JaDaumenhoch_f.mp4","Ist der Ball in der blauen Box?","Blue","Green","F","affirmation","match","speech","yes","ThumbUp","female","speech-gesture","1920","1200","firefox","32","Windows 10","32","male","left","Wed Oct 23 2024 17:00:31 GMT+0200 (Mitteleuropäische Sommerzeit)","2","32","0","1729697582876"
"911","j","SpeechGestureMatch","../RequiredFiles/videos/NeinDaumenrunter_f.mp4","Ist der Ball in der blauen Box?","Green","Blue","F","negation","match","speech","no","ThumbDown","female","speech-gesture","1920","1200","firefox","32","Windows 10","32","male","left","Wed Oct 23 2024 17:00:38 GMT+0200 (Mitteleuropäische Sommerzeit)","2","33","1","1729697582876"
"1187","f","SpeechGestureMatch","../RequiredFiles/videos/JaDaumenrunter_m.mp4","Ist der Ball in der blauen Box?","Blue","Green","F","affirmation","mismatch","speech","yes","ThumbDown","male","speech-gesture","1920","1200","firefox","32","Windows 10","32","male","left","Wed Oct 23 2024 17:00:45 GMT+0200 (Mitteleuropäische Sommerzeit)","2","34","0","1729697582876"
"1040","f","SpeechGestureMatch","../RequiredFiles/videos/JaDaumenhoch_f.mp4","Ist der Ball in der grünen Box?","Green","Blue","F","affirmation","match","speech","yes","ThumbUp","female","speech-gesture","1920","1200","firefox","32","Windows 10","32","male","left","Wed Oct 23 2024 17:00:51 GMT+0200 (Mitteleuropäische Sommerzeit)","2","35","0","1729697582876"
"909","f","SpeechGestureMatch","../RequiredFiles/videos/JaDaumenhoch_m_no_gesture.mp4","Ist der Ball in der blauen Box?","Blue","Green","F","affirmation","na","speech","yes","na","male","speech-gesture","1920","1200","firefox","32","Windows 10","32","male","left","Wed Oct 23 2024 17:00:58 GMT+0200 (Mitteleuropäische Sommerzeit)","2","36","0","1729697582876"
"1021","j","SpeechGestureMatch","../RequiredFiles/videos/NeinDaumenrunter_f.mp4","Ist der Ball in der grünen Box?","Green","Blue","J","negation","match","speech","no","ThumbDown","female","speech-gesture","1920","1200","firefox","32","Windows 10","32","male","left","Wed Oct 23 2024 17:01:05 GMT+0200 (Mitteleuropäische Sommerzeit)","2","37","0","1729697582876"
"1002","j","SpeechGestureMatch","../RequiredFiles/videos/NeinDaumenrunter_f_no_gesture.mp4","Ist der Ball in der grünen Box?","Green","Blue","J","negation","na","speech","no","na","female","speech-gesture","1920","1200","firefox","32","Windows 10","32","male","left","Wed Oct 23 2024 17:01:11 GMT+0200 (Mitteleuropäische Sommerzeit)","2","38","0","1729697582876"
"1155","f","SpeechGestureMatch","../RequiredFiles/videos/JaDaumenhoch_m_no_gesture.mp4","Ist der Ball in der grünen Box?","Green","Blue","F","affirmation","na","speech","yes","na","male","speech-gesture","1920","1200","firefox","32","Windows 10","32","male","left","Wed Oct 23 2024 17:01:18 GMT+0200 (Mitteleuropäische Sommerzeit)","2","39","0","1729697582876"
"1097","j","SpeechGestureMatch","../RequiredFiles/videos/NeinDaumenhoch_m_no_gesture.mp4","Ist der Ball in der blauen Box?","Blue","Green","J","negation","na","speech","no","na","male","speech-gesture","1920","1200","firefox","32","Windows 10","32","male","left","Wed Oct 23 2024 17:01:25 GMT+0200 (Mitteleuropäische Sommerzeit)","2","40","0","1729697582876"
"1044","j","SpeechGestureMatch","../RequiredFiles/videos/NeinDaumenrunter_m.mp4","Ist der Ball in der grünen Box?","Blue","Green","F","negation","match","speech","no","ThumbDown","male","speech-gesture","1920","1200","firefox","32","Windows 10","32","male","left","Wed Oct 23 2024 17:01:31 GMT+0200 (Mitteleuropäische Sommerzeit)","2","41","1","1729697582876"
"1022","j","SpeechGestureMatch","../RequiredFiles/videos/NeinDaumenhoch_m.mp4","Ist der Ball in der blauen Box?","Blue","Green","J","negation","mismatch","speech","no","ThumbUp","male","speech-gesture","1920","1200","firefox","32","Windows 10","32","male","left","Wed Oct 23 2024 17:01:38 GMT+0200 (Mitteleuropäische Sommerzeit)","2","42","0","1729697582876"
"1109","f","SpeechGestureMatch","../RequiredFiles/videos/JaDaumenrunter_f_no_gesture.mp4","Ist der Ball in der grünen Box?","Blue","Green","J","affirmation","na","speech","yes","na","female","speech-gesture","1920","1200","firefox","32","Windows 10","32","male","left","Wed Oct 23 2024 17:01:44 GMT+0200 (Mitteleuropäische Sommerzeit)","2","43","1","1729697582876"
"1200","j","SpeechGestureMatch","../RequiredFiles/videos/NeinDaumenrunter_m.mp4","Ist der Ball in der grünen Box?","Green","Blue","J","negation","match","speech","no","ThumbDown","male","speech-gesture","1920","1200","firefox","32","Windows 10","32","male","left","Wed Oct 23 2024 17:01:51 GMT+0200 (Mitteleuropäische Sommerzeit)","2","44","0","1729697582876"
"704","j","SpeechGestureMatch","../RequiredFiles/videos/JaDaumenhoch_m.mp4","Ist der Ball in der blauen Box?","Green","Blue","J","affirmation","match","speech","yes","ThumbUp","male","speech-gesture","1920","1200","firefox","32","Windows 10","32","male","left","Wed Oct 23 2024 17:01:57 GMT+0200 (Mitteleuropäische Sommerzeit)","2","45","0","1729697582876"
"989","f","SpeechGestureMatch","../RequiredFiles/videos/JaDaumenrunter_m_no_gesture.mp4","Ist der Ball in der blauen Box?","Blue","Green","F","affirmation","na","speech","yes","na","male","speech-gesture","1920","1200","firefox","32","Windows 10","32","male","left","Wed Oct 23 2024 17:02:04 GMT+0200 (Mitteleuropäische Sommerzeit)","2","46","0","1729697582876"
"1012","f","SpeechGestureMatch","../RequiredFiles/videos/JaDaumenrunter_m.mp4","Ist der Ball in der blauen Box?","Green","Blue","J","affirmation","mismatch","speech","yes","ThumbDown","male","speech-gesture","1920","1200","firefox","32","Windows 10","32","male","left","Wed Oct 23 2024 17:02:11 GMT+0200 (Mitteleuropäische Sommerzeit)","2","47","1","1729697582876"
"803","f","SpeechGestureMatch","../RequiredFiles/videos/JaDaumenhoch_m.mp4","Ist der Ball in der grünen Box?","Green","Blue","F","affirmation","match","speech","yes","ThumbUp","male","speech-gesture","1920","1200","firefox","32","Windows 10","32","male","left","Wed Oct 23 2024 17:02:17 GMT+0200 (Mitteleuropäische Sommerzeit)","2","48","0","1729697582876"
"897","f","SpeechGestureMatch","../RequiredFiles/videos/JaDaumenrunter_m_no_gesture.mp4","Ist der Ball in der grünen Box?","Green","Blue","F","affirmation","na","speech","yes","na","male","speech-gesture","1920","1200","firefox","32","Windows 10","32","male","left","Wed Oct 23 2024 17:02:23 GMT+0200 (Mitteleuropäische Sommerzeit)","2","49","0","1729697582876"
"1098","j","SpeechGestureMatch","../RequiredFiles/videos/NeinDaumenhoch_f.mp4","Ist der Ball in der blauen Box?","Blue","Green","J","negation","mismatch","speech","no","ThumbUp","female","speech-gesture","1920","1200","firefox","32","Windows 10","32","male","left","Wed Oct 23 2024 17:02:30 GMT+0200 (Mitteleuropäische Sommerzeit)","2","50","0","1729697582876"
"1488","j","SpeechGestureMatch","../RequiredFiles/videos/NeinDaumenhoch_f_no_gesture.mp4","Ist der Ball in der blauen Box?","Green","Blue","F","negation","na","speech","no","na","female","speech-gesture","1920","1200","firefox","32","Windows 10","32","male","left","Wed Oct 23 2024 17:02:37 GMT+0200 (Mitteleuropäische Sommerzeit)","2","51","1","1729697582876"
"1234","j","SpeechGestureMatch","../RequiredFiles/videos/NeinDaumenrunter_m.mp4","Ist der Ball in der blauen Box?","Green","Blue","F","negation","match","speech","no","ThumbDown","male","speech-gesture","1920","1200","firefox","32","Windows 10","32","male","left","Wed Oct 23 2024 17:02:44 GMT+0200 (Mitteleuropäische Sommerzeit)","2","52","1","1729697582876"
"920","f","SpeechGestureMatch","../RequiredFiles/videos/JaDaumenrunter_f_no_gesture.mp4","Ist der Ball in der blauen Box?","Blue","Green","F","affirmation","na","speech","yes","na","female","speech-gesture","1920","1200","firefox","32","Windows 10","32","male","left","Wed Oct 23 2024 17:02:50 GMT+0200 (Mitteleuropäische Sommerzeit)","2","53","0","1729697582876"
"980","j","SpeechGestureMatch","../RequiredFiles/videos/NeinDaumenhoch_m.mp4","Ist der Ball in der blauen Box?","Green","Blue","F","negation","mismatch","speech","no","ThumbUp","male","speech-gesture","1920","1200","firefox","32","Windows 10","32","male","left","Wed Oct 23 2024 17:02:57 GMT+0200 (Mitteleuropäische Sommerzeit)","2","54","1","1729697582876"
"1009","f","SpeechGestureMatch","../RequiredFiles/videos/JaDaumenhoch_m.mp4","Ist der Ball in der grünen Box?","Green","Blue","F","affirmation","match","speech","yes","ThumbUp","male","speech-gesture","1920","1200","firefox","32","Windows 10","32","male","left","Wed Oct 23 2024 17:03:04 GMT+0200 (Mitteleuropäische Sommerzeit)","2","55","0","1729697582876"
"1000","f","SpeechGestureMatch","../RequiredFiles/videos/JaDaumenhoch_f_no_gesture.mp4","Ist der Ball in der grünen Box?","Blue","Green","J","affirmation","na","speech","yes","na","female","speech-gesture","1920","1200","firefox","32","Windows 10","32","male","left","Wed Oct 23 2024 17:03:10 GMT+0200 (Mitteleuropäische Sommerzeit)","2","56","1","1729697582876"
"1022","j","SpeechGestureMatch","../RequiredFiles/videos/NeinDaumenhoch_f.mp4","Ist der Ball in der blauen Box?","Green","Blue","F","negation","mismatch","speech","no","ThumbUp","female","speech-gesture","1920","1200","firefox","32","Windows 10","32","male","left","Wed Oct 23 2024 17:03:17 GMT+0200 (Mitteleuropäische Sommerzeit)","2","57","1","1729697582876"
"806","f","SpeechGestureMatch","../RequiredFiles/videos/JaDaumenhoch_m.mp4","Ist der Ball in der blauen Box?","Green","Blue","J","affirmation","match","speech","yes","ThumbUp","male","speech-gesture","1920","1200","firefox","32","Windows 10","32","male","left","Wed Oct 23 2024 17:03:23 GMT+0200 (Mitteleuropäische Sommerzeit)","2","58","1","1729697582876"
"858","j","SpeechGestureMatch","../RequiredFiles/videos/NeinDaumenrunter_m.mp4","Ist der Ball in der blauen Box?","Blue","Green","J","negation","match","speech","no","ThumbDown","male","speech-gesture","1920","1200","firefox","32","Windows 10","32","male","left","Wed Oct 23 2024 17:03:30 GMT+0200 (Mitteleuropäische Sommerzeit)","2","59","0","1729697582876"
"1031","f","SpeechGestureMatch","../RequiredFiles/videos/JaDaumenrunter_m_no_gesture.mp4","Ist der Ball in der blauen Box?","Green","Blue","J","affirmation","na","speech","yes","na","male","speech-gesture","1920","1200","firefox","32","Windows 10","32","male","left","Wed Oct 23 2024 17:03:36 GMT+0200 (Mitteleuropäische Sommerzeit)","2","60","1","1729697582876"
"998","f","SpeechGestureMatch","../RequiredFiles/videos/JaDaumenhoch_m_no_gesture.mp4","Ist der Ball in der blauen Box?","Green","Blue","J","affirmation","na","speech","yes","na","male","speech-gesture","1920","1200","firefox","32","Windows 10","32","male","left","Wed Oct 23 2024 17:03:43 GMT+0200 (Mitteleuropäische Sommerzeit)","2","61","1","1729697582876"
"997","j","SpeechGestureMatch","../RequiredFiles/videos/NeinDaumenrunter_f.mp4","Ist der Ball in der blauen Box?","Blue","Green","J","negation","match","speech","no","ThumbDown","female","speech-gesture","1920","1200","firefox","32","Windows 10","32","male","left","Wed Oct 23 2024 17:03:49 GMT+0200 (Mitteleuropäische Sommerzeit)","2","62","0","1729697582876"
"1022","j","SpeechGestureMatch","../RequiredFiles/videos/NeinDaumenrunter_m_no_gesture.mp4","Ist der Ball in der blauen Box?","Blue","Green","J","negation","na","speech","no","na","male","speech-gesture","1920","1200","firefox","32","Windows 10","32","male","left","Wed Oct 23 2024 17:03:56 GMT+0200 (Mitteleuropäische Sommerzeit)","2","63","0","1729697582876"
"965","f","SpeechGestureMatch","../RequiredFiles/videos/JaDaumenrunter_f_no_gesture.mp4","Ist der Ball in der blauen Box?","Green","Blue","J","affirmation","na","speech","yes","na","female","speech-gesture","1920","1200","firefox","32","Windows 10","32","male","left","Wed Oct 23 2024 17:04:02 GMT+0200 (Mitteleuropäische Sommerzeit)","2","64","1","1729697582876"
"1033","f","SpeechGestureMatch","../RequiredFiles/videos/JaDaumenrunter_f.mp4","Ist der Ball in der grünen Box?","Blue","Green","J","affirmation","mismatch","speech","yes","ThumbDown","female","speech-gesture","1920","1200","firefox","32","Windows 10","32","male","left","Wed Oct 23 2024 17:04:09 GMT+0200 (Mitteleuropäische Sommerzeit)","2","65","1","1729697582876"
"1377","f","SpeechGestureMatch","../RequiredFiles/videos/JaDaumenrunter_f.mp4","Ist der Ball in der grünen Box?","Green","Blue","F","affirmation","mismatch","speech","yes","ThumbDown","female","speech-gesture","1920","1200","firefox","32","Windows 10","32","male","left","Wed Oct 23 2024 17:04:16 GMT+0200 (Mitteleuropäische Sommerzeit)","2","66","0","1729697582876"
"996","j","SpeechGestureMatch","../RequiredFiles/videos/NeinDaumenhoch_f_no_gesture.mp4","Ist der Ball in der grünen Box?","Blue","Green","F","negation","na","speech","no","na","female","speech-gesture","1920","1200","firefox","32","Windows 10","32","male","left","Wed Oct 23 2024 17:04:23 GMT+0200 (Mitteleuropäische Sommerzeit)","2","67","1","1729697582876"
"1016","j","SpeechGestureMatch","../RequiredFiles/videos/NeinDaumenrunter_m_no_gesture.mp4","Ist der Ball in der blauen Box?","Green","Blue","F","negation","na","speech","no","na","male","speech-gesture","1920","1200","firefox","32","Windows 10","32","male","left","Wed Oct 23 2024 17:04:29 GMT+0200 (Mitteleuropäische Sommerzeit)","2","68","1","1729697582876"
"851","j","SpeechGestureMatch","../RequiredFiles/videos/NeinDaumenhoch_m_no_gesture.mp4","Ist der Ball in der grünen Box?","Green","Blue","J","negation","na","speech","no","na","male","speech-gesture","1920","1200","firefox","32","Windows 10","32","male","left","Wed Oct 23 2024 17:04:35 GMT+0200 (Mitteleuropäische Sommerzeit)","2","69","0","1729697582876"
"984","f","SpeechGestureMatch","../RequiredFiles/videos/JaDaumenhoch_m.mp4","Ist der Ball in der blauen Box?","Blue","Green","F","affirmation","match","speech","yes","ThumbUp","male","speech-gesture","1920","1200","firefox","32","Windows 10","32","male","left","Wed Oct 23 2024 17:04:42 GMT+0200 (Mitteleuropäische Sommerzeit)","2","70","0","1729697582876"
"1170","f","SpeechGestureMatch","../RequiredFiles/videos/JaDaumenhoch_f_no_gesture.mp4","Ist der Ball in der blauen Box?","Blue","Green","F","affirmation","na","speech","yes","na","female","speech-gesture","1920","1200","firefox","32","Windows 10","32","male","left","Wed Oct 23 2024 17:04:49 GMT+0200 (Mitteleuropäische Sommerzeit)","2","71","0","1729697582876"
"1123","j","SpeechGestureMatch","../RequiredFiles/videos/NeinDaumenhoch_f.mp4","Ist der Ball in der grünen Box?","Blue","Green","F","negation","mismatch","speech","no","ThumbUp","female","speech-gesture","1920","1200","firefox","32","Windows 10","32","male","left","Wed Oct 23 2024 17:04:55 GMT+0200 (Mitteleuropäische Sommerzeit)","2","72","1","1729697582876"
"1086","f","SpeechGestureMatch","../RequiredFiles/videos/JaDaumenrunter_f.mp4","Ist der Ball in der grünen Box?","Green","Blue","F","affirmation","mismatch","speech","yes","ThumbDown","female","speech-gesture","1920","1200","firefox","32","Windows 10","32","male","left","Wed Oct 23 2024 17:05:02 GMT+0200 (Mitteleuropäische Sommerzeit)","2","73","0","1729697582876"
"1040","j","SpeechGestureMatch","../RequiredFiles/videos/NeinDaumenhoch_m_no_gesture.mp4","Ist der Ball in der blauen Box?","Green","Blue","F","negation","na","speech","no","na","male","speech-gesture","1920","1200","firefox","32","Windows 10","32","male","left","Wed Oct 23 2024 17:05:09 GMT+0200 (Mitteleuropäische Sommerzeit)","2","74","1","1729697582876"
"953","j","SpeechGestureMatch","../RequiredFiles/videos/NeinDaumenhoch_m.mp4","Ist der Ball in der grünen Box?","Green","Blue","J","negation","mismatch","speech","no","ThumbUp","male","speech-gesture","1920","1200","firefox","32","Windows 10","32","male","left","Wed Oct 23 2024 17:05:15 GMT+0200 (Mitteleuropäische Sommerzeit)","2","75","0","1729697582876"
"949","j","SpeechGestureMatch","../RequiredFiles/videos/NeinDaumenrunter_f.mp4","Ist der Ball in der grünen Box?","Green","Blue","J","negation","match","speech","no","ThumbDown","female","speech-gesture","1920","1200","firefox","32","Windows 10","32","male","left","Wed Oct 23 2024 17:05:22 GMT+0200 (Mitteleuropäische Sommerzeit)","2","76","0","1729697582876"
"1204","f","SpeechGestureMatch","../RequiredFiles/videos/JaDaumenrunter_m_no_gesture.mp4","Ist der Ball in der grünen Box?","Blue","Green","J","affirmation","na","speech","yes","na","male","speech-gesture","1920","1200","firefox","32","Windows 10","32","male","left","Wed Oct 23 2024 17:05:29 GMT+0200 (Mitteleuropäische Sommerzeit)","2","77","1","1729697582876"
"945","j","SpeechGestureMatch","../RequiredFiles/videos/NeinDaumenhoch_f.mp4","Ist der Ball in der blauen Box?","Blue","Green","J","negation","mismatch","speech","no","ThumbUp","female","speech-gesture","1920","1200","firefox","32","Windows 10","32","male","left","Wed Oct 23 2024 17:05:35 GMT+0200 (Mitteleuropäische Sommerzeit)","2","78","0","1729697582876"
"1134","f","SpeechGestureMatch","../RequiredFiles/videos/JaDaumenhoch_f.mp4","Ist der Ball in der blauen Box?","Green","Blue","J","affirmation","match","speech","yes","ThumbUp","female","speech-gesture","1920","1200","firefox","32","Windows 10","32","male","left","Wed Oct 23 2024 17:05:42 GMT+0200 (Mitteleuropäische Sommerzeit)","2","79","1","1729697582876"
"850","f","SpeechGestureMatch","../RequiredFiles/videos/NeinDaumenrunter_f_no_gesture.mp4","Ist der Ball in der blauen Box?","Blue","Green","J","negation","na","speech","no","na","female","speech-gesture","1920","1200","firefox","32","Windows 10","32","male","left","Wed Oct 23 2024 17:05:48 GMT+0200 (Mitteleuropäische Sommerzeit)","2","80","1","1729697582876"
"1022","j","SpeechGestureMatch","../RequiredFiles/videos/NeinDaumenhoch_f.mp4","Ist der Ball in der grünen Box?","Green","Blue","J","negation","mismatch","speech","no","ThumbUp","female","speech-gesture","1920","1200","firefox","32","Windows 10","32","male","left","Wed Oct 23 2024 17:05:55 GMT+0200 (Mitteleuropäische Sommerzeit)","2","81","0","1729697582876"
"934","j","SpeechGestureMatch","../RequiredFiles/videos/NeinDaumenhoch_m.mp4","Ist der Ball in der blauen Box?","Blue","Green","J","negation","mismatch","speech","no","ThumbUp","male","speech-gesture","1920","1200","firefox","32","Windows 10","32","male","left","Wed Oct 23 2024 17:06:01 GMT+0200 (Mitteleuropäische Sommerzeit)","2","82","0","1729697582876"
"1307","j","SpeechGestureMatch","../RequiredFiles/videos/NeinDaumenhoch_f_no_gesture.mp4","Ist der Ball in der blauen Box?","Blue","Green","J","negation","na","speech","no","na","female","speech-gesture","1920","1200","firefox","32","Windows 10","32","male","left","Wed Oct 23 2024 17:06:08 GMT+0200 (Mitteleuropäische Sommerzeit)","2","83","0","1729697582876"
"1092","j","SpeechGestureMatch","../RequiredFiles/videos/NeinDaumenhoch_f.mp4","Ist der Ball in der grünen Box?","Blue","Green","F","negation","mismatch","speech","no","ThumbUp","female","speech-gesture","1920","1200","firefox","32","Windows 10","32","male","left","Wed Oct 23 2024 17:06:15 GMT+0200 (Mitteleuropäische Sommerzeit)","2","84","1","1729697582876"
"1358","f","SpeechGestureMatch","../RequiredFiles/videos/JaDaumenrunter_f.mp4","Ist der Ball in der blauen Box?","Blue","Green","F","affirmation","mismatch","speech","yes","ThumbDown","female","speech-gesture","1920","1200","firefox","32","Windows 10","32","male","left","Wed Oct 23 2024 17:06:22 GMT+0200 (Mitteleuropäische Sommerzeit)","2","85","0","1729697582876"
"981","j","SpeechGestureMatch","../RequiredFiles/videos/NeinDaumenrunter_f.mp4","Ist der Ball in der grünen Box?","Blue","Green","F","negation","match","speech","no","ThumbDown","female","speech-gesture","1920","1200","firefox","32","Windows 10","32","male","left","Wed Oct 23 2024 17:06:29 GMT+0200 (Mitteleuropäische Sommerzeit)","2","86","1","1729697582876"
"1049","j","SpeechGestureMatch","../RequiredFiles/videos/NeinDaumenrunter_f.mp4","Ist der Ball in der grünen Box?","Blue","Green","F","negation","match","speech","no","ThumbDown","female","speech-gesture","1920","1200","firefox","32","Windows 10","32","male","left","Wed Oct 23 2024 17:06:35 GMT+0200 (Mitteleuropäische Sommerzeit)","2","87","1","1729697582876"
"1214","f","SpeechGestureMatch","../RequiredFiles/videos/JaDaumenhoch_m.mp4","Ist der Ball in der grünen Box?","Blue","Green","J","affirmation","match","speech","yes","ThumbUp","male","speech-gesture","1920","1200","firefox","32","Windows 10","32","male","left","Wed Oct 23 2024 17:06:42 GMT+0200 (Mitteleuropäische Sommerzeit)","2","88","1","1729697582876"
"1152","f","SpeechGestureMatch","../RequiredFiles/videos/JaDaumenrunter_m.mp4","Ist der Ball in der grünen Box?","Blue","Green","J","affirmation","mismatch","speech","yes","ThumbDown","male","speech-gesture","1920","1200","firefox","32","Windows 10","32","male","left","Wed Oct 23 2024 17:06:49 GMT+0200 (Mitteleuropäische Sommerzeit)","2","89","1","1729697582876"
"1884","j","SpeechGestureMatch","../RequiredFiles/videos/NeinDaumenhoch_f.mp4","Ist der Ball in der blauen Box?","Green","Blue","F","negation","mismatch","speech","no","ThumbUp","female","speech-gesture","1920","1200","firefox","32","Windows 10","32","male","left","Wed Oct 23 2024 17:06:56 GMT+0200 (Mitteleuropäische Sommerzeit)","2","90","1","1729697582876"
"1453","f","SpeechGestureMatch","../RequiredFiles/videos/JaDaumenrunter_m.mp4","Ist der Ball in der blauen Box?","Green","Blue","J","affirmation","mismatch","speech","yes","ThumbDown","male","speech-gesture","1920","1200","firefox","32","Windows 10","32","male","left","Wed Oct 23 2024 17:07:03 GMT+0200 (Mitteleuropäische Sommerzeit)","2","91","1","1729697582876"
"981","f","SpeechGestureMatch","../RequiredFiles/videos/JaDaumenhoch_m_no_gesture.mp4","Ist der Ball in der grünen Box?","Blue","Green","J","affirmation","na","speech","yes","na","male","speech-gesture","1920","1200","firefox","32","Windows 10","32","male","left","Wed Oct 23 2024 17:07:10 GMT+0200 (Mitteleuropäische Sommerzeit)","2","92","1","1729697582876"
"897","f","SpeechGestureMatch","../RequiredFiles/videos/JaDaumenrunter_m.mp4","Ist der Ball in der grünen Box?","Green","Blue","F","affirmation","mismatch","speech","yes","ThumbDown","male","speech-gesture","1920","1200","firefox","32","Windows 10","32","male","left","Wed Oct 23 2024 17:07:16 GMT+0200 (Mitteleuropäische Sommerzeit)","2","93","0","1729697582876"
"991","f","SpeechGestureMatch","../RequiredFiles/videos/JaDaumenhoch_f.mp4","Ist der Ball in der grünen Box?","Blue","Green","J","affirmation","match","speech","yes","ThumbUp","female","speech-gesture","1920","1200","firefox","32","Windows 10","32","male","left","Wed Oct 23 2024 17:07:23 GMT+0200 (Mitteleuropäische Sommerzeit)","2","94","1","1729697582876"
"1065","f","SpeechGestureMatch","../RequiredFiles/videos/JaDaumenhoch_f.mp4","Ist der Ball in der blauen Box?","Green","Blue","J","affirmation","match","speech","yes","ThumbUp","female","speech-gesture","1920","1200","firefox","32","Windows 10","32","male","left","Wed Oct 23 2024 17:07:29 GMT+0200 (Mitteleuropäische Sommerzeit)","2","95","1","1729697582876"
"813","f","SpeechGestureMatch","../RequiredFiles/videos/JaDaumenrunter_m.mp4","Ist der Ball in der grünen Box?","Blue","Green","J","affirmation","mismatch","speech","yes","ThumbDown","male","speech-gesture","1920","1200","firefox","32","Windows 10","32","male","left","Wed Oct 23 2024 17:07:36 GMT+0200 (Mitteleuropäische Sommerzeit)","2","96","1","1729697582876"
"1039","f","SpeechGestureMatch","../RequiredFiles/videos/NeinDaumenhoch_f.mp4","Ist der Ball in der grünen Box?","Green","Blue","F","affirmation","mismatch","gesture","no","ThumbUp","female","speech-gesture","1920","1200","firefox","32","Windows 10","32","male","left","Wed Oct 23 2024 17:09:47 GMT+0200 (Mitteleuropäische Sommerzeit)","3","1","0","1729697582876"
"951","j","SpeechGestureMatch","../RequiredFiles/videos/JaDaumenrunter_f_no_sound.mp4","Ist der Ball in der blauen Box?","Blue","Green","J","negation","na","gesture","na","ThumbDown","female","speech-gesture","1920","1200","firefox","32","Windows 10","32","male","left","Wed Oct 23 2024 17:09:54 GMT+0200 (Mitteleuropäische Sommerzeit)","3","2","0","1729697582876"
"1302","f","SpeechGestureMatch","../RequiredFiles/videos/NeinDaumenhoch_f.mp4","Ist der Ball in der blauen Box?","Blue","Green","F","affirmation","mismatch","gesture","no","ThumbUp","female","speech-gesture","1920","1200","firefox","32","Windows 10","32","male","left","Wed Oct 23 2024 17:10:00 GMT+0200 (Mitteleuropäische Sommerzeit)","3","3","0","1729697582876"
"892","j","SpeechGestureMatch","../RequiredFiles/videos/NeinDaumenrunter_f.mp4","Ist der Ball in der blauen Box?","Green","Blue","F","negation","match","gesture","no","ThumbDown","female","speech-gesture","1920","1200","firefox","32","Windows 10","32","male","left","Wed Oct 23 2024 17:10:07 GMT+0200 (Mitteleuropäische Sommerzeit)","3","4","1","1729697582876"
"1177","j","SpeechGestureMatch","../RequiredFiles/videos/JaDaumenrunter_f.mp4","Ist der Ball in der blauen Box?","Green","Blue","F","negation","mismatch","gesture","yes","ThumbDown","female","speech-gesture","1920","1200","firefox","32","Windows 10","32","male","left","Wed Oct 23 2024 17:10:14 GMT+0200 (Mitteleuropäische Sommerzeit)","3","5","1","1729697582876"
"891","f","SpeechGestureMatch","../RequiredFiles/videos/NeinDaumenhoch_f.mp4","Ist der Ball in der blauen Box?","Blue","Green","F","affirmation","mismatch","gesture","no","ThumbUp","female","speech-gesture","1920","1200","firefox","32","Windows 10","32","male","left","Wed Oct 23 2024 17:10:20 GMT+0200 (Mitteleuropäische Sommerzeit)","3","6","0","1729697582876"
"990","f","SpeechGestureMatch","../RequiredFiles/videos/JaDaumenhoch_f_no_sound.mp4","Ist der Ball in der grünen Box?","Green","Blue","F","affirmation","na","gesture","na","ThumbUp","female","speech-gesture","1920","1200","firefox","32","Windows 10","32","male","left","Wed Oct 23 2024 17:10:26 GMT+0200 (Mitteleuropäische Sommerzeit)","3","7","0","1729697582876"
"1001","j","SpeechGestureMatch","../RequiredFiles/videos/JaDaumenrunter_f.mp4","Ist der Ball in der blauen Box?","Green","Blue","F","negation","mismatch","gesture","yes","ThumbDown","female","speech-gesture","1920","1200","firefox","32","Windows 10","32","male","left","Wed Oct 23 2024 17:10:33 GMT+0200 (Mitteleuropäische Sommerzeit)","3","8","1","1729697582876"
"881","f","SpeechGestureMatch","../RequiredFiles/videos/JaDaumenhoch_m.mp4","Ist der Ball in der grünen Box?","Blue","Green","J","affirmation","match","gesture","yes","ThumbUp","male","speech-gesture","1920","1200","firefox","32","Windows 10","32","male","left","Wed Oct 23 2024 17:10:39 GMT+0200 (Mitteleuropäische Sommerzeit)","3","9","1","1729697582876"
"1158","f","SpeechGestureMatch","../RequiredFiles/videos/NeinDaumenhoch_f_no_sound.mp4","Ist der Ball in der grünen Box?","Blue","Green","J","affirmation","na","gesture","na","ThumbUp","female","speech-gesture","1920","1200","firefox","32","Windows 10","32","male","left","Wed Oct 23 2024 17:10:46 GMT+0200 (Mitteleuropäische Sommerzeit)","3","10","1","1729697582876"
"863","f","SpeechGestureMatch","../RequiredFiles/videos/NeinDaumenhoch_m.mp4","Ist der Ball in der grünen Box?","Blue","Green","J","affirmation","mismatch","gesture","no","ThumbUp","male","speech-gesture","1920","1200","firefox","32","Windows 10","32","male","left","Wed Oct 23 2024 17:10:53 GMT+0200 (Mitteleuropäische Sommerzeit)","3","11","1","1729697582876"
"920","f","SpeechGestureMatch","../RequiredFiles/videos/JaDaumenhoch_f.mp4","Ist der Ball in der blauen Box?","Blue","Green","F","affirmation","match","gesture","yes","ThumbUp","female","speech-gesture","1920","1200","firefox","32","Windows 10","32","male","left","Wed Oct 23 2024 17:10:59 GMT+0200 (Mitteleuropäische Sommerzeit)","3","12","0","1729697582876"
"1032","j","SpeechGestureMatch","../RequiredFiles/videos/NeinDaumenrunter_f.mp4","Ist der Ball in der grünen Box?","Blue","Green","F","negation","match","gesture","no","ThumbDown","female","speech-gesture","1920","1200","firefox","32","Windows 10","32","male","left","Wed Oct 23 2024 17:11:06 GMT+0200 (Mitteleuropäische Sommerzeit)","3","13","1","1729697582876"
"1082","j","SpeechGestureMatch","../RequiredFiles/videos/JaDaumenrunter_f.mp4","Ist der Ball in der grünen Box?","Blue","Green","F","negation","mismatch","gesture","yes","ThumbDown","female","speech-gesture","1920","1200","firefox","32","Windows 10","32","male","left","Wed Oct 23 2024 17:11:12 GMT+0200 (Mitteleuropäische Sommerzeit)","3","14","1","1729697582876"
"926","j","SpeechGestureMatch","../RequiredFiles/videos/JaDaumenrunter_f_no_sound.mp4","Ist der Ball in der grünen Box?","Green","Blue","J","negation","na","gesture","na","ThumbDown","female","speech-gesture","1920","1200","firefox","32","Windows 10","32","male","left","Wed Oct 23 2024 17:11:19 GMT+0200 (Mitteleuropäische Sommerzeit)","3","15","0","1729697582876"
"1035","j","SpeechGestureMatch","../RequiredFiles/videos/JaDaumenrunter_m.mp4","Ist der Ball in der grünen Box?","Blue","Green","F","negation","mismatch","gesture","yes","ThumbDown","male","speech-gesture","1920","1200","firefox","32","Windows 10","32","male","left","Wed Oct 23 2024 17:11:26 GMT+0200 (Mitteleuropäische Sommerzeit)","3","16","1","1729697582876"
"1134","f","SpeechGestureMatch","../RequiredFiles/videos/NeinDaumenhoch_f.mp4","Ist der Ball in der blauen Box?","Green","Blue","J","affirmation","mismatch","gesture","no","ThumbUp","female","speech-gesture","1920","1200","firefox","32","Windows 10","32","male","left","Wed Oct 23 2024 17:11:32 GMT+0200 (Mitteleuropäische Sommerzeit)","3","17","1","1729697582876"
"1555","j","SpeechGestureMatch","../RequiredFiles/videos/NeinDaumenrunter_f.mp4","Ist der Ball in der grünen Box?","Green","Blue","J","negation","match","gesture","no","ThumbDown","female","speech-gesture","1920","1200","firefox","32","Windows 10","32","male","left","Wed Oct 23 2024 17:11:39 GMT+0200 (Mitteleuropäische Sommerzeit)","3","18","0","1729697582876"
"1156","j","SpeechGestureMatch","../RequiredFiles/videos/JaDaumenrunter_m.mp4","Ist der Ball in der blauen Box?","Green","Blue","F","negation","mismatch","gesture","yes","ThumbDown","male","speech-gesture","1920","1200","firefox","32","Windows 10","32","male","left","Wed Oct 23 2024 17:11:46 GMT+0200 (Mitteleuropäische Sommerzeit)","3","19","1","1729697582876"
"1126","f","SpeechGestureMatch","../RequiredFiles/videos/NeinDaumenhoch_f_no_sound.mp4","Ist der Ball in der grünen Box?","Green","Blue","F","affirmation","na","gesture","na","ThumbUp","female","speech-gesture","1920","1200","firefox","32","Windows 10","32","male","left","Wed Oct 23 2024 17:11:53 GMT+0200 (Mitteleuropäische Sommerzeit)","3","20","0","1729697582876"
"1037","j","SpeechGestureMatch","../RequiredFiles/videos/NeinDaumenrunter_f.mp4","Ist der Ball in der grünen Box?","Green","Blue","J","negation","match","gesture","no","ThumbDown","female","speech-gesture","1920","1200","firefox","32","Windows 10","32","male","left","Wed Oct 23 2024 17:11:59 GMT+0200 (Mitteleuropäische Sommerzeit)","3","21","0","1729697582876"
"973","j","SpeechGestureMatch","../RequiredFiles/videos/NeinDaumenrunter_m.mp4","Ist der Ball in der blauen Box?","Green","Blue","F","negation","match","gesture","no","ThumbDown","male","speech-gesture","1920","1200","firefox","32","Windows 10","32","male","left","Wed Oct 23 2024 17:12:06 GMT+0200 (Mitteleuropäische Sommerzeit)","3","22","1","1729697582876"
"1012","j","SpeechGestureMatch","../RequiredFiles/videos/JaDaumenrunter_m.mp4","Ist der Ball in der grünen Box?","Green","Blue","J","negation","mismatch","gesture","yes","ThumbDown","male","speech-gesture","1920","1200","firefox","32","Windows 10","32","male","left","Wed Oct 23 2024 17:12:12 GMT+0200 (Mitteleuropäische Sommerzeit)","3","23","0","1729697582876"
"998","f","SpeechGestureMatch","../RequiredFiles/videos/JaDaumenhoch_m.mp4","Ist der Ball in der grünen Box?","Green","Blue","F","affirmation","match","gesture","yes","ThumbUp","male","speech-gesture","1920","1200","firefox","32","Windows 10","32","male","left","Wed Oct 23 2024 17:12:19 GMT+0200 (Mitteleuropäische Sommerzeit)","3","24","0","1729697582876"
"853","f","SpeechGestureMatch","../RequiredFiles/videos/JaDaumenhoch_m_no_sound.mp4","Ist der Ball in der blauen Box?","Blue","Green","F","affirmation","na","gesture","na","ThumbUp","male","speech-gesture","1920","1200","firefox","32","Windows 10","32","male","left","Wed Oct 23 2024 17:12:25 GMT+0200 (Mitteleuropäische Sommerzeit)","3","25","0","1729697582876"
"921","f","SpeechGestureMatch","../RequiredFiles/videos/JaDaumenhoch_f.mp4","Ist der Ball in der grünen Box?","Green","Blue","F","affirmation","match","gesture","yes","ThumbUp","female","speech-gesture","1920","1200","firefox","32","Windows 10","32","male","left","Wed Oct 23 2024 17:12:32 GMT+0200 (Mitteleuropäische Sommerzeit)","3","26","0","1729697582876"
"1016","j","SpeechGestureMatch","../RequiredFiles/videos/JaDaumenrunter_f_no_sound.mp4","Ist der Ball in der grünen Box?","Blue","Green","F","negation","na","gesture","na","ThumbDown","female","speech-gesture","1920","1200","firefox","32","Windows 10","32","male","left","Wed Oct 23 2024 17:12:39 GMT+0200 (Mitteleuropäische Sommerzeit)","3","27","1","1729697582876"
"996","j","SpeechGestureMatch","../RequiredFiles/videos/NeinDaumenrunter_m.mp4","Ist der Ball in der grünen Box?","Green","Blue","J","negation","match","gesture","no","ThumbDown","male","speech-gesture","1920","1200","firefox","32","Windows 10","32","male","left","Wed Oct 23 2024 17:12:45 GMT+0200 (Mitteleuropäische Sommerzeit)","3","28","0","1729697582876"
"965","j","SpeechGestureMatch","../RequiredFiles/videos/JaDaumenrunter_m.mp4","Ist der Ball in der blauen Box?","Blue","Green","J","negation","mismatch","gesture","yes","ThumbDown","male","speech-gesture","1920","1200","firefox","32","Windows 10","32","male","left","Wed Oct 23 2024 17:12:52 GMT+0200 (Mitteleuropäische Sommerzeit)","3","29","0","1729697582876"
"1373","j","SpeechGestureMatch","../RequiredFiles/videos/JaDaumenrunter_m_no_sound.mp4","Ist der Ball in der blauen Box?","Blue","Green","J","negation","na","gesture","na","ThumbDown","male","speech-gesture","1920","1200","firefox","32","Windows 10","32","male","left","Wed Oct 23 2024 17:12:59 GMT+0200 (Mitteleuropäische Sommerzeit)","3","30","0","1729697582876"
"1143","f","SpeechGestureMatch","../RequiredFiles/videos/NeinDaumenhoch_m.mp4","Ist der Ball in der grünen Box?","Green","Blue","F","affirmation","mismatch","gesture","no","ThumbUp","male","speech-gesture","1920","1200","firefox","32","Windows 10","32","male","left","Wed Oct 23 2024 17:13:05 GMT+0200 (Mitteleuropäische Sommerzeit)","3","31","0","1729697582876"
"947","j","SpeechGestureMatch","../RequiredFiles/videos/JaDaumenrunter_m_no_sound.mp4","Ist der Ball in der grünen Box?","Blue","Green","F","negation","na","gesture","na","ThumbDown","male","speech-gesture","1920","1200","firefox","32","Windows 10","32","male","left","Wed Oct 23 2024 17:13:12 GMT+0200 (Mitteleuropäische Sommerzeit)","3","32","1","1729697582876"
"979","j","SpeechGestureMatch","../RequiredFiles/videos/NeinDaumenrunter_f_no_sound.mp4","Ist der Ball in der blauen Box?","Green","Blue","F","negation","na","gesture","na","ThumbDown","female","speech-gesture","1920","1200","firefox","32","Windows 10","32","male","left","Wed Oct 23 2024 17:13:18 GMT+0200 (Mitteleuropäische Sommerzeit)","3","33","1","1729697582876"
"991","j","SpeechGestureMatch","../RequiredFiles/videos/NeinDaumenrunter_m_no_sound.mp4","Ist der Ball in der blauen Box?","Blue","Green","J","negation","na","gesture","na","ThumbDown","male","speech-gesture","1920","1200","firefox","32","Windows 10","32","male","left","Wed Oct 23 2024 17:13:25 GMT+0200 (Mitteleuropäische Sommerzeit)","3","34","0","1729697582876"
"1128","j","SpeechGestureMatch","../RequiredFiles/videos/JaDaumenrunter_f.mp4","Ist der Ball in der blauen Box?","Blue","Green","J","negation","mismatch","gesture","yes","ThumbDown","female","speech-gesture","1920","1200","firefox","32","Windows 10","32","male","left","Wed Oct 23 2024 17:13:32 GMT+0200 (Mitteleuropäische Sommerzeit)","3","35","0","1729697582876"
"930","f","SpeechGestureMatch","../RequiredFiles/videos/NeinDaumenhoch_m_no_sound.mp4","Ist der Ball in der grünen Box?","Blue","Green","J","affirmation","na","gesture","na","ThumbUp","male","speech-gesture","1920","1200","firefox","32","Windows 10","32","male","left","Wed Oct 23 2024 17:13:38 GMT+0200 (Mitteleuropäische Sommerzeit)","3","36","1","1729697582876"
"1133","j","SpeechGestureMatch","../RequiredFiles/videos/NeinDaumenrunter_f.mp4","Ist der Ball in der blauen Box?","Blue","Green","J","negation","match","gesture","no","ThumbDown","female","speech-gesture","1920","1200","firefox","32","Windows 10","32","male","left","Wed Oct 23 2024 17:13:45 GMT+0200 (Mitteleuropäische Sommerzeit)","3","37","0","1729697582876"
"1017","f","SpeechGestureMatch","../RequiredFiles/videos/NeinDaumenhoch_f.mp4","Ist der Ball in der blauen Box?","Green","Blue","J","affirmation","mismatch","gesture","no","ThumbUp","female","speech-gesture","1920","1200","firefox","32","Windows 10","32","male","left","Wed Oct 23 2024 17:13:51 GMT+0200 (Mitteleuropäische Sommerzeit)","3","38","1","1729697582876"
"990","f","SpeechGestureMatch","../RequiredFiles/videos/JaDaumenhoch_m.mp4","Ist der Ball in der grünen Box?","Green","Blue","F","affirmation","match","gesture","yes","ThumbUp","male","speech-gesture","1920","1200","firefox","32","Windows 10","32","male","left","Wed Oct 23 2024 17:13:58 GMT+0200 (Mitteleuropäische Sommerzeit)","3","39","0","1729697582876"
"1091","f","SpeechGestureMatch","../RequiredFiles/videos/NeinDaumenrunter_f.mp4","Ist der Ball in der blauen Box?","Blue","Green","J","negation","match","gesture","no","ThumbDown","female","speech-gesture","1920","1200","firefox","32","Windows 10","32","male","left","Wed Oct 23 2024 17:14:05 GMT+0200 (Mitteleuropäische Sommerzeit)","3","40","1","1729697582876"
"1025","j","SpeechGestureMatch","../RequiredFiles/videos/JaDaumenrunter_m.mp4","Ist der Ball in der grünen Box?","Blue","Green","F","negation","mismatch","gesture","yes","ThumbDown","male","speech-gesture","1920","1200","firefox","32","Windows 10","32","male","left","Wed Oct 23 2024 17:14:11 GMT+0200 (Mitteleuropäische Sommerzeit)","3","41","1","1729697582876"
"835","j","SpeechGestureMatch","../RequiredFiles/videos/JaDaumenrunter_f_no_sound.mp4","Ist der Ball in der blauen Box?","Green","Blue","F","negation","na","gesture","na","ThumbDown","female","speech-gesture","1920","1200","firefox","32","Windows 10","32","male","left","Wed Oct 23 2024 17:14:18 GMT+0200 (Mitteleuropäische Sommerzeit)","3","42","1","1729697582876"
"945","j","SpeechGestureMatch","../RequiredFiles/videos/NeinDaumenrunter_f_no_sound.mp4","Ist der Ball in der grünen Box?","Blue","Green","F","negation","na","gesture","na","ThumbDown","female","speech-gesture","1920","1200","firefox","32","Windows 10","32","male","left","Wed Oct 23 2024 17:14:24 GMT+0200 (Mitteleuropäische Sommerzeit)","3","43","1","1729697582876"
"958","f","SpeechGestureMatch","../RequiredFiles/videos/NeinDaumenhoch_f.mp4","Ist der Ball in der grünen Box?","Blue","Green","J","affirmation","mismatch","gesture","no","ThumbUp","female","speech-gesture","1920","1200","firefox","32","Windows 10","32","male","left","Wed Oct 23 2024 17:14:31 GMT+0200 (Mitteleuropäische Sommerzeit)","3","44","1","1729697582876"
"980","j","SpeechGestureMatch","../RequiredFiles/videos/JaDaumenrunter_f.mp4","Ist der Ball in der grünen Box?","Green","Blue","J","negation","mismatch","gesture","yes","ThumbDown","female","speech-gesture","1920","1200","firefox","32","Windows 10","32","male","left","Wed Oct 23 2024 17:14:37 GMT+0200 (Mitteleuropäische Sommerzeit)","3","45","0","1729697582876"
"972","j","SpeechGestureMatch","../RequiredFiles/videos/NeinDaumenrunter_m_no_sound.mp4","Ist der Ball in der grünen Box?","Blue","Green","F","negation","na","gesture","na","ThumbDown","male","speech-gesture","1920","1200","firefox","32","Windows 10","32","male","left","Wed Oct 23 2024 17:14:44 GMT+0200 (Mitteleuropäische Sommerzeit)","3","46","1","1729697582876"
"890","f","SpeechGestureMatch","../RequiredFiles/videos/JaDaumenhoch_f.mp4","Ist der Ball in der grünen Box?","Blue","Green","J","affirmation","match","gesture","yes","ThumbUp","female","speech-gesture","1920","1200","firefox","32","Windows 10","32","male","left","Wed Oct 23 2024 17:14:51 GMT+0200 (Mitteleuropäische Sommerzeit)","3","47","1","1729697582876"
"900","f","SpeechGestureMatch","../RequiredFiles/videos/NeinDaumenhoch_m.mp4","Ist der Ball in der blauen Box?","Blue","Green","F","affirmation","mismatch","gesture","no","ThumbUp","male","speech-gesture","1920","1200","firefox","32","Windows 10","32","male","left","Wed Oct 23 2024 17:14:57 GMT+0200 (Mitteleuropäische Sommerzeit)","3","48","0","1729697582876"
"983","j","SpeechGestureMatch","../RequiredFiles/videos/NeinDaumenrunter_m.mp4","Ist der Ball in der grünen Box?","Blue","Green","F","negation","match","gesture","no","ThumbDown","male","speech-gesture","1920","1200","firefox","32","Windows 10","32","male","left","Wed Oct 23 2024 17:15:04 GMT+0200 (Mitteleuropäische Sommerzeit)","3","49","1","1729697582876"
"868","j","SpeechGestureMatch","../RequiredFiles/videos/NeinDaumenrunter_f_no_sound.mp4","Ist der Ball in der blauen Box?","Blue","Green","J","negation","na","gesture","na","ThumbDown","female","speech-gesture","1920","1200","firefox","32","Windows 10","32","male","left","Wed Oct 23 2024 17:15:10 GMT+0200 (Mitteleuropäische Sommerzeit)","3","50","0","1729697582876"
"1082","f","SpeechGestureMatch","../RequiredFiles/videos/NeinDaumenhoch_f.mp4","Ist der Ball in der grünen Box?","Blue","Green","J","affirmation","mismatch","gesture","no","ThumbUp","female","speech-gesture","1920","1200","firefox","32","Windows 10","32","male","left","Wed Oct 23 2024 17:15:17 GMT+0200 (Mitteleuropäische Sommerzeit)","3","51","1","1729697582876"
"956","j","SpeechGestureMatch","../RequiredFiles/videos/NeinDaumenrunter_m.mp4","Ist der Ball in der blauen Box?","Blue","Green","J","negation","match","gesture","no","ThumbDown","male","speech-gesture","1920","1200","firefox","32","Windows 10","32","male","left","Wed Oct 23 2024 17:15:23 GMT+0200 (Mitteleuropäische Sommerzeit)","3","52","0","1729697582876"
"932","j","SpeechGestureMatch","../RequiredFiles/videos/JaDaumenhoch_m.mp4","Ist der Ball in der blauen Box?","Green","Blue","J","affirmation","match","gesture","yes","ThumbUp","male","speech-gesture","1920","1200","firefox","32","Windows 10","32","male","left","Wed Oct 23 2024 17:15:30 GMT+0200 (Mitteleuropäische Sommerzeit)","3","53","0","1729697582876"
"1108","j","SpeechGestureMatch","../RequiredFiles/videos/JaDaumenrunter_m_no_sound.mp4","Ist der Ball in der blauen Box?","Green","Blue","F","negation","na","gesture","na","ThumbDown","male","speech-gesture","1920","1200","firefox","32","Windows 10","32","male","left","Wed Oct 23 2024 17:15:37 GMT+0200 (Mitteleuropäische Sommerzeit)","3","54","1","1729697582876"
"883","f","SpeechGestureMatch","../RequiredFiles/videos/NeinDaumenhoch_m.mp4","Ist der Ball in der blauen Box?","Green","Blue","J","affirmation","mismatch","gesture","no","ThumbUp","male","speech-gesture","1920","1200","firefox","32","Windows 10","32","male","left","Wed Oct 23 2024 17:15:43 GMT+0200 (Mitteleuropäische Sommerzeit)","3","55","1","1729697582876"
"967","f","SpeechGestureMatch","../RequiredFiles/videos/NeinDaumenhoch_m_no_sound.mp4","Ist der Ball in der blauen Box?","Blue","Green","F","affirmation","na","gesture","na","ThumbUp","male","speech-gesture","1920","1200","firefox","32","Windows 10","32","male","left","Wed Oct 23 2024 17:15:50 GMT+0200 (Mitteleuropäische Sommerzeit)","3","56","0","1729697582876"
"859","j","SpeechGestureMatch","../RequiredFiles/videos/NeinDaumenrunter_m_no_sound.mp4","Ist der Ball in der blauen Box?","Green","Blue","F","negation","na","gesture","na","ThumbDown","male","speech-gesture","1920","1200","firefox","32","Windows 10","32","male","left","Wed Oct 23 2024 17:15:56 GMT+0200 (Mitteleuropäische Sommerzeit)","3","57","1","1729697582876"
"1085","f","SpeechGestureMatch","../RequiredFiles/videos/JaDaumenhoch_m_no_sound.mp4","Ist der Ball in der grünen Box?","Green","Blue","F","affirmation","na","gesture","na","ThumbUp","male","speech-gesture","1920","1200","firefox","32","Windows 10","32","male","left","Wed Oct 23 2024 17:16:03 GMT+0200 (Mitteleuropäische Sommerzeit)","3","58","0","1729697582876"
"1060","f","SpeechGestureMatch","../RequiredFiles/videos/JaDaumenhoch_m.mp4","Ist der Ball in der grünen Box?","Blue","Green","J","affirmation","match","gesture","yes","ThumbUp","male","speech-gesture","1920","1200","firefox","32","Windows 10","32","male","left","Wed Oct 23 2024 17:16:09 GMT+0200 (Mitteleuropäische Sommerzeit)","3","59","1","1729697582876"
"1236","f","SpeechGestureMatch","../RequiredFiles/videos/JaDaumenhoch_f_no_sound.mp4","Ist der Ball in der blauen Box?","Green","Blue","J","affirmation","na","gesture","na","ThumbUp","female","speech-gesture","1920","1200","firefox","32","Windows 10","32","male","left","Wed Oct 23 2024 17:16:16 GMT+0200 (Mitteleuropäische Sommerzeit)","3","60","1","1729697582876"
"1003","f","SpeechGestureMatch","../RequiredFiles/videos/JaDaumenhoch_f.mp4","Ist der Ball in der grünen Box?","Blue","Green","J","affirmation","match","gesture","yes","ThumbUp","female","speech-gesture","1920","1200","firefox","32","Windows 10","32","male","left","Wed Oct 23 2024 17:16:23 GMT+0200 (Mitteleuropäische Sommerzeit)","3","61","1","1729697582876"
"951","j","SpeechGestureMatch","../RequiredFiles/videos/NeinDaumenrunter_m.mp4","Ist der Ball in der blauen Box?","Green","Blue","F","negation","match","gesture","no","ThumbDown","male","speech-gesture","1920","1200","firefox","32","Windows 10","32","male","left","Wed Oct 23 2024 17:16:29 GMT+0200 (Mitteleuropäische Sommerzeit)","3","62","1","1729697582876"
"903","j","SpeechGestureMatch","../RequiredFiles/videos/NeinDaumenrunter_m.mp4","Ist der Ball in der grünen Box?","Blue","Green","F","negation","match","gesture","no","ThumbDown","male","speech-gesture","1920","1200","firefox","32","Windows 10","32","male","left","Wed Oct 23 2024 17:16:36 GMT+0200 (Mitteleuropäische Sommerzeit)","3","63","1","1729697582876"
"930","f","SpeechGestureMatch","../RequiredFiles/videos/JaDaumenhoch_f_no_sound.mp4","Ist der Ball in der grünen Box?","Blue","Green","J","affirmation","na","gesture","na","ThumbUp","female","speech-gesture","1920","1200","firefox","32","Windows 10","32","male","left","Wed Oct 23 2024 17:16:42 GMT+0200 (Mitteleuropäische Sommerzeit)","3","64","1","1729697582876"
"967","j","SpeechGestureMatch","../RequiredFiles/videos/JaDaumenrunter_m_no_sound.mp4","Ist der Ball in der grünen Box?","Green","Blue","J","negation","na","gesture","na","ThumbDown","male","speech-gesture","1920","1200","firefox","32","Windows 10","32","male","left","Wed Oct 23 2024 17:16:49 GMT+0200 (Mitteleuropäische Sommerzeit)","3","65","0","1729697582876"
"873","f","SpeechGestureMatch","../RequiredFiles/videos/JaDaumenhoch_f.mp4","Ist der Ball in der blauen Box?","Blue","Green","F","affirmation","match","gesture","yes","ThumbUp","female","speech-gesture","1920","1200","firefox","32","Windows 10","32","male","left","Wed Oct 23 2024 17:16:55 GMT+0200 (Mitteleuropäische Sommerzeit)","3","66","0","1729697582876"
"863","f","SpeechGestureMatch","../RequiredFiles/videos/JaDaumenhoch_m_no_sound.mp4","Ist der Ball in der grünen Box?","Blue","Green","J","affirmation","na","gesture","na","ThumbUp","male","speech-gesture","1920","1200","firefox","32","Windows 10","32","male","left","Wed Oct 23 2024 17:17:02 GMT+0200 (Mitteleuropäische Sommerzeit)","3","67","1","1729697582876"
"1113","j","SpeechGestureMatch","../RequiredFiles/videos/JaDaumenrunter_m.mp4","Ist der Ball in der grünen Box?","Green","Blue","J","negation","mismatch","gesture","yes","ThumbDown","male","speech-gesture","1920","1200","firefox","32","Windows 10","32","male","left","Wed Oct 23 2024 17:17:08 GMT+0200 (Mitteleuropäische Sommerzeit)","3","68","0","1729697582876"
"905","f","SpeechGestureMatch","../RequiredFiles/videos/JaDaumenhoch_f.mp4","Ist der Ball in der blauen Box?","Green","Blue","J","affirmation","match","gesture","yes","ThumbUp","female","speech-gesture","1920","1200","firefox","32","Windows 10","32","male","left","Wed Oct 23 2024 17:17:15 GMT+0200 (Mitteleuropäische Sommerzeit)","3","69","1","1729697582876"
"1479","j","SpeechGestureMatch","../RequiredFiles/videos/NeinDaumenrunter_m.mp4","Ist der Ball in der blauen Box?","Blue","Green","J","negation","match","gesture","no","ThumbDown","male","speech-gesture","1920","1200","firefox","32","Windows 10","32","male","left","Wed Oct 23 2024 17:17:22 GMT+0200 (Mitteleuropäische Sommerzeit)","3","70","0","1729697582876"
"896","f","SpeechGestureMatch","../RequiredFiles/videos/NeinDaumenhoch_m.mp4","Ist der Ball in der grünen Box?","Green","Blue","F","affirmation","mismatch","gesture","no","ThumbUp","male","speech-gesture","1920","1200","firefox","32","Windows 10","32","male","left","Wed Oct 23 2024 17:17:28 GMT+0200 (Mitteleuropäische Sommerzeit)","3","71","0","1729697582876"
"995","f","SpeechGestureMatch","../RequiredFiles/videos/JaDaumenhoch_m.mp4","Ist der Ball in der blauen Box?","Blue","Green","F","affirmation","match","gesture","yes","ThumbUp","male","speech-gesture","1920","1200","firefox","32","Windows 10","32","male","left","Wed Oct 23 2024 17:17:35 GMT+0200 (Mitteleuropäische Sommerzeit)","3","72","0","1729697582876"
"8221","f","SpeechGestureMatch","../RequiredFiles/videos/JaDaumenhoch_f.mp4","Ist der Ball in der blauen Box?","Green","Blue","J","affirmation","match","gesture","yes","ThumbUp","female","speech-gesture","1920","1200","firefox","32","Windows 10","32","male","left","Wed Oct 23 2024 17:17:49 GMT+0200 (Mitteleuropäische Sommerzeit)","3","73","1","1729697582876"
"1163","j","SpeechGestureMatch","../RequiredFiles/videos/NeinDaumenrunter_f_no_sound.mp4","Ist der Ball in der grünen Box?","Green","Blue","J","negation","na","gesture","na","ThumbDown","female","speech-gesture","1920","1200","firefox","32","Windows 10","32","male","left","Wed Oct 23 2024 17:17:56 GMT+0200 (Mitteleuropäische Sommerzeit)","3","74","0","1729697582876"
"1033","f","SpeechGestureMatch","../RequiredFiles/videos/NeinDaumenhoch_f_no_sound.mp4","Ist der Ball in der blauen Box?","Green","Blue","J","affirmation","na","gesture","na","ThumbUp","female","speech-gesture","1920","1200","firefox","32","Windows 10","32","male","left","Wed Oct 23 2024 17:18:02 GMT+0200 (Mitteleuropäische Sommerzeit)","3","75","1","1729697582876"
"936","f","SpeechGestureMatch","../RequiredFiles/videos/NeinDaumenhoch_m_no_sound.mp4","Ist der Ball in der blauen Box?","Green","Blue","J","affirmation","na","gesture","na","ThumbUp","male","speech-gesture","1920","1200","firefox","32","Windows 10","32","male","left","Wed Oct 23 2024 17:18:09 GMT+0200 (Mitteleuropäische Sommerzeit)","3","76","1","1729697582876"
"1058","f","SpeechGestureMatch","../RequiredFiles/videos/NeinDaumenhoch_f_no_sound.mp4","Ist der Ball in der blauen Box?","Blue","Green","F","affirmation","na","gesture","na","ThumbUp","female","speech-gesture","1920","1200","firefox","32","Windows 10","32","male","left","Wed Oct 23 2024 17:18:16 GMT+0200 (Mitteleuropäische Sommerzeit)","3","77","0","1729697582876"
"1226","f","SpeechGestureMatch","../RequiredFiles/videos/JaDaumenhoch_f.mp4","Ist der Ball in der grünen Box?","Green","Blue","F","affirmation","match","gesture","yes","ThumbUp","female","speech-gesture","1920","1200","firefox","32","Windows 10","32","male","left","Wed Oct 23 2024 17:18:22 GMT+0200 (Mitteleuropäische Sommerzeit)","3","78","0","1729697582876"
"967","j","SpeechGestureMatch","../RequiredFiles/videos/NeinDaumenrunter_f.mp4","Ist der Ball in der grünen Box?","Blue","Green","F","negation","match","gesture","no","ThumbDown","female","speech-gesture","1920","1200","firefox","32","Windows 10","32","male","left","Wed Oct 23 2024 17:18:29 GMT+0200 (Mitteleuropäische Sommerzeit)","3","79","1","1729697582876"
"939","j","SpeechGestureMatch","../RequiredFiles/videos/JaDaumenrunter_m.mp4","Ist der Ball in der blauen Box?","Green","Blue","F","negation","mismatch","gesture","yes","ThumbDown","male","speech-gesture","1920","1200","firefox","32","Windows 10","32","male","left","Wed Oct 23 2024 17:18:35 GMT+0200 (Mitteleuropäische Sommerzeit)","3","80","1","1729697582876"
"909","f","SpeechGestureMatch","../RequiredFiles/videos/NeinDaumenhoch_m.mp4","Ist der Ball in der grünen Box?","Blue","Green","J","affirmation","mismatch","gesture","no","ThumbUp","male","speech-gesture","1920","1200","firefox","32","Windows 10","32","male","left","Wed Oct 23 2024 17:18:42 GMT+0200 (Mitteleuropäische Sommerzeit)","3","81","1","1729697582876"
"971","f","SpeechGestureMatch","../RequiredFiles/videos/JaDaumenhoch_f_no_sound.mp4","Ist der Ball in der blauen Box?","Blue","Green","F","affirmation","na","gesture","na","ThumbUp","female","speech-gesture","1920","1200","firefox","32","Windows 10","32","male","left","Wed Oct 23 2024 17:18:48 GMT+0200 (Mitteleuropäische Sommerzeit)","3","82","0","1729697582876"
