"rt","response","stim","video","question","box_colour_left","box_colour_right","correct_key","polarity","matching","modality","verbal","gesture","speaker","order","width","height","browser","vsync_rate","os","age","gender","handedness","date","blockNum","trialNum","error","vpNum"
"1392","f","SpeechGestureMatch","../RequiredFiles/videos/NeinKopfJa_f.mp4","Ist der Ball in der grünen Box?","Blue","Green","F","negation","mismatch","speech","no","HeadNod","female","speech-gesture","1536","864","firefox","61.1","Windows 10","20","female","right","Sun Oct 13 2024 13:23:08 GMT+0200 (Mitteleuropäische Sommerzeit)","1","1","0","1728821354153"
"1061","j","SpeechGestureMatch","../RequiredFiles/videos/JaKopfNein_m.mp4","Ist der Ball in der blauen Box?","Blue","Green","F","affirmation","mismatch","speech","yes","HeadShake","male","speech-gesture","1536","864","firefox","61.1","Windows 10","20","female","right","Sun Oct 13 2024 13:23:14 GMT+0200 (Mitteleuropäische Sommerzeit)","1","2","1","1728821354153"
"1204","f","SpeechGestureMatch","../RequiredFiles/videos/NeinKopfJa_m.mp4","Ist der Ball in der blauen Box?","Green","Blue","F","negation","mismatch","speech","no","HeadNod","male","speech-gesture","1536","864","firefox","61.1","Windows 10","20","female","right","Sun Oct 13 2024 13:23:21 GMT+0200 (Mitteleuropäische Sommerzeit)","1","3","0","1728821354153"
"1025","j","SpeechGestureMatch","../RequiredFiles/videos/NeinKopfNein_m.mp4","Ist der Ball in der grünen Box?","Green","Blue","J","negation","match","speech","no","HeadShake","male","speech-gesture","1536","864","firefox","61.1","Windows 10","20","female","right","Sun Oct 13 2024 13:23:28 GMT+0200 (Mitteleuropäische Sommerzeit)","1","4","0","1728821354153"
"1405","f","SpeechGestureMatch","../RequiredFiles/videos/NeinKopfJa_m.mp4","Ist der Ball in der grünen Box?","Blue","Green","F","negation","mismatch","speech","no","HeadNod","male","speech-gesture","1536","864","firefox","61.1","Windows 10","20","female","right","Sun Oct 13 2024 13:23:34 GMT+0200 (Mitteleuropäische Sommerzeit)","1","5","0","1728821354153"
"1139","j","SpeechGestureMatch","../RequiredFiles/videos/JaKopfNein_f_no_gesture.mp4","Ist der Ball in der grünen Box?","Blue","Green","J","affirmation","na","speech","yes","na","female","speech-gesture","1536","864","firefox","61.1","Windows 10","20","female","right","Sun Oct 13 2024 13:23:41 GMT+0200 (Mitteleuropäische Sommerzeit)","1","6","0","1728821354153"
"1098","f","SpeechGestureMatch","../RequiredFiles/videos/NeinKopfJa_m.mp4","Ist der Ball in der blauen Box?","Green","Blue","F","negation","mismatch","speech","no","HeadNod","male","speech-gesture","1536","864","firefox","61.1","Windows 10","20","female","right","Sun Oct 13 2024 13:23:48 GMT+0200 (Mitteleuropäische Sommerzeit)","1","7","0","1728821354153"
"1063","f","SpeechGestureMatch","../RequiredFiles/videos/NeinKopfNein_f.mp4","Ist der Ball in der blauen Box?","Green","Blue","F","negation","match","speech","no","HeadShake","female","speech-gesture","1536","864","firefox","61.1","Windows 10","20","female","right","Sun Oct 13 2024 13:23:54 GMT+0200 (Mitteleuropäische Sommerzeit)","1","8","0","1728821354153"
"984","j","SpeechGestureMatch","../RequiredFiles/videos/JaKopfNein_f.mp4","Ist der Ball in der blauen Box?","Green","Blue","J","affirmation","mismatch","speech","yes","HeadShake","female","speech-gesture","1536","864","firefox","61.1","Windows 10","20","female","right","Sun Oct 13 2024 13:24:01 GMT+0200 (Mitteleuropäische Sommerzeit)","1","9","0","1728821354153"
"1289","f","SpeechGestureMatch","../RequiredFiles/videos/JaKopfJa_m.mp4","Ist der Ball in der blauen Box?","Blue","Green","F","affirmation","match","speech","yes","HeadNod","male","speech-gesture","1536","864","firefox","61.1","Windows 10","20","female","right","Sun Oct 13 2024 13:24:08 GMT+0200 (Mitteleuropäische Sommerzeit)","1","10","0","1728821354153"
"1058","j","SpeechGestureMatch","../RequiredFiles/videos/NeinKopfNein_m_no_gesture.mp4","Ist der Ball in der blauen Box?","Blue","Green","J","negation","na","speech","no","na","male","speech-gesture","1536","864","firefox","61.1","Windows 10","20","female","right","Sun Oct 13 2024 13:24:14 GMT+0200 (Mitteleuropäische Sommerzeit)","1","11","0","1728821354153"
"1154","f","SpeechGestureMatch","../RequiredFiles/videos/NeinKopfNein_m.mp4","Ist der Ball in der grünen Box?","Blue","Green","F","negation","match","speech","no","HeadShake","male","speech-gesture","1536","864","firefox","61.1","Windows 10","20","female","right","Sun Oct 13 2024 13:24:21 GMT+0200 (Mitteleuropäische Sommerzeit)","1","12","0","1728821354153"
"1069","f","SpeechGestureMatch","../RequiredFiles/videos/NeinKopfNein_f.mp4","Ist der Ball in der grünen Box?","Blue","Green","F","negation","match","speech","no","HeadShake","female","speech-gesture","1536","864","firefox","61.1","Windows 10","20","female","right","Sun Oct 13 2024 13:24:28 GMT+0200 (Mitteleuropäische Sommerzeit)","1","13","0","1728821354153"
"1004","j","SpeechGestureMatch","../RequiredFiles/videos/JaKopfNein_f.mp4","Ist der Ball in der blauen Box?","Blue","Green","F","affirmation","mismatch","speech","yes","HeadShake","female","speech-gesture","1536","864","firefox","61.1","Windows 10","20","female","right","Sun Oct 13 2024 13:24:34 GMT+0200 (Mitteleuropäische Sommerzeit)","1","14","1","1728821354153"
"1297","f","SpeechGestureMatch","../RequiredFiles/videos/NeinKopfJa_f_no_gesture.mp4","Ist der Ball in der grünen Box?","Blue","Green","F","negation","na","speech","no","na","female","speech-gesture","1536","864","firefox","61.1","Windows 10","20","female","right","Sun Oct 13 2024 13:24:41 GMT+0200 (Mitteleuropäische Sommerzeit)","1","15","0","1728821354153"
"1592","j","SpeechGestureMatch","../RequiredFiles/videos/NeinKopfJa_f_no_gesture.mp4","Ist der Ball in der blauen Box?","Blue","Green","J","negation","na","speech","no","na","female","speech-gesture","1536","864","firefox","61.1","Windows 10","20","female","right","Sun Oct 13 2024 13:24:48 GMT+0200 (Mitteleuropäische Sommerzeit)","1","16","0","1728821354153"
"874","j","SpeechGestureMatch","../RequiredFiles/videos/JaKopfJa_f.mp4","Ist der Ball in der blauen Box?","Green","Blue","J","affirmation","match","speech","yes","HeadNod","female","speech-gesture","1536","864","firefox","61.1","Windows 10","20","female","right","Sun Oct 13 2024 13:24:55 GMT+0200 (Mitteleuropäische Sommerzeit)","1","17","0","1728821354153"
"1036","j","SpeechGestureMatch","../RequiredFiles/videos/NeinKopfJa_m.mp4","Ist der Ball in der grünen Box?","Green","Blue","J","negation","mismatch","speech","no","HeadNod","male","speech-gesture","1536","864","firefox","61.1","Windows 10","20","female","right","Sun Oct 13 2024 13:25:01 GMT+0200 (Mitteleuropäische Sommerzeit)","1","18","0","1728821354153"
"976","f","SpeechGestureMatch","../RequiredFiles/videos/JaKopfNein_f_no_gesture.mp4","Ist der Ball in der blauen Box?","Blue","Green","F","affirmation","na","speech","yes","na","female","speech-gesture","1536","864","firefox","61.1","Windows 10","20","female","right","Sun Oct 13 2024 13:25:08 GMT+0200 (Mitteleuropäische Sommerzeit)","1","19","0","1728821354153"
"1147","j","SpeechGestureMatch","../RequiredFiles/videos/JaKopfNein_f_no_gesture.mp4","Ist der Ball in der blauen Box?","Green","Blue","J","affirmation","na","speech","yes","na","female","speech-gesture","1536","864","firefox","61.1","Windows 10","20","female","right","Sun Oct 13 2024 13:25:15 GMT+0200 (Mitteleuropäische Sommerzeit)","1","20","0","1728821354153"
"1106","f","SpeechGestureMatch","../RequiredFiles/videos/JaKopfJa_m.mp4","Ist der Ball in der blauen Box?","Blue","Green","F","affirmation","match","speech","yes","HeadNod","male","speech-gesture","1536","864","firefox","61.1","Windows 10","20","female","right","Sun Oct 13 2024 13:25:21 GMT+0200 (Mitteleuropäische Sommerzeit)","1","21","0","1728821354153"
"1034","j","SpeechGestureMatch","../RequiredFiles/videos/NeinKopfJa_f_no_gesture.mp4","Ist der Ball in der grünen Box?","Green","Blue","J","negation","na","speech","no","na","female","speech-gesture","1536","864","firefox","61.1","Windows 10","20","female","right","Sun Oct 13 2024 13:25:28 GMT+0200 (Mitteleuropäische Sommerzeit)","1","22","0","1728821354153"
"1010","f","SpeechGestureMatch","../RequiredFiles/videos/NeinKopfNein_m_no_gesture.mp4","Ist der Ball in der blauen Box?","Green","Blue","F","negation","na","speech","no","na","male","speech-gesture","1536","864","firefox","61.1","Windows 10","20","female","right","Sun Oct 13 2024 13:25:34 GMT+0200 (Mitteleuropäische Sommerzeit)","1","23","0","1728821354153"
"1348","j","SpeechGestureMatch","../RequiredFiles/videos/NeinKopfJa_m_no_gesture.mp4","Ist der Ball in der grünen Box?","Green","Blue","J","negation","na","speech","no","na","male","speech-gesture","1536","864","firefox","61.1","Windows 10","20","female","right","Sun Oct 13 2024 13:25:41 GMT+0200 (Mitteleuropäische Sommerzeit)","1","24","0","1728821354153"
"1129","f","SpeechGestureMatch","../RequiredFiles/videos/JaKopfJa_m.mp4","Ist der Ball in der grünen Box?","Green","Blue","F","affirmation","match","speech","yes","HeadNod","male","speech-gesture","1536","864","firefox","61.1","Windows 10","20","female","right","Sun Oct 13 2024 13:25:48 GMT+0200 (Mitteleuropäische Sommerzeit)","1","25","0","1728821354153"
"1133","j","SpeechGestureMatch","../RequiredFiles/videos/NeinKopfNein_f.mp4","Ist der Ball in der grünen Box?","Green","Blue","J","negation","match","speech","no","HeadShake","female","speech-gesture","1536","864","firefox","61.1","Windows 10","20","female","right","Sun Oct 13 2024 13:25:55 GMT+0200 (Mitteleuropäische Sommerzeit)","1","26","0","1728821354153"
"1099","j","SpeechGestureMatch","../RequiredFiles/videos/NeinKopfJa_f.mp4","Ist der Ball in der blauen Box?","Blue","Green","J","negation","mismatch","speech","no","HeadNod","female","speech-gesture","1536","864","firefox","61.1","Windows 10","20","female","right","Sun Oct 13 2024 13:26:01 GMT+0200 (Mitteleuropäische Sommerzeit)","1","27","0","1728821354153"
"1181","j","SpeechGestureMatch","../RequiredFiles/videos/NeinKopfNein_m_no_gesture.mp4","Ist der Ball in der grünen Box?","Green","Blue","J","negation","na","speech","no","na","male","speech-gesture","1536","864","firefox","61.1","Windows 10","20","female","right","Sun Oct 13 2024 13:26:08 GMT+0200 (Mitteleuropäische Sommerzeit)","1","28","0","1728821354153"
"1105","f","SpeechGestureMatch","../RequiredFiles/videos/NeinKopfJa_f.mp4","Ist der Ball in der blauen Box?","Green","Blue","F","negation","mismatch","speech","no","HeadNod","female","speech-gesture","1536","864","firefox","61.1","Windows 10","20","female","right","Sun Oct 13 2024 13:26:15 GMT+0200 (Mitteleuropäische Sommerzeit)","1","29","0","1728821354153"
"1748","j","SpeechGestureMatch","../RequiredFiles/videos/JaKopfNein_m_no_gesture.mp4","Ist der Ball in der grünen Box?","Blue","Green","J","affirmation","na","speech","yes","na","male","speech-gesture","1536","864","firefox","61.1","Windows 10","20","female","right","Sun Oct 13 2024 13:26:22 GMT+0200 (Mitteleuropäische Sommerzeit)","1","30","0","1728821354153"
"970","f","SpeechGestureMatch","../RequiredFiles/videos/JaKopfJa_f.mp4","Ist der Ball in der grünen Box?","Green","Blue","F","affirmation","match","speech","yes","HeadNod","female","speech-gesture","1536","864","firefox","61.1","Windows 10","20","female","right","Sun Oct 13 2024 13:26:29 GMT+0200 (Mitteleuropäische Sommerzeit)","1","31","0","1728821354153"
"855","f","SpeechGestureMatch","../RequiredFiles/videos/NeinKopfNein_m.mp4","Ist der Ball in der blauen Box?","Green","Blue","F","negation","match","speech","no","HeadShake","male","speech-gesture","1536","864","firefox","61.1","Windows 10","20","female","right","Sun Oct 13 2024 13:26:35 GMT+0200 (Mitteleuropäische Sommerzeit)","1","32","0","1728821354153"
"1328","f","SpeechGestureMatch","../RequiredFiles/videos/NeinKopfNein_f_no_gesture.mp4","Ist der Ball in der grünen Box?","Blue","Green","F","negation","na","speech","no","na","female","speech-gesture","1536","864","firefox","61.1","Windows 10","20","female","right","Sun Oct 13 2024 13:26:42 GMT+0200 (Mitteleuropäische Sommerzeit)","1","33","0","1728821354153"
"1119","f","SpeechGestureMatch","../RequiredFiles/videos/NeinKopfNein_f.mp4","Ist der Ball in der blauen Box?","Green","Blue","F","negation","match","speech","no","HeadShake","female","speech-gesture","1536","864","firefox","61.1","Windows 10","20","female","right","Sun Oct 13 2024 13:26:49 GMT+0200 (Mitteleuropäische Sommerzeit)","1","34","0","1728821354153"
"1305","j","SpeechGestureMatch","../RequiredFiles/videos/JaKopfNein_f.mp4","Ist der Ball in der blauen Box?","Green","Blue","J","affirmation","mismatch","speech","yes","HeadShake","female","speech-gesture","1536","864","firefox","61.1","Windows 10","20","female","right","Sun Oct 13 2024 13:26:56 GMT+0200 (Mitteleuropäische Sommerzeit)","1","35","0","1728821354153"
"1030","j","SpeechGestureMatch","../RequiredFiles/videos/JaKopfJa_f.mp4","Ist der Ball in der grünen Box?","Blue","Green","J","affirmation","match","speech","yes","HeadNod","female","speech-gesture","1536","864","firefox","61.1","Windows 10","20","female","right","Sun Oct 13 2024 13:27:02 GMT+0200 (Mitteleuropäische Sommerzeit)","1","36","0","1728821354153"
"1189","f","SpeechGestureMatch","../RequiredFiles/videos/JaKopfNein_m_no_gesture.mp4","Ist der Ball in der grünen Box?","Green","Blue","F","affirmation","na","speech","yes","na","male","speech-gesture","1536","864","firefox","61.1","Windows 10","20","female","right","Sun Oct 13 2024 13:27:09 GMT+0200 (Mitteleuropäische Sommerzeit)","1","37","0","1728821354153"
"1100","f","SpeechGestureMatch","../RequiredFiles/videos/JaKopfJa_f_no_gesture.mp4","Ist der Ball in der blauen Box?","Blue","Green","F","affirmation","na","speech","yes","na","female","speech-gesture","1536","864","firefox","61.1","Windows 10","20","female","right","Sun Oct 13 2024 13:27:16 GMT+0200 (Mitteleuropäische Sommerzeit)","1","38","0","1728821354153"
"1137","j","SpeechGestureMatch","../RequiredFiles/videos/JaKopfNein_f.mp4","Ist der Ball in der blauen Box?","Blue","Green","F","affirmation","mismatch","speech","yes","HeadShake","female","speech-gesture","1536","864","firefox","61.1","Windows 10","20","female","right","Sun Oct 13 2024 13:27:22 GMT+0200 (Mitteleuropäische Sommerzeit)","1","39","1","1728821354153"
"1091","f","SpeechGestureMatch","../RequiredFiles/videos/NeinKopfNein_m_no_gesture.mp4","Ist der Ball in der grünen Box?","Blue","Green","F","negation","na","speech","no","na","male","speech-gesture","1536","864","firefox","61.1","Windows 10","20","female","right","Sun Oct 13 2024 13:27:29 GMT+0200 (Mitteleuropäische Sommerzeit)","1","40","0","1728821354153"
"1357","j","SpeechGestureMatch","../RequiredFiles/videos/NeinKopfNein_f.mp4","Ist der Ball in der blauen Box?","Blue","Green","J","negation","match","speech","no","HeadShake","female","speech-gesture","1536","864","firefox","61.1","Windows 10","20","female","right","Sun Oct 13 2024 13:27:36 GMT+0200 (Mitteleuropäische Sommerzeit)","1","41","0","1728821354153"
"1715","j","SpeechGestureMatch","../RequiredFiles/videos/JaKopfJa_f_no_gesture.mp4","Ist der Ball in der grünen Box?","Blue","Green","J","affirmation","na","speech","yes","na","female","speech-gesture","1536","864","firefox","61.1","Windows 10","20","female","right","Sun Oct 13 2024 13:27:43 GMT+0200 (Mitteleuropäische Sommerzeit)","1","42","0","1728821354153"
"1105","f","SpeechGestureMatch","../RequiredFiles/videos/NeinKopfJa_f.mp4","Ist der Ball in der grünen Box?","Blue","Green","F","negation","mismatch","speech","no","HeadNod","female","speech-gesture","1536","864","firefox","61.1","Windows 10","20","female","right","Sun Oct 13 2024 13:27:50 GMT+0200 (Mitteleuropäische Sommerzeit)","1","43","0","1728821354153"
"1082","f","SpeechGestureMatch","../RequiredFiles/videos/NeinKopfNein_m.mp4","Ist der Ball in der blauen Box?","Green","Blue","F","negation","match","speech","no","HeadShake","male","speech-gesture","1536","864","firefox","61.1","Windows 10","20","female","right","Sun Oct 13 2024 13:27:56 GMT+0200 (Mitteleuropäische Sommerzeit)","1","44","0","1728821354153"
"1475","j","SpeechGestureMatch","../RequiredFiles/videos/NeinKopfJa_m.mp4","Ist der Ball in der blauen Box?","Blue","Green","J","negation","mismatch","speech","no","HeadNod","male","speech-gesture","1536","864","firefox","61.1","Windows 10","20","female","right","Sun Oct 13 2024 13:28:03 GMT+0200 (Mitteleuropäische Sommerzeit)","1","45","0","1728821354153"
"1024","j","SpeechGestureMatch","../RequiredFiles/videos/NeinKopfNein_m.mp4","Ist der Ball in der grünen Box?","Green","Blue","J","negation","match","speech","no","HeadShake","male","speech-gesture","1536","864","firefox","61.1","Windows 10","20","female","right","Sun Oct 13 2024 13:28:10 GMT+0200 (Mitteleuropäische Sommerzeit)","1","46","0","1728821354153"
"1122","f","SpeechGestureMatch","../RequiredFiles/videos/JaKopfNein_m.mp4","Ist der Ball in der blauen Box?","Blue","Green","F","affirmation","mismatch","speech","yes","HeadShake","male","speech-gesture","1536","864","firefox","61.1","Windows 10","20","female","right","Sun Oct 13 2024 13:28:17 GMT+0200 (Mitteleuropäische Sommerzeit)","1","47","0","1728821354153"
"1023","f","SpeechGestureMatch","../RequiredFiles/videos/JaKopfJa_f.mp4","Ist der Ball in der blauen Box?","Blue","Green","F","affirmation","match","speech","yes","HeadNod","female","speech-gesture","1536","864","firefox","61.1","Windows 10","20","female","right","Sun Oct 13 2024 13:28:23 GMT+0200 (Mitteleuropäische Sommerzeit)","1","48","0","1728821354153"
"1238","f","SpeechGestureMatch","../RequiredFiles/videos/JaKopfJa_m.mp4","Ist der Ball in der grünen Box?","Green","Blue","F","affirmation","match","speech","yes","HeadNod","male","speech-gesture","1536","864","firefox","61.1","Windows 10","20","female","right","Sun Oct 13 2024 13:28:30 GMT+0200 (Mitteleuropäische Sommerzeit)","1","49","0","1728821354153"
"1162","f","SpeechGestureMatch","../RequiredFiles/videos/JaKopfNein_m.mp4","Ist der Ball in der grünen Box?","Green","Blue","F","affirmation","mismatch","speech","yes","HeadShake","male","speech-gesture","1536","864","firefox","61.1","Windows 10","20","female","right","Sun Oct 13 2024 13:28:37 GMT+0200 (Mitteleuropäische Sommerzeit)","1","50","0","1728821354153"
"1054","j","SpeechGestureMatch","../RequiredFiles/videos/JaKopfJa_m.mp4","Ist der Ball in der blauen Box?","Green","Blue","J","affirmation","match","speech","yes","HeadNod","male","speech-gesture","1536","864","firefox","61.1","Windows 10","20","female","right","Sun Oct 13 2024 13:28:43 GMT+0200 (Mitteleuropäische Sommerzeit)","1","51","0","1728821354153"
"1180","j","SpeechGestureMatch","../RequiredFiles/videos/NeinKopfJa_f.mp4","Ist der Ball in der blauen Box?","Blue","Green","J","negation","mismatch","speech","no","HeadNod","female","speech-gesture","1536","864","firefox","61.1","Windows 10","20","female","right","Sun Oct 13 2024 13:28:50 GMT+0200 (Mitteleuropäische Sommerzeit)","1","52","0","1728821354153"
"1382","f","SpeechGestureMatch","../RequiredFiles/videos/NeinKopfNein_f_no_gesture.mp4","Ist der Ball in der blauen Box?","Green","Blue","F","negation","na","speech","no","na","female","speech-gesture","1536","864","firefox","61.1","Windows 10","20","female","right","Sun Oct 13 2024 13:28:57 GMT+0200 (Mitteleuropäische Sommerzeit)","1","53","0","1728821354153"
"965","j","SpeechGestureMatch","../RequiredFiles/videos/JaKopfJa_f.mp4","Ist der Ball in der blauen Box?","Green","Blue","J","affirmation","match","speech","yes","HeadNod","female","speech-gesture","1536","864","firefox","61.1","Windows 10","20","female","right","Sun Oct 13 2024 13:29:04 GMT+0200 (Mitteleuropäische Sommerzeit)","1","54","0","1728821354153"
"990","j","SpeechGestureMatch","../RequiredFiles/videos/JaKopfJa_f_no_gesture.mp4","Ist der Ball in der blauen Box?","Green","Blue","J","affirmation","na","speech","yes","na","female","speech-gesture","1536","864","firefox","61.1","Windows 10","20","female","right","Sun Oct 13 2024 13:29:10 GMT+0200 (Mitteleuropäische Sommerzeit)","1","55","0","1728821354153"
"1704","j","SpeechGestureMatch","../RequiredFiles/videos/JaKopfJa_m_no_gesture.mp4","Ist der Ball in der grünen Box?","Blue","Green","J","affirmation","na","speech","yes","na","male","speech-gesture","1536","864","firefox","61.1","Windows 10","20","female","right","Sun Oct 13 2024 13:29:18 GMT+0200 (Mitteleuropäische Sommerzeit)","1","56","0","1728821354153"
"1061","f","SpeechGestureMatch","../RequiredFiles/videos/JaKopfNein_f.mp4","Ist der Ball in der grünen Box?","Green","Blue","F","affirmation","mismatch","speech","yes","HeadShake","female","speech-gesture","1536","864","firefox","61.1","Windows 10","20","female","right","Sun Oct 13 2024 13:29:24 GMT+0200 (Mitteleuropäische Sommerzeit)","1","57","0","1728821354153"
"1095","f","SpeechGestureMatch","../RequiredFiles/videos/JaKopfNein_m.mp4","Ist der Ball in der grünen Box?","Green","Blue","F","affirmation","mismatch","speech","yes","HeadShake","male","speech-gesture","1536","864","firefox","61.1","Windows 10","20","female","right","Sun Oct 13 2024 13:29:31 GMT+0200 (Mitteleuropäische Sommerzeit)","1","58","0","1728821354153"
"1026","f","SpeechGestureMatch","../RequiredFiles/videos/NeinKopfJa_f_no_gesture.mp4","Ist der Ball in der blauen Box?","Green","Blue","F","negation","na","speech","no","na","female","speech-gesture","1536","864","firefox","61.1","Windows 10","20","female","right","Sun Oct 13 2024 13:29:37 GMT+0200 (Mitteleuropäische Sommerzeit)","1","59","0","1728821354153"
"1027","j","SpeechGestureMatch","../RequiredFiles/videos/NeinKopfNein_m.mp4","Ist der Ball in der blauen Box?","Blue","Green","J","negation","match","speech","no","HeadShake","male","speech-gesture","1536","864","firefox","61.1","Windows 10","20","female","right","Sun Oct 13 2024 13:29:44 GMT+0200 (Mitteleuropäische Sommerzeit)","1","60","0","1728821354153"
"975","f","SpeechGestureMatch","../RequiredFiles/videos/JaKopfJa_f.mp4","Ist der Ball in der grünen Box?","Green","Blue","F","affirmation","match","speech","yes","HeadNod","female","speech-gesture","1536","864","firefox","61.1","Windows 10","20","female","right","Sun Oct 13 2024 13:29:51 GMT+0200 (Mitteleuropäische Sommerzeit)","1","61","0","1728821354153"
"1101","j","SpeechGestureMatch","../RequiredFiles/videos/NeinKopfNein_f.mp4","Ist der Ball in der grünen Box?","Green","Blue","J","negation","match","speech","no","HeadShake","female","speech-gesture","1536","864","firefox","61.1","Windows 10","20","female","right","Sun Oct 13 2024 13:29:57 GMT+0200 (Mitteleuropäische Sommerzeit)","1","62","0","1728821354153"
"1169","f","SpeechGestureMatch","../RequiredFiles/videos/NeinKopfNein_m.mp4","Ist der Ball in der grünen Box?","Blue","Green","F","negation","match","speech","no","HeadShake","male","speech-gesture","1536","864","firefox","61.1","Windows 10","20","female","right","Sun Oct 13 2024 13:30:04 GMT+0200 (Mitteleuropäische Sommerzeit)","1","63","0","1728821354153"
"1306","j","SpeechGestureMatch","../RequiredFiles/videos/JaKopfNein_f.mp4","Ist der Ball in der grünen Box?","Blue","Green","J","affirmation","mismatch","speech","yes","HeadShake","female","speech-gesture","1536","864","firefox","61.1","Windows 10","20","female","right","Sun Oct 13 2024 13:30:11 GMT+0200 (Mitteleuropäische Sommerzeit)","1","64","0","1728821354153"
"1182","f","SpeechGestureMatch","../RequiredFiles/videos/JaKopfJa_f_no_gesture.mp4","Ist der Ball in der grünen Box?","Green","Blue","F","affirmation","na","speech","yes","na","female","speech-gesture","1536","864","firefox","61.1","Windows 10","20","female","right","Sun Oct 13 2024 13:30:18 GMT+0200 (Mitteleuropäische Sommerzeit)","1","65","0","1728821354153"
"1192","f","SpeechGestureMatch","../RequiredFiles/videos/JaKopfNein_f_no_gesture.mp4","Ist der Ball in der grünen Box?","Green","Blue","F","affirmation","na","speech","yes","na","female","speech-gesture","1536","864","firefox","61.1","Windows 10","20","female","right","Sun Oct 13 2024 13:30:24 GMT+0200 (Mitteleuropäische Sommerzeit)","1","66","0","1728821354153"
"1258","j","SpeechGestureMatch","../RequiredFiles/videos/JaKopfNein_m.mp4","Ist der Ball in der grünen Box?","Blue","Green","J","affirmation","mismatch","speech","yes","HeadShake","male","speech-gesture","1536","864","firefox","61.1","Windows 10","20","female","right","Sun Oct 13 2024 13:30:31 GMT+0200 (Mitteleuropäische Sommerzeit)","1","67","0","1728821354153"
"1129","j","SpeechGestureMatch","../RequiredFiles/videos/NeinKopfNein_f_no_gesture.mp4","Ist der Ball in der blauen Box?","Blue","Green","J","negation","na","speech","no","na","female","speech-gesture","1536","864","firefox","61.1","Windows 10","20","female","right","Sun Oct 13 2024 13:30:38 GMT+0200 (Mitteleuropäische Sommerzeit)","1","68","0","1728821354153"
"1132","f","SpeechGestureMatch","../RequiredFiles/videos/NeinKopfJa_m_no_gesture.mp4","Ist der Ball in der blauen Box?","Green","Blue","F","negation","na","speech","no","na","male","speech-gesture","1536","864","firefox","61.1","Windows 10","20","female","right","Sun Oct 13 2024 13:30:45 GMT+0200 (Mitteleuropäische Sommerzeit)","1","69","0","1728821354153"
"1228","j","SpeechGestureMatch","../RequiredFiles/videos/JaKopfJa_m_no_gesture.mp4","Ist der Ball in der blauen Box?","Green","Blue","J","affirmation","na","speech","yes","na","male","speech-gesture","1536","864","firefox","61.1","Windows 10","20","female","right","Sun Oct 13 2024 13:30:51 GMT+0200 (Mitteleuropäische Sommerzeit)","1","70","0","1728821354153"
"1231","f","SpeechGestureMatch","../RequiredFiles/videos/NeinKopfJa_m.mp4","Ist der Ball in der grünen Box?","Blue","Green","F","negation","mismatch","speech","no","HeadNod","male","speech-gesture","1536","864","firefox","61.1","Windows 10","20","female","right","Sun Oct 13 2024 13:30:58 GMT+0200 (Mitteleuropäische Sommerzeit)","1","71","0","1728821354153"
"1187","j","SpeechGestureMatch","../RequiredFiles/videos/JaKopfNein_m.mp4","Ist der Ball in der grünen Box?","Blue","Green","J","affirmation","mismatch","speech","yes","HeadShake","male","speech-gesture","1536","864","firefox","61.1","Windows 10","20","female","right","Sun Oct 13 2024 13:31:05 GMT+0200 (Mitteleuropäische Sommerzeit)","1","72","0","1728821354153"
"1212","j","SpeechGestureMatch","../RequiredFiles/videos/NeinKopfNein_f.mp4","Ist der Ball in der blauen Box?","Blue","Green","J","negation","match","speech","no","HeadShake","female","speech-gesture","1536","864","firefox","61.1","Windows 10","20","female","right","Sun Oct 13 2024 13:31:12 GMT+0200 (Mitteleuropäische Sommerzeit)","1","73","0","1728821354153"
"1208","j","SpeechGestureMatch","../RequiredFiles/videos/NeinKopfJa_f.mp4","Ist der Ball in der blauen Box?","Green","Blue","F","negation","mismatch","speech","no","HeadNod","female","speech-gesture","1536","864","firefox","61.1","Windows 10","20","female","right","Sun Oct 13 2024 13:31:18 GMT+0200 (Mitteleuropäische Sommerzeit)","1","74","1","1728821354153"
"1450","j","SpeechGestureMatch","../RequiredFiles/videos/NeinKopfJa_f.mp4","Ist der Ball in der grünen Box?","Green","Blue","J","negation","mismatch","speech","no","HeadNod","female","speech-gesture","1536","864","firefox","61.1","Windows 10","20","female","right","Sun Oct 13 2024 13:31:25 GMT+0200 (Mitteleuropäische Sommerzeit)","1","75","0","1728821354153"
"1114","j","SpeechGestureMatch","../RequiredFiles/videos/JaKopfNein_m.mp4","Ist der Ball in der blauen Box?","Green","Blue","J","affirmation","mismatch","speech","yes","HeadShake","male","speech-gesture","1536","864","firefox","61.1","Windows 10","20","female","right","Sun Oct 13 2024 13:31:32 GMT+0200 (Mitteleuropäische Sommerzeit)","1","76","0","1728821354153"
"1276","j","SpeechGestureMatch","../RequiredFiles/videos/JaKopfNein_f.mp4","Ist der Ball in der grünen Box?","Blue","Green","J","affirmation","mismatch","speech","yes","HeadShake","female","speech-gesture","1536","864","firefox","61.1","Windows 10","20","female","right","Sun Oct 13 2024 13:31:39 GMT+0200 (Mitteleuropäische Sommerzeit)","1","77","0","1728821354153"
"963","j","SpeechGestureMatch","../RequiredFiles/videos/JaKopfJa_m.mp4","Ist der Ball in der blauen Box?","Green","Blue","J","affirmation","match","speech","yes","HeadNod","male","speech-gesture","1536","864","firefox","61.1","Windows 10","20","female","right","Sun Oct 13 2024 13:31:46 GMT+0200 (Mitteleuropäische Sommerzeit)","1","78","0","1728821354153"
"1184","j","SpeechGestureMatch","../RequiredFiles/videos/NeinKopfJa_m_no_gesture.mp4","Ist der Ball in der blauen Box?","Blue","Green","J","negation","na","speech","no","na","male","speech-gesture","1536","864","firefox","61.1","Windows 10","20","female","right","Sun Oct 13 2024 13:31:52 GMT+0200 (Mitteleuropäische Sommerzeit)","1","79","0","1728821354153"
"975","j","SpeechGestureMatch","../RequiredFiles/videos/JaKopfJa_m.mp4","Ist der Ball in der grünen Box?","Blue","Green","J","affirmation","match","speech","yes","HeadNod","male","speech-gesture","1536","864","firefox","61.1","Windows 10","20","female","right","Sun Oct 13 2024 13:31:59 GMT+0200 (Mitteleuropäische Sommerzeit)","1","80","0","1728821354153"
"1005","j","SpeechGestureMatch","../RequiredFiles/videos/JaKopfNein_m.mp4","Ist der Ball in der blauen Box?","Green","Blue","J","affirmation","mismatch","speech","yes","HeadShake","male","speech-gesture","1536","864","firefox","61.1","Windows 10","20","female","right","Sun Oct 13 2024 13:32:05 GMT+0200 (Mitteleuropäische Sommerzeit)","1","81","0","1728821354153"
"1229","j","SpeechGestureMatch","../RequiredFiles/videos/JaKopfJa_m.mp4","Ist der Ball in der grünen Box?","Blue","Green","J","affirmation","match","speech","yes","HeadNod","male","speech-gesture","1536","864","firefox","61.1","Windows 10","20","female","right","Sun Oct 13 2024 13:32:12 GMT+0200 (Mitteleuropäische Sommerzeit)","1","82","0","1728821354153"
"1143","f","SpeechGestureMatch","../RequiredFiles/videos/NeinKopfJa_f.mp4","Ist der Ball in der grünen Box?","Green","Blue","J","negation","mismatch","speech","no","HeadNod","female","speech-gesture","1536","864","firefox","61.1","Windows 10","20","female","right","Sun Oct 13 2024 13:32:19 GMT+0200 (Mitteleuropäische Sommerzeit)","1","83","1","1728821354153"
"1351","f","SpeechGestureMatch","../RequiredFiles/videos/JaKopfJa_m_no_gesture.mp4","Ist der Ball in der blauen Box?","Blue","Green","F","affirmation","na","speech","yes","na","male","speech-gesture","1536","864","firefox","61.1","Windows 10","20","female","right","Sun Oct 13 2024 13:32:26 GMT+0200 (Mitteleuropäische Sommerzeit)","1","84","0","1728821354153"
"1317","f","SpeechGestureMatch","../RequiredFiles/videos/JaKopfNein_f.mp4","Ist der Ball in der grünen Box?","Green","Blue","F","affirmation","mismatch","speech","yes","HeadShake","female","speech-gesture","1536","864","firefox","61.1","Windows 10","20","female","right","Sun Oct 13 2024 13:32:33 GMT+0200 (Mitteleuropäische Sommerzeit)","1","85","0","1728821354153"
"1219","j","SpeechGestureMatch","../RequiredFiles/videos/NeinKopfJa_m.mp4","Ist der Ball in der blauen Box?","Blue","Green","J","negation","mismatch","speech","no","HeadNod","male","speech-gesture","1536","864","firefox","61.1","Windows 10","20","female","right","Sun Oct 13 2024 13:32:40 GMT+0200 (Mitteleuropäische Sommerzeit)","1","86","0","1728821354153"
"1483","f","SpeechGestureMatch","../RequiredFiles/videos/NeinKopfNein_f.mp4","Ist der Ball in der grünen Box?","Blue","Green","F","negation","match","speech","no","HeadShake","female","speech-gesture","1536","864","firefox","61.1","Windows 10","20","female","right","Sun Oct 13 2024 13:32:47 GMT+0200 (Mitteleuropäische Sommerzeit)","1","87","0","1728821354153"
"1019","j","SpeechGestureMatch","../RequiredFiles/videos/JaKopfNein_m_no_gesture.mp4","Ist der Ball in der blauen Box?","Green","Blue","J","affirmation","na","speech","yes","na","male","speech-gesture","1536","864","firefox","61.1","Windows 10","20","female","right","Sun Oct 13 2024 13:32:53 GMT+0200 (Mitteleuropäische Sommerzeit)","1","88","0","1728821354153"
"1077","f","SpeechGestureMatch","../RequiredFiles/videos/NeinKopfJa_m_no_gesture.mp4","Ist der Ball in der grünen Box?","Blue","Green","F","negation","na","speech","no","na","male","speech-gesture","1536","864","firefox","61.1","Windows 10","20","female","right","Sun Oct 13 2024 13:33:00 GMT+0200 (Mitteleuropäische Sommerzeit)","1","89","0","1728821354153"
"1076","j","SpeechGestureMatch","../RequiredFiles/videos/JaKopfJa_f.mp4","Ist der Ball in der grünen Box?","Blue","Green","J","affirmation","match","speech","yes","HeadNod","female","speech-gesture","1536","864","firefox","61.1","Windows 10","20","female","right","Sun Oct 13 2024 13:33:06 GMT+0200 (Mitteleuropäische Sommerzeit)","1","90","0","1728821354153"
"1239","j","SpeechGestureMatch","../RequiredFiles/videos/NeinKopfNein_f_no_gesture.mp4","Ist der Ball in der grünen Box?","Green","Blue","J","negation","na","speech","no","na","female","speech-gesture","1536","864","firefox","61.1","Windows 10","20","female","right","Sun Oct 13 2024 13:33:13 GMT+0200 (Mitteleuropäische Sommerzeit)","1","91","0","1728821354153"
"1134","j","SpeechGestureMatch","../RequiredFiles/videos/NeinKopfJa_m.mp4","Ist der Ball in der grünen Box?","Green","Blue","J","negation","mismatch","speech","no","HeadNod","male","speech-gesture","1536","864","firefox","61.1","Windows 10","20","female","right","Sun Oct 13 2024 13:33:20 GMT+0200 (Mitteleuropäische Sommerzeit)","1","92","0","1728821354153"
"1224","f","SpeechGestureMatch","../RequiredFiles/videos/JaKopfNein_m_no_gesture.mp4","Ist der Ball in der blauen Box?","Blue","Green","F","affirmation","na","speech","yes","na","male","speech-gesture","1536","864","firefox","61.1","Windows 10","20","female","right","Sun Oct 13 2024 13:33:27 GMT+0200 (Mitteleuropäische Sommerzeit)","1","93","0","1728821354153"
"1086","f","SpeechGestureMatch","../RequiredFiles/videos/JaKopfJa_m_no_gesture.mp4","Ist der Ball in der grünen Box?","Green","Blue","F","affirmation","na","speech","yes","na","male","speech-gesture","1536","864","firefox","61.1","Windows 10","20","female","right","Sun Oct 13 2024 13:33:34 GMT+0200 (Mitteleuropäische Sommerzeit)","1","94","0","1728821354153"
"1033","f","SpeechGestureMatch","../RequiredFiles/videos/JaKopfJa_f.mp4","Ist der Ball in der blauen Box?","Blue","Green","F","affirmation","match","speech","yes","HeadNod","female","speech-gesture","1536","864","firefox","61.1","Windows 10","20","female","right","Sun Oct 13 2024 13:33:40 GMT+0200 (Mitteleuropäische Sommerzeit)","1","95","0","1728821354153"
"1085","j","SpeechGestureMatch","../RequiredFiles/videos/NeinKopfNein_m.mp4","Ist der Ball in der blauen Box?","Blue","Green","J","negation","match","speech","no","HeadShake","male","speech-gesture","1536","864","firefox","61.1","Windows 10","20","female","right","Sun Oct 13 2024 13:33:47 GMT+0200 (Mitteleuropäische Sommerzeit)","1","96","0","1728821354153"
"2021","f","SpeechGestureMatch","../RequiredFiles/videos/NeinKopfJa_f.mp4","Ist der Ball in der blauen Box?","Green","Blue","F","negation","mismatch","speech","no","HeadNod","female","speech-gesture","1536","864","firefox","61.1","Windows 10","20","female","right","Sun Oct 13 2024 13:34:03 GMT+0200 (Mitteleuropäische Sommerzeit)","2","1","0","1728821354153"
"970","f","SpeechGestureMatch","../RequiredFiles/videos/JaKopfJa_f.mp4","Ist der Ball in der grünen Box?","Green","Blue","F","affirmation","match","speech","yes","HeadNod","female","speech-gesture","1536","864","firefox","61.1","Windows 10","20","female","right","Sun Oct 13 2024 13:34:10 GMT+0200 (Mitteleuropäische Sommerzeit)","2","2","0","1728821354153"
"1085","f","SpeechGestureMatch","../RequiredFiles/videos/NeinKopfJa_m.mp4","Ist der Ball in der blauen Box?","Green","Blue","F","negation","mismatch","speech","no","HeadNod","male","speech-gesture","1536","864","firefox","61.1","Windows 10","20","female","right","Sun Oct 13 2024 13:34:17 GMT+0200 (Mitteleuropäische Sommerzeit)","2","3","0","1728821354153"
"1067","j","SpeechGestureMatch","../RequiredFiles/videos/JaKopfNein_f.mp4","Ist der Ball in der grünen Box?","Green","Blue","F","affirmation","mismatch","speech","yes","HeadShake","female","speech-gesture","1536","864","firefox","61.1","Windows 10","20","female","right","Sun Oct 13 2024 13:34:23 GMT+0200 (Mitteleuropäische Sommerzeit)","2","4","1","1728821354153"
"1042","f","SpeechGestureMatch","../RequiredFiles/videos/JaKopfJa_f.mp4","Ist der Ball in der grünen Box?","Green","Blue","F","affirmation","match","speech","yes","HeadNod","female","speech-gesture","1536","864","firefox","61.1","Windows 10","20","female","right","Sun Oct 13 2024 13:34:30 GMT+0200 (Mitteleuropäische Sommerzeit)","2","5","0","1728821354153"
"1184","j","SpeechGestureMatch","../RequiredFiles/videos/JaKopfNein_f.mp4","Ist der Ball in der blauen Box?","Blue","Green","F","affirmation","mismatch","speech","yes","HeadShake","female","speech-gesture","1536","864","firefox","61.1","Windows 10","20","female","right","Sun Oct 13 2024 13:34:37 GMT+0200 (Mitteleuropäische Sommerzeit)","2","6","1","1728821354153"
"1902","j","SpeechGestureMatch","../RequiredFiles/videos/JaKopfJa_f.mp4","Ist der Ball in der grünen Box?","Blue","Green","J","affirmation","match","speech","yes","HeadNod","female","speech-gesture","1536","864","firefox","61.1","Windows 10","20","female","right","Sun Oct 13 2024 13:34:44 GMT+0200 (Mitteleuropäische Sommerzeit)","2","7","0","1728821354153"
"987","f","SpeechGestureMatch","../RequiredFiles/videos/JaKopfNein_m_no_gesture.mp4","Ist der Ball in der grünen Box?","Green","Blue","F","affirmation","na","speech","yes","na","male","speech-gesture","1536","864","firefox","61.1","Windows 10","20","female","right","Sun Oct 13 2024 13:34:51 GMT+0200 (Mitteleuropäische Sommerzeit)","2","8","0","1728821354153"
"1083","j","SpeechGestureMatch","../RequiredFiles/videos/NeinKopfJa_m.mp4","Ist der Ball in der grünen Box?","Green","Blue","J","negation","mismatch","speech","no","HeadNod","male","speech-gesture","1536","864","firefox","61.1","Windows 10","20","female","right","Sun Oct 13 2024 13:34:57 GMT+0200 (Mitteleuropäische Sommerzeit)","2","9","0","1728821354153"
"1323","j","SpeechGestureMatch","../RequiredFiles/videos/NeinKopfNein_m.mp4","Ist der Ball in der blauen Box?","Blue","Green","J","negation","match","speech","no","HeadShake","male","speech-gesture","1536","864","firefox","61.1","Windows 10","20","female","right","Sun Oct 13 2024 13:35:04 GMT+0200 (Mitteleuropäische Sommerzeit)","2","10","0","1728821354153"
"1351","j","SpeechGestureMatch","../RequiredFiles/videos/NeinKopfJa_f_no_gesture.mp4","Ist der Ball in der blauen Box?","Blue","Green","J","negation","na","speech","no","na","female","speech-gesture","1536","864","firefox","61.1","Windows 10","20","female","right","Sun Oct 13 2024 13:35:11 GMT+0200 (Mitteleuropäische Sommerzeit)","2","11","0","1728821354153"
"1223","f","SpeechGestureMatch","../RequiredFiles/videos/NeinKopfNein_f.mp4","Ist der Ball in der blauen Box?","Green","Blue","F","negation","match","speech","no","HeadShake","female","speech-gesture","1536","864","firefox","61.1","Windows 10","20","female","right","Sun Oct 13 2024 13:35:18 GMT+0200 (Mitteleuropäische Sommerzeit)","2","12","0","1728821354153"
"1010","j","SpeechGestureMatch","../RequiredFiles/videos/JaKopfJa_f.mp4","Ist der Ball in der blauen Box?","Green","Blue","J","affirmation","match","speech","yes","HeadNod","female","speech-gesture","1536","864","firefox","61.1","Windows 10","20","female","right","Sun Oct 13 2024 13:35:25 GMT+0200 (Mitteleuropäische Sommerzeit)","2","13","0","1728821354153"
"1332","j","SpeechGestureMatch","../RequiredFiles/videos/NeinKopfJa_f.mp4","Ist der Ball in der blauen Box?","Blue","Green","J","negation","mismatch","speech","no","HeadNod","female","speech-gesture","1536","864","firefox","61.1","Windows 10","20","female","right","Sun Oct 13 2024 13:35:31 GMT+0200 (Mitteleuropäische Sommerzeit)","2","14","0","1728821354153"
"1409","f","SpeechGestureMatch","../RequiredFiles/videos/JaKopfNein_f.mp4","Ist der Ball in der blauen Box?","Blue","Green","F","affirmation","mismatch","speech","yes","HeadShake","female","speech-gesture","1536","864","firefox","61.1","Windows 10","20","female","right","Sun Oct 13 2024 13:35:39 GMT+0200 (Mitteleuropäische Sommerzeit)","2","15","0","1728821354153"
"1310","f","SpeechGestureMatch","../RequiredFiles/videos/JaKopfNein_m.mp4","Ist der Ball in der grünen Box?","Green","Blue","F","affirmation","mismatch","speech","yes","HeadShake","male","speech-gesture","1536","864","firefox","61.1","Windows 10","20","female","right","Sun Oct 13 2024 13:35:45 GMT+0200 (Mitteleuropäische Sommerzeit)","2","16","0","1728821354153"
"1000","f","SpeechGestureMatch","../RequiredFiles/videos/JaKopfJa_m_no_gesture.mp4","Ist der Ball in der grünen Box?","Green","Blue","F","affirmation","na","speech","yes","na","male","speech-gesture","1536","864","firefox","61.1","Windows 10","20","female","right","Sun Oct 13 2024 13:35:52 GMT+0200 (Mitteleuropäische Sommerzeit)","2","17","0","1728821354153"
"1104","f","SpeechGestureMatch","../RequiredFiles/videos/NeinKopfNein_f_no_gesture.mp4","Ist der Ball in der blauen Box?","Green","Blue","F","negation","na","speech","no","na","female","speech-gesture","1536","864","firefox","61.1","Windows 10","20","female","right","Sun Oct 13 2024 13:35:59 GMT+0200 (Mitteleuropäische Sommerzeit)","2","18","0","1728821354153"
"999","j","SpeechGestureMatch","../RequiredFiles/videos/JaKopfJa_m.mp4","Ist der Ball in der blauen Box?","Green","Blue","J","affirmation","match","speech","yes","HeadNod","male","speech-gesture","1536","864","firefox","61.1","Windows 10","20","female","right","Sun Oct 13 2024 13:36:05 GMT+0200 (Mitteleuropäische Sommerzeit)","2","19","0","1728821354153"
"1132","j","SpeechGestureMatch","../RequiredFiles/videos/NeinKopfNein_m.mp4","Ist der Ball in der grünen Box?","Green","Blue","J","negation","match","speech","no","HeadShake","male","speech-gesture","1536","864","firefox","61.1","Windows 10","20","female","right","Sun Oct 13 2024 13:36:12 GMT+0200 (Mitteleuropäische Sommerzeit)","2","20","0","1728821354153"
"908","j","SpeechGestureMatch","../RequiredFiles/videos/JaKopfJa_m.mp4","Ist der Ball in der grünen Box?","Blue","Green","J","affirmation","match","speech","yes","HeadNod","male","speech-gesture","1536","864","firefox","61.1","Windows 10","20","female","right","Sun Oct 13 2024 13:36:18 GMT+0200 (Mitteleuropäische Sommerzeit)","2","21","0","1728821354153"
"1071","j","SpeechGestureMatch","../RequiredFiles/videos/NeinKopfNein_m_no_gesture.mp4","Ist der Ball in der blauen Box?","Blue","Green","J","negation","na","speech","no","na","male","speech-gesture","1536","864","firefox","61.1","Windows 10","20","female","right","Sun Oct 13 2024 13:36:25 GMT+0200 (Mitteleuropäische Sommerzeit)","2","22","0","1728821354153"
"934","f","SpeechGestureMatch","../RequiredFiles/videos/JaKopfJa_m.mp4","Ist der Ball in der grünen Box?","Green","Blue","F","affirmation","match","speech","yes","HeadNod","male","speech-gesture","1536","864","firefox","61.1","Windows 10","20","female","right","Sun Oct 13 2024 13:36:31 GMT+0200 (Mitteleuropäische Sommerzeit)","2","23","0","1728821354153"
"1286","f","SpeechGestureMatch","../RequiredFiles/videos/NeinKopfJa_m.mp4","Ist der Ball in der grünen Box?","Blue","Green","F","negation","mismatch","speech","no","HeadNod","male","speech-gesture","1536","864","firefox","61.1","Windows 10","20","female","right","Sun Oct 13 2024 13:36:38 GMT+0200 (Mitteleuropäische Sommerzeit)","2","24","0","1728821354153"
"881","j","SpeechGestureMatch","../RequiredFiles/videos/JaKopfJa_m.mp4","Ist der Ball in der blauen Box?","Green","Blue","J","affirmation","match","speech","yes","HeadNod","male","speech-gesture","1536","864","firefox","61.1","Windows 10","20","female","right","Sun Oct 13 2024 13:36:45 GMT+0200 (Mitteleuropäische Sommerzeit)","2","25","0","1728821354153"
"1109","f","SpeechGestureMatch","../RequiredFiles/videos/JaKopfJa_f_no_gesture.mp4","Ist der Ball in der blauen Box?","Blue","Green","F","affirmation","na","speech","yes","na","female","speech-gesture","1536","864","firefox","61.1","Windows 10","20","female","right","Sun Oct 13 2024 13:36:51 GMT+0200 (Mitteleuropäische Sommerzeit)","2","26","0","1728821354153"
"961","j","SpeechGestureMatch","../RequiredFiles/videos/JaKopfNein_f_no_gesture.mp4","Ist der Ball in der grünen Box?","Blue","Green","J","affirmation","na","speech","yes","na","female","speech-gesture","1536","864","firefox","61.1","Windows 10","20","female","right","Sun Oct 13 2024 13:36:58 GMT+0200 (Mitteleuropäische Sommerzeit)","2","27","0","1728821354153"
"1454","f","SpeechGestureMatch","../RequiredFiles/videos/NeinKopfNein_f_no_gesture.mp4","Ist der Ball in der grünen Box?","Blue","Green","F","negation","na","speech","no","na","female","speech-gesture","1536","864","firefox","61.1","Windows 10","20","female","right","Sun Oct 13 2024 13:37:05 GMT+0200 (Mitteleuropäische Sommerzeit)","2","28","0","1728821354153"
"1324","j","SpeechGestureMatch","../RequiredFiles/videos/NeinKopfJa_m.mp4","Ist der Ball in der grünen Box?","Green","Blue","J","negation","mismatch","speech","no","HeadNod","male","speech-gesture","1536","864","firefox","61.1","Windows 10","20","female","right","Sun Oct 13 2024 13:37:12 GMT+0200 (Mitteleuropäische Sommerzeit)","2","29","0","1728821354153"
"994","j","SpeechGestureMatch","../RequiredFiles/videos/JaKopfNein_f.mp4","Ist der Ball in der grünen Box?","Blue","Green","J","affirmation","mismatch","speech","yes","HeadShake","female","speech-gesture","1536","864","firefox","61.1","Windows 10","20","female","right","Sun Oct 13 2024 13:37:18 GMT+0200 (Mitteleuropäische Sommerzeit)","2","30","0","1728821354153"
"999","f","SpeechGestureMatch","../RequiredFiles/videos/NeinKopfNein_m.mp4","Ist der Ball in der grünen Box?","Blue","Green","F","negation","match","speech","no","HeadShake","male","speech-gesture","1536","864","firefox","61.1","Windows 10","20","female","right","Sun Oct 13 2024 13:37:25 GMT+0200 (Mitteleuropäische Sommerzeit)","2","31","0","1728821354153"
"1028","j","SpeechGestureMatch","../RequiredFiles/videos/JaKopfJa_m_no_gesture.mp4","Ist der Ball in der grünen Box?","Blue","Green","J","affirmation","na","speech","yes","na","male","speech-gesture","1536","864","firefox","61.1","Windows 10","20","female","right","Sun Oct 13 2024 13:37:32 GMT+0200 (Mitteleuropäische Sommerzeit)","2","32","0","1728821354153"
"1292","j","SpeechGestureMatch","../RequiredFiles/videos/NeinKopfNein_f_no_gesture.mp4","Ist der Ball in der blauen Box?","Blue","Green","J","negation","na","speech","no","na","female","speech-gesture","1536","864","firefox","61.1","Windows 10","20","female","right","Sun Oct 13 2024 13:37:38 GMT+0200 (Mitteleuropäische Sommerzeit)","2","33","0","1728821354153"
"1156","j","SpeechGestureMatch","../RequiredFiles/videos/JaKopfJa_f_no_gesture.mp4","Ist der Ball in der grünen Box?","Blue","Green","J","affirmation","na","speech","yes","na","female","speech-gesture","1536","864","firefox","61.1","Windows 10","20","female","right","Sun Oct 13 2024 13:37:45 GMT+0200 (Mitteleuropäische Sommerzeit)","2","34","0","1728821354153"
"1459","j","SpeechGestureMatch","../RequiredFiles/videos/NeinKopfJa_f.mp4","Ist der Ball in der blauen Box?","Blue","Green","J","negation","mismatch","speech","no","HeadNod","female","speech-gesture","1536","864","firefox","61.1","Windows 10","20","female","right","Sun Oct 13 2024 13:37:52 GMT+0200 (Mitteleuropäische Sommerzeit)","2","35","0","1728821354153"
"1054","j","SpeechGestureMatch","../RequiredFiles/videos/JaKopfNein_f.mp4","Ist der Ball in der blauen Box?","Green","Blue","J","affirmation","mismatch","speech","yes","HeadShake","female","speech-gesture","1536","864","firefox","61.1","Windows 10","20","female","right","Sun Oct 13 2024 13:37:59 GMT+0200 (Mitteleuropäische Sommerzeit)","2","36","0","1728821354153"
"1059","j","SpeechGestureMatch","../RequiredFiles/videos/JaKopfNein_f_no_gesture.mp4","Ist der Ball in der blauen Box?","Green","Blue","J","affirmation","na","speech","yes","na","female","speech-gesture","1536","864","firefox","61.1","Windows 10","20","female","right","Sun Oct 13 2024 13:38:05 GMT+0200 (Mitteleuropäische Sommerzeit)","2","37","0","1728821354153"
"1136","j","SpeechGestureMatch","../RequiredFiles/videos/NeinKopfJa_m_no_gesture.mp4","Ist der Ball in der blauen Box?","Blue","Green","J","negation","na","speech","no","na","male","speech-gesture","1536","864","firefox","61.1","Windows 10","20","female","right","Sun Oct 13 2024 13:38:12 GMT+0200 (Mitteleuropäische Sommerzeit)","2","38","0","1728821354153"
"1001","f","SpeechGestureMatch","../RequiredFiles/videos/NeinKopfJa_f_no_gesture.mp4","Ist der Ball in der grünen Box?","Blue","Green","F","negation","na","speech","no","na","female","speech-gesture","1536","864","firefox","61.1","Windows 10","20","female","right","Sun Oct 13 2024 13:38:19 GMT+0200 (Mitteleuropäische Sommerzeit)","2","39","0","1728821354153"
"1070","f","SpeechGestureMatch","../RequiredFiles/videos/NeinKopfJa_m.mp4","Ist der Ball in der blauen Box?","Green","Blue","F","negation","mismatch","speech","no","HeadNod","male","speech-gesture","1536","864","firefox","61.1","Windows 10","20","female","right","Sun Oct 13 2024 13:38:25 GMT+0200 (Mitteleuropäische Sommerzeit)","2","40","0","1728821354153"
"1162","j","SpeechGestureMatch","../RequiredFiles/videos/JaKopfNein_m.mp4","Ist der Ball in der grünen Box?","Blue","Green","J","affirmation","mismatch","speech","yes","HeadShake","male","speech-gesture","1536","864","firefox","61.1","Windows 10","20","female","right","Sun Oct 13 2024 13:38:32 GMT+0200 (Mitteleuropäische Sommerzeit)","2","41","0","1728821354153"
"955","j","SpeechGestureMatch","../RequiredFiles/videos/NeinKopfJa_f.mp4","Ist der Ball in der grünen Box?","Green","Blue","J","negation","mismatch","speech","no","HeadNod","female","speech-gesture","1536","864","firefox","61.1","Windows 10","20","female","right","Sun Oct 13 2024 13:38:38 GMT+0200 (Mitteleuropäische Sommerzeit)","2","42","0","1728821354153"
"1100","j","SpeechGestureMatch","../RequiredFiles/videos/JaKopfJa_f_no_gesture.mp4","Ist der Ball in der blauen Box?","Green","Blue","J","affirmation","na","speech","yes","na","female","speech-gesture","1536","864","firefox","61.1","Windows 10","20","female","right","Sun Oct 13 2024 13:38:45 GMT+0200 (Mitteleuropäische Sommerzeit)","2","43","0","1728821354153"
"1494","f","SpeechGestureMatch","../RequiredFiles/videos/NeinKopfNein_f.mp4","Ist der Ball in der grünen Box?","Blue","Green","F","negation","match","speech","no","HeadShake","female","speech-gesture","1536","864","firefox","61.1","Windows 10","20","female","right","Sun Oct 13 2024 13:38:52 GMT+0200 (Mitteleuropäische Sommerzeit)","2","44","0","1728821354153"
"1384","f","SpeechGestureMatch","../RequiredFiles/videos/NeinKopfNein_m_no_gesture.mp4","Ist der Ball in der grünen Box?","Blue","Green","F","negation","na","speech","no","na","male","speech-gesture","1536","864","firefox","61.1","Windows 10","20","female","right","Sun Oct 13 2024 13:38:59 GMT+0200 (Mitteleuropäische Sommerzeit)","2","45","0","1728821354153"
"1038","j","SpeechGestureMatch","../RequiredFiles/videos/JaKopfNein_f.mp4","Ist der Ball in der blauen Box?","Green","Blue","J","affirmation","mismatch","speech","yes","HeadShake","female","speech-gesture","1536","864","firefox","61.1","Windows 10","20","female","right","Sun Oct 13 2024 13:39:06 GMT+0200 (Mitteleuropäische Sommerzeit)","2","46","0","1728821354153"
"1388","f","SpeechGestureMatch","../RequiredFiles/videos/JaKopfNein_m.mp4","Ist der Ball in der blauen Box?","Blue","Green","F","affirmation","mismatch","speech","yes","HeadShake","male","speech-gesture","1536","864","firefox","61.1","Windows 10","20","female","right","Sun Oct 13 2024 13:39:13 GMT+0200 (Mitteleuropäische Sommerzeit)","2","47","0","1728821354153"
"997","f","SpeechGestureMatch","../RequiredFiles/videos/JaKopfNein_f_no_gesture.mp4","Ist der Ball in der blauen Box?","Blue","Green","F","affirmation","na","speech","yes","na","female","speech-gesture","1536","864","firefox","61.1","Windows 10","20","female","right","Sun Oct 13 2024 13:39:19 GMT+0200 (Mitteleuropäische Sommerzeit)","2","48","0","1728821354153"
"1066","j","SpeechGestureMatch","../RequiredFiles/videos/JaKopfNein_f.mp4","Ist der Ball in der grünen Box?","Blue","Green","J","affirmation","mismatch","speech","yes","HeadShake","female","speech-gesture","1536","864","firefox","61.1","Windows 10","20","female","right","Sun Oct 13 2024 13:39:26 GMT+0200 (Mitteleuropäische Sommerzeit)","2","49","0","1728821354153"
"1011","f","SpeechGestureMatch","../RequiredFiles/videos/JaKopfJa_m.mp4","Ist der Ball in der blauen Box?","Blue","Green","F","affirmation","match","speech","yes","HeadNod","male","speech-gesture","1536","864","firefox","61.1","Windows 10","20","female","right","Sun Oct 13 2024 13:39:33 GMT+0200 (Mitteleuropäische Sommerzeit)","2","50","0","1728821354153"
"239","j","SpeechGestureMatch","../RequiredFiles/videos/NeinKopfNein_f_no_gesture.mp4","Ist der Ball in der grünen Box?","Green","Blue","J","negation","na","speech","no","na","female","speech-gesture","1536","864","firefox","61.1","Windows 10","20","female","right","Sun Oct 13 2024 13:39:38 GMT+0200 (Mitteleuropäische Sommerzeit)","2","51","0","1728821354153"
"1399","j","SpeechGestureMatch","../RequiredFiles/videos/NeinKopfNein_m.mp4","Ist der Ball in der blauen Box?","Blue","Green","J","negation","match","speech","no","HeadShake","male","speech-gesture","1536","864","firefox","61.1","Windows 10","20","female","right","Sun Oct 13 2024 13:39:45 GMT+0200 (Mitteleuropäische Sommerzeit)","2","52","0","1728821354153"
"1149","f","SpeechGestureMatch","../RequiredFiles/videos/NeinKopfJa_m_no_gesture.mp4","Ist der Ball in der blauen Box?","Green","Blue","F","negation","na","speech","no","na","male","speech-gesture","1536","864","firefox","61.1","Windows 10","20","female","right","Sun Oct 13 2024 13:39:52 GMT+0200 (Mitteleuropäische Sommerzeit)","2","53","0","1728821354153"
"1397","f","SpeechGestureMatch","../RequiredFiles/videos/NeinKopfNein_f.mp4","Ist der Ball in der grünen Box?","Blue","Green","F","negation","match","speech","no","HeadShake","female","speech-gesture","1536","864","firefox","61.1","Windows 10","20","female","right","Sun Oct 13 2024 13:39:59 GMT+0200 (Mitteleuropäische Sommerzeit)","2","54","0","1728821354153"
"1417","f","SpeechGestureMatch","../RequiredFiles/videos/JaKopfNein_m.mp4","Ist der Ball in der grünen Box?","Green","Blue","F","affirmation","mismatch","speech","yes","HeadShake","male","speech-gesture","1536","864","firefox","61.1","Windows 10","20","female","right","Sun Oct 13 2024 13:40:06 GMT+0200 (Mitteleuropäische Sommerzeit)","2","55","0","1728821354153"
"1117","f","SpeechGestureMatch","../RequiredFiles/videos/JaKopfNein_f_no_gesture.mp4","Ist der Ball in der grünen Box?","Green","Blue","F","affirmation","na","speech","yes","na","female","speech-gesture","1536","864","firefox","61.1","Windows 10","20","female","right","Sun Oct 13 2024 13:40:13 GMT+0200 (Mitteleuropäische Sommerzeit)","2","56","0","1728821354153"
"1042","j","SpeechGestureMatch","../RequiredFiles/videos/JaKopfJa_f.mp4","Ist der Ball in der grünen Box?","Blue","Green","J","affirmation","match","speech","yes","HeadNod","female","speech-gesture","1536","864","firefox","61.1","Windows 10","20","female","right","Sun Oct 13 2024 13:40:19 GMT+0200 (Mitteleuropäische Sommerzeit)","2","57","0","1728821354153"
"1002","j","SpeechGestureMatch","../RequiredFiles/videos/NeinKopfNein_f.mp4","Ist der Ball in der grünen Box?","Green","Blue","J","negation","match","speech","no","HeadShake","female","speech-gesture","1536","864","firefox","61.1","Windows 10","20","female","right","Sun Oct 13 2024 13:40:26 GMT+0200 (Mitteleuropäische Sommerzeit)","2","58","0","1728821354153"
"1048","f","SpeechGestureMatch","../RequiredFiles/videos/NeinKopfNein_m.mp4","Ist der Ball in der grünen Box?","Blue","Green","F","negation","match","speech","no","HeadShake","male","speech-gesture","1536","864","firefox","61.1","Windows 10","20","female","right","Sun Oct 13 2024 13:40:32 GMT+0200 (Mitteleuropäische Sommerzeit)","2","59","0","1728821354153"
"1363","j","SpeechGestureMatch","../RequiredFiles/videos/JaKopfNein_m_no_gesture.mp4","Ist der Ball in der grünen Box?","Blue","Green","J","affirmation","na","speech","yes","na","male","speech-gesture","1536","864","firefox","61.1","Windows 10","20","female","right","Sun Oct 13 2024 13:40:39 GMT+0200 (Mitteleuropäische Sommerzeit)","2","60","0","1728821354153"
"1254","f","SpeechGestureMatch","../RequiredFiles/videos/NeinKopfNein_m.mp4","Ist der Ball in der blauen Box?","Green","Blue","F","negation","match","speech","no","HeadShake","male","speech-gesture","1536","864","firefox","61.1","Windows 10","20","female","right","Sun Oct 13 2024 13:40:46 GMT+0200 (Mitteleuropäische Sommerzeit)","2","61","0","1728821354153"
"1316","f","SpeechGestureMatch","../RequiredFiles/videos/JaKopfJa_f.mp4","Ist der Ball in der blauen Box?","Green","Blue","J","affirmation","match","speech","yes","HeadNod","female","speech-gesture","1536","864","firefox","61.1","Windows 10","20","female","right","Sun Oct 13 2024 13:40:53 GMT+0200 (Mitteleuropäische Sommerzeit)","2","62","1","1728821354153"
"1399","f","SpeechGestureMatch","../RequiredFiles/videos/NeinKopfJa_f.mp4","Ist der Ball in der grünen Box?","Blue","Green","F","negation","mismatch","speech","no","HeadNod","female","speech-gesture","1536","864","firefox","61.1","Windows 10","20","female","right","Sun Oct 13 2024 13:41:00 GMT+0200 (Mitteleuropäische Sommerzeit)","2","63","0","1728821354153"
"987","j","SpeechGestureMatch","../RequiredFiles/videos/JaKopfJa_m.mp4","Ist der Ball in der grünen Box?","Blue","Green","J","affirmation","match","speech","yes","HeadNod","male","speech-gesture","1536","864","firefox","61.1","Windows 10","20","female","right","Sun Oct 13 2024 13:41:07 GMT+0200 (Mitteleuropäische Sommerzeit)","2","64","0","1728821354153"
"1136","j","SpeechGestureMatch","../RequiredFiles/videos/NeinKopfNein_m_no_gesture.mp4","Ist der Ball in der grünen Box?","Green","Blue","J","negation","na","speech","no","na","male","speech-gesture","1536","864","firefox","61.1","Windows 10","20","female","right","Sun Oct 13 2024 13:41:13 GMT+0200 (Mitteleuropäische Sommerzeit)","2","65","0","1728821354153"
"1125","j","SpeechGestureMatch","../RequiredFiles/videos/JaKopfNein_m_no_gesture.mp4","Ist der Ball in der blauen Box?","Green","Blue","J","affirmation","na","speech","yes","na","male","speech-gesture","1536","864","firefox","61.1","Windows 10","20","female","right","Sun Oct 13 2024 13:41:20 GMT+0200 (Mitteleuropäische Sommerzeit)","2","66","0","1728821354153"
"1164","f","SpeechGestureMatch","../RequiredFiles/videos/JaKopfJa_f_no_gesture.mp4","Ist der Ball in der grünen Box?","Green","Blue","F","affirmation","na","speech","yes","na","female","speech-gesture","1536","864","firefox","61.1","Windows 10","20","female","right","Sun Oct 13 2024 13:41:27 GMT+0200 (Mitteleuropäische Sommerzeit)","2","67","0","1728821354153"
"1189","f","SpeechGestureMatch","../RequiredFiles/videos/NeinKopfJa_f.mp4","Ist der Ball in der blauen Box?","Green","Blue","F","negation","mismatch","speech","no","HeadNod","female","speech-gesture","1536","864","firefox","61.1","Windows 10","20","female","right","Sun Oct 13 2024 13:41:33 GMT+0200 (Mitteleuropäische Sommerzeit)","2","68","0","1728821354153"
"1107","j","SpeechGestureMatch","../RequiredFiles/videos/JaKopfNein_m.mp4","Ist der Ball in der grünen Box?","Blue","Green","J","affirmation","mismatch","speech","yes","HeadShake","male","speech-gesture","1536","864","firefox","61.1","Windows 10","20","female","right","Sun Oct 13 2024 13:41:40 GMT+0200 (Mitteleuropäische Sommerzeit)","2","69","0","1728821354153"
"1050","f","SpeechGestureMatch","../RequiredFiles/videos/NeinKopfNein_f.mp4","Ist der Ball in der blauen Box?","Green","Blue","F","negation","match","speech","no","HeadShake","female","speech-gesture","1536","864","firefox","61.1","Windows 10","20","female","right","Sun Oct 13 2024 13:41:47 GMT+0200 (Mitteleuropäische Sommerzeit)","2","70","0","1728821354153"
"1012","f","SpeechGestureMatch","../RequiredFiles/videos/JaKopfJa_m.mp4","Ist der Ball in der grünen Box?","Green","Blue","F","affirmation","match","speech","yes","HeadNod","male","speech-gesture","1536","864","firefox","61.1","Windows 10","20","female","right","Sun Oct 13 2024 13:41:53 GMT+0200 (Mitteleuropäische Sommerzeit)","2","71","0","1728821354153"
"947","j","SpeechGestureMatch","../RequiredFiles/videos/NeinKopfNein_m.mp4","Ist der Ball in der grünen Box?","Green","Blue","J","negation","match","speech","no","HeadShake","male","speech-gesture","1536","864","firefox","61.1","Windows 10","20","female","right","Sun Oct 13 2024 13:42:00 GMT+0200 (Mitteleuropäische Sommerzeit)","2","72","0","1728821354153"
"1342","f","SpeechGestureMatch","../RequiredFiles/videos/JaKopfNein_f.mp4","Ist der Ball in der grünen Box?","Green","Blue","F","affirmation","mismatch","speech","yes","HeadShake","female","speech-gesture","1536","864","firefox","61.1","Windows 10","20","female","right","Sun Oct 13 2024 13:42:07 GMT+0200 (Mitteleuropäische Sommerzeit)","2","73","0","1728821354153"
"1371","f","SpeechGestureMatch","../RequiredFiles/videos/JaKopfJa_f.mp4","Ist der Ball in der blauen Box?","Blue","Green","F","affirmation","match","speech","yes","HeadNod","female","speech-gesture","1536","864","firefox","61.1","Windows 10","20","female","right","Sun Oct 13 2024 13:42:14 GMT+0200 (Mitteleuropäische Sommerzeit)","2","74","0","1728821354153"
"1012","j","SpeechGestureMatch","../RequiredFiles/videos/NeinKopfNein_f.mp4","Ist der Ball in der grünen Box?","Green","Blue","J","negation","match","speech","no","HeadShake","female","speech-gesture","1536","864","firefox","61.1","Windows 10","20","female","right","Sun Oct 13 2024 13:42:21 GMT+0200 (Mitteleuropäische Sommerzeit)","2","75","0","1728821354153"
"997","f","SpeechGestureMatch","../RequiredFiles/videos/JaKopfJa_f.mp4","Ist der Ball in der blauen Box?","Blue","Green","F","affirmation","match","speech","yes","HeadNod","female","speech-gesture","1536","864","firefox","61.1","Windows 10","20","female","right","Sun Oct 13 2024 13:42:27 GMT+0200 (Mitteleuropäische Sommerzeit)","2","76","0","1728821354153"
"1454","j","SpeechGestureMatch","../RequiredFiles/videos/NeinKopfNein_f.mp4","Ist der Ball in der blauen Box?","Blue","Green","J","negation","match","speech","no","HeadShake","female","speech-gesture","1536","864","firefox","61.1","Windows 10","20","female","right","Sun Oct 13 2024 13:42:34 GMT+0200 (Mitteleuropäische Sommerzeit)","2","77","0","1728821354153"
"1356","j","SpeechGestureMatch","../RequiredFiles/videos/NeinKopfNein_f.mp4","Ist der Ball in der blauen Box?","Blue","Green","J","negation","match","speech","no","HeadShake","female","speech-gesture","1536","864","firefox","61.1","Windows 10","20","female","right","Sun Oct 13 2024 13:42:41 GMT+0200 (Mitteleuropäische Sommerzeit)","2","78","0","1728821354153"
"1247","f","SpeechGestureMatch","../RequiredFiles/videos/NeinKopfJa_f.mp4","Ist der Ball in der grünen Box?","Green","Blue","J","negation","mismatch","speech","no","HeadNod","female","speech-gesture","1536","864","firefox","61.1","Windows 10","20","female","right","Sun Oct 13 2024 13:42:48 GMT+0200 (Mitteleuropäische Sommerzeit)","2","79","1","1728821354153"
"1373","j","SpeechGestureMatch","../RequiredFiles/videos/JaKopfJa_m_no_gesture.mp4","Ist der Ball in der blauen Box?","Green","Blue","J","affirmation","na","speech","yes","na","male","speech-gesture","1536","864","firefox","61.1","Windows 10","20","female","right","Sun Oct 13 2024 13:42:55 GMT+0200 (Mitteleuropäische Sommerzeit)","2","80","0","1728821354153"
"1008","f","SpeechGestureMatch","../RequiredFiles/videos/NeinKopfJa_f_no_gesture.mp4","Ist der Ball in der blauen Box?","Green","Blue","F","negation","na","speech","no","na","female","speech-gesture","1536","864","firefox","61.1","Windows 10","20","female","right","Sun Oct 13 2024 13:43:01 GMT+0200 (Mitteleuropäische Sommerzeit)","2","81","0","1728821354153"
"932","f","SpeechGestureMatch","../RequiredFiles/videos/NeinKopfNein_m.mp4","Ist der Ball in der blauen Box?","Green","Blue","F","negation","match","speech","no","HeadShake","male","speech-gesture","1536","864","firefox","61.1","Windows 10","20","female","right","Sun Oct 13 2024 13:43:08 GMT+0200 (Mitteleuropäische Sommerzeit)","2","82","0","1728821354153"
"987","f","SpeechGestureMatch","../RequiredFiles/videos/JaKopfNein_m.mp4","Ist der Ball in der blauen Box?","Green","Blue","J","affirmation","mismatch","speech","yes","HeadShake","male","speech-gesture","1536","864","firefox","61.1","Windows 10","20","female","right","Sun Oct 13 2024 13:43:14 GMT+0200 (Mitteleuropäische Sommerzeit)","2","83","1","1728821354153"
"1045","f","SpeechGestureMatch","../RequiredFiles/videos/JaKopfJa_m.mp4","Ist der Ball in der blauen Box?","Blue","Green","F","affirmation","match","speech","yes","HeadNod","male","speech-gesture","1536","864","firefox","61.1","Windows 10","20","female","right","Sun Oct 13 2024 13:43:21 GMT+0200 (Mitteleuropäische Sommerzeit)","2","84","0","1728821354153"
"1212","j","SpeechGestureMatch","../RequiredFiles/videos/JaKopfNein_m.mp4","Ist der Ball in der blauen Box?","Green","Blue","J","affirmation","mismatch","speech","yes","HeadShake","male","speech-gesture","1536","864","firefox","61.1","Windows 10","20","female","right","Sun Oct 13 2024 13:43:28 GMT+0200 (Mitteleuropäische Sommerzeit)","2","85","0","1728821354153"
"1228","j","SpeechGestureMatch","../RequiredFiles/videos/NeinKopfJa_m.mp4","Ist der Ball in der blauen Box?","Blue","Green","J","negation","mismatch","speech","no","HeadNod","male","speech-gesture","1536","864","firefox","61.1","Windows 10","20","female","right","Sun Oct 13 2024 13:43:35 GMT+0200 (Mitteleuropäische Sommerzeit)","2","86","0","1728821354153"
"1138","f","SpeechGestureMatch","../RequiredFiles/videos/NeinKopfNein_m_no_gesture.mp4","Ist der Ball in der blauen Box?","Green","Blue","F","negation","na","speech","no","na","male","speech-gesture","1536","864","firefox","61.1","Windows 10","20","female","right","Sun Oct 13 2024 13:43:41 GMT+0200 (Mitteleuropäische Sommerzeit)","2","87","0","1728821354153"
"1204","j","SpeechGestureMatch","../RequiredFiles/videos/NeinKopfJa_f_no_gesture.mp4","Ist der Ball in der grünen Box?","Green","Blue","J","negation","na","speech","no","na","female","speech-gesture","1536","864","firefox","61.1","Windows 10","20","female","right","Sun Oct 13 2024 13:43:48 GMT+0200 (Mitteleuropäische Sommerzeit)","2","88","0","1728821354153"
"1141","f","SpeechGestureMatch","../RequiredFiles/videos/NeinKopfJa_m_no_gesture.mp4","Ist der Ball in der grünen Box?","Blue","Green","F","negation","na","speech","no","na","male","speech-gesture","1536","864","firefox","61.1","Windows 10","20","female","right","Sun Oct 13 2024 13:43:55 GMT+0200 (Mitteleuropäische Sommerzeit)","2","89","0","1728821354153"
"1154","j","SpeechGestureMatch","../RequiredFiles/videos/NeinKopfJa_m_no_gesture.mp4","Ist der Ball in der grünen Box?","Green","Blue","J","negation","na","speech","no","na","male","speech-gesture","1536","864","firefox","61.1","Windows 10","20","female","right","Sun Oct 13 2024 13:44:02 GMT+0200 (Mitteleuropäische Sommerzeit)","2","90","0","1728821354153"
"1113","f","SpeechGestureMatch","../RequiredFiles/videos/JaKopfJa_m_no_gesture.mp4","Ist der Ball in der blauen Box?","Blue","Green","F","affirmation","na","speech","yes","na","male","speech-gesture","1536","864","firefox","61.1","Windows 10","20","female","right","Sun Oct 13 2024 13:44:08 GMT+0200 (Mitteleuropäische Sommerzeit)","2","91","0","1728821354153"
"1068","f","SpeechGestureMatch","../RequiredFiles/videos/NeinKopfJa_f.mp4","Ist der Ball in der grünen Box?","Blue","Green","F","negation","mismatch","speech","no","HeadNod","female","speech-gesture","1536","864","firefox","61.1","Windows 10","20","female","right","Sun Oct 13 2024 13:44:15 GMT+0200 (Mitteleuropäische Sommerzeit)","2","92","0","1728821354153"
"1378","f","SpeechGestureMatch","../RequiredFiles/videos/NeinKopfJa_m.mp4","Ist der Ball in der grünen Box?","Blue","Green","F","negation","mismatch","speech","no","HeadNod","male","speech-gesture","1536","864","firefox","61.1","Windows 10","20","female","right","Sun Oct 13 2024 13:44:22 GMT+0200 (Mitteleuropäische Sommerzeit)","2","93","0","1728821354153"
"1266","j","SpeechGestureMatch","../RequiredFiles/videos/NeinKopfJa_m.mp4","Ist der Ball in der blauen Box?","Blue","Green","J","negation","mismatch","speech","no","HeadNod","male","speech-gesture","1536","864","firefox","61.1","Windows 10","20","female","right","Sun Oct 13 2024 13:44:29 GMT+0200 (Mitteleuropäische Sommerzeit)","2","94","0","1728821354153"
"972","f","SpeechGestureMatch","../RequiredFiles/videos/JaKopfNein_m.mp4","Ist der Ball in der blauen Box?","Blue","Green","F","affirmation","mismatch","speech","yes","HeadShake","male","speech-gesture","1536","864","firefox","61.1","Windows 10","20","female","right","Sun Oct 13 2024 13:44:35 GMT+0200 (Mitteleuropäische Sommerzeit)","2","95","0","1728821354153"
"1066","j","SpeechGestureMatch","../RequiredFiles/videos/JaKopfNein_m_no_gesture.mp4","Ist der Ball in der blauen Box?","Blue","Green","F","affirmation","na","speech","yes","na","male","speech-gesture","1536","864","firefox","61.1","Windows 10","20","female","right","Sun Oct 13 2024 13:44:42 GMT+0200 (Mitteleuropäische Sommerzeit)","2","96","1","1728821354153"
"1555","j","SpeechGestureMatch","../RequiredFiles/videos/JaKopfNein_m.mp4","Ist der Ball in der blauen Box?","Blue","Green","J","negation","mismatch","gesture","yes","HeadShake","male","speech-gesture","1536","864","firefox","61.1","Windows 10","20","female","right","Sun Oct 13 2024 13:47:18 GMT+0200 (Mitteleuropäische Sommerzeit)","3","1","0","1728821354153"
"998","f","SpeechGestureMatch","../RequiredFiles/videos/JaKopfJa_f.mp4","Ist der Ball in der blauen Box?","Blue","Green","F","affirmation","match","gesture","yes","HeadNod","female","speech-gesture","1536","864","firefox","61.1","Windows 10","20","female","right","Sun Oct 13 2024 13:47:24 GMT+0200 (Mitteleuropäische Sommerzeit)","3","2","0","1728821354153"
"1055","f","SpeechGestureMatch","../RequiredFiles/videos/NeinKopfJa_m.mp4","Ist der Ball in der blauen Box?","Blue","Green","F","affirmation","mismatch","gesture","no","HeadNod","male","speech-gesture","1536","864","firefox","61.1","Windows 10","20","female","right","Sun Oct 13 2024 13:47:31 GMT+0200 (Mitteleuropäische Sommerzeit)","3","3","0","1728821354153"
"1097","j","SpeechGestureMatch","../RequiredFiles/videos/NeinKopfJa_m.mp4","Ist der Ball in der blauen Box?","Green","Blue","J","affirmation","mismatch","gesture","no","HeadNod","male","speech-gesture","1536","864","firefox","61.1","Windows 10","20","female","right","Sun Oct 13 2024 13:47:37 GMT+0200 (Mitteleuropäische Sommerzeit)","3","4","0","1728821354153"
"1010","f","SpeechGestureMatch","../RequiredFiles/videos/NeinKopfNein_m.mp4","Ist der Ball in der blauen Box?","Blue","Green","J","negation","match","gesture","no","HeadShake","male","speech-gesture","1536","864","firefox","61.1","Windows 10","20","female","right","Sun Oct 13 2024 13:47:44 GMT+0200 (Mitteleuropäische Sommerzeit)","3","5","1","1728821354153"
"1195","j","SpeechGestureMatch","../RequiredFiles/videos/JaKopfJa_f.mp4","Ist der Ball in der grünen Box?","Blue","Green","J","affirmation","match","gesture","yes","HeadNod","female","speech-gesture","1536","864","firefox","61.1","Windows 10","20","female","right","Sun Oct 13 2024 13:47:51 GMT+0200 (Mitteleuropäische Sommerzeit)","3","6","0","1728821354153"
"836","f","SpeechGestureMatch","../RequiredFiles/videos/JaKopfJa_m_no_sound.mp4","Ist der Ball in der blauen Box?","Blue","Green","F","affirmation","na","gesture","na","HeadNod","male","speech-gesture","1536","864","firefox","61.1","Windows 10","20","female","right","Sun Oct 13 2024 13:47:57 GMT+0200 (Mitteleuropäische Sommerzeit)","3","7","0","1728821354153"
"1230","f","SpeechGestureMatch","../RequiredFiles/videos/NeinKopfJa_f.mp4","Ist der Ball in der grünen Box?","Green","Blue","F","affirmation","mismatch","gesture","no","HeadNod","female","speech-gesture","1536","864","firefox","61.1","Windows 10","20","female","right","Sun Oct 13 2024 13:48:04 GMT+0200 (Mitteleuropäische Sommerzeit)","3","8","0","1728821354153"
"1061","f","SpeechGestureMatch","../RequiredFiles/videos/NeinKopfNein_f.mp4","Ist der Ball in der grünen Box?","Blue","Green","F","negation","match","gesture","no","HeadShake","female","speech-gesture","1536","864","firefox","61.1","Windows 10","20","female","right","Sun Oct 13 2024 13:48:10 GMT+0200 (Mitteleuropäische Sommerzeit)","3","9","0","1728821354153"
"1038","f","SpeechGestureMatch","../RequiredFiles/videos/NeinKopfNein_f_no_sound.mp4","Ist der Ball in der grünen Box?","Blue","Green","F","negation","na","gesture","na","HeadShake","female","speech-gesture","1536","864","firefox","61.1","Windows 10","20","female","right","Sun Oct 13 2024 13:48:17 GMT+0200 (Mitteleuropäische Sommerzeit)","3","10","0","1728821354153"
"1254","f","SpeechGestureMatch","../RequiredFiles/videos/JaKopfJa_f.mp4","Ist der Ball in der blauen Box?","Blue","Green","F","affirmation","match","gesture","yes","HeadNod","female","speech-gesture","1536","864","firefox","61.1","Windows 10","20","female","right","Sun Oct 13 2024 13:48:24 GMT+0200 (Mitteleuropäische Sommerzeit)","3","11","0","1728821354153"
"1158","j","SpeechGestureMatch","../RequiredFiles/videos/JaKopfNein_m.mp4","Ist der Ball in der grünen Box?","Green","Blue","J","negation","mismatch","gesture","yes","HeadShake","male","speech-gesture","1536","864","firefox","61.1","Windows 10","20","female","right","Sun Oct 13 2024 13:48:30 GMT+0200 (Mitteleuropäische Sommerzeit)","3","12","0","1728821354153"
"1007","j","SpeechGestureMatch","../RequiredFiles/videos/NeinKopfNein_f_no_sound.mp4","Ist der Ball in der blauen Box?","Blue","Green","J","negation","na","gesture","na","HeadShake","female","speech-gesture","1536","864","firefox","61.1","Windows 10","20","female","right","Sun Oct 13 2024 13:48:37 GMT+0200 (Mitteleuropäische Sommerzeit)","3","13","0","1728821354153"
"891","f","SpeechGestureMatch","../RequiredFiles/videos/NeinKopfJa_f_no_sound.mp4","Ist der Ball in der grünen Box?","Green","Blue","F","affirmation","na","gesture","na","HeadNod","female","speech-gesture","1536","864","firefox","61.1","Windows 10","20","female","right","Sun Oct 13 2024 13:48:44 GMT+0200 (Mitteleuropäische Sommerzeit)","3","14","0","1728821354153"
"1356","j","SpeechGestureMatch","../RequiredFiles/videos/NeinKopfNein_f.mp4","Ist der Ball in der blauen Box?","Blue","Green","J","negation","match","gesture","no","HeadShake","female","speech-gesture","1536","864","firefox","61.1","Windows 10","20","female","right","Sun Oct 13 2024 13:48:51 GMT+0200 (Mitteleuropäische Sommerzeit)","3","15","0","1728821354153"
"821","f","SpeechGestureMatch","../RequiredFiles/videos/NeinKopfJa_m_no_sound.mp4","Ist der Ball in der blauen Box?","Blue","Green","F","affirmation","na","gesture","na","HeadNod","male","speech-gesture","1536","864","firefox","61.1","Windows 10","20","female","right","Sun Oct 13 2024 13:48:57 GMT+0200 (Mitteleuropäische Sommerzeit)","3","16","0","1728821354153"
"1310","j","SpeechGestureMatch","../RequiredFiles/videos/NeinKopfNein_m.mp4","Ist der Ball in der blauen Box?","Blue","Green","J","negation","match","gesture","no","HeadShake","male","speech-gesture","1536","864","firefox","61.1","Windows 10","20","female","right","Sun Oct 13 2024 13:49:04 GMT+0200 (Mitteleuropäische Sommerzeit)","3","17","0","1728821354153"
"874","j","SpeechGestureMatch","../RequiredFiles/videos/JaKopfNein_m_no_sound.mp4","Ist der Ball in der grünen Box?","Green","Blue","J","negation","na","gesture","na","HeadShake","male","speech-gesture","1536","864","firefox","61.1","Windows 10","20","female","right","Sun Oct 13 2024 13:49:11 GMT+0200 (Mitteleuropäische Sommerzeit)","3","18","0","1728821354153"
"672","f","SpeechGestureMatch","../RequiredFiles/videos/JaKopfJa_f_no_sound.mp4","Ist der Ball in der grünen Box?","Green","Blue","F","affirmation","na","gesture","na","HeadNod","female","speech-gesture","1536","864","firefox","61.1","Windows 10","20","female","right","Sun Oct 13 2024 13:49:17 GMT+0200 (Mitteleuropäische Sommerzeit)","3","19","0","1728821354153"
"1350","j","SpeechGestureMatch","../RequiredFiles/videos/NeinKopfJa_f.mp4","Ist der Ball in der grünen Box?","Blue","Green","J","affirmation","mismatch","gesture","no","HeadNod","female","speech-gesture","1536","864","firefox","61.1","Windows 10","20","female","right","Sun Oct 13 2024 13:49:24 GMT+0200 (Mitteleuropäische Sommerzeit)","3","20","0","1728821354153"
"826","f","SpeechGestureMatch","../RequiredFiles/videos/JaKopfJa_f_no_sound.mp4","Ist der Ball in der blauen Box?","Blue","Green","F","affirmation","na","gesture","na","HeadNod","female","speech-gesture","1536","864","firefox","61.1","Windows 10","20","female","right","Sun Oct 13 2024 13:49:30 GMT+0200 (Mitteleuropäische Sommerzeit)","3","21","0","1728821354153"
"1256","j","SpeechGestureMatch","../RequiredFiles/videos/JaKopfJa_f.mp4","Ist der Ball in der grünen Box?","Blue","Green","J","affirmation","match","gesture","yes","HeadNod","female","speech-gesture","1536","864","firefox","61.1","Windows 10","20","female","right","Sun Oct 13 2024 13:49:37 GMT+0200 (Mitteleuropäische Sommerzeit)","3","22","0","1728821354153"
"1106","j","SpeechGestureMatch","../RequiredFiles/videos/NeinKopfJa_f.mp4","Ist der Ball in der grünen Box?","Blue","Green","J","affirmation","mismatch","gesture","no","HeadNod","female","speech-gesture","1536","864","firefox","61.1","Windows 10","20","female","right","Sun Oct 13 2024 13:49:44 GMT+0200 (Mitteleuropäische Sommerzeit)","3","23","0","1728821354153"
"966","j","SpeechGestureMatch","../RequiredFiles/videos/JaKopfJa_m.mp4","Ist der Ball in der grünen Box?","Blue","Green","J","affirmation","match","gesture","yes","HeadNod","male","speech-gesture","1536","864","firefox","61.1","Windows 10","20","female","right","Sun Oct 13 2024 13:49:50 GMT+0200 (Mitteleuropäische Sommerzeit)","3","24","0","1728821354153"
"1217","f","SpeechGestureMatch","../RequiredFiles/videos/JaKopfNein_f.mp4","Ist der Ball in der blauen Box?","Green","Blue","F","negation","mismatch","gesture","yes","HeadShake","female","speech-gesture","1536","864","firefox","61.1","Windows 10","20","female","right","Sun Oct 13 2024 13:49:57 GMT+0200 (Mitteleuropäische Sommerzeit)","3","25","0","1728821354153"
"10272","j","SpeechGestureMatch","../RequiredFiles/videos/NeinKopfNein_m.mp4","Ist der Ball in der grünen Box?","Green","Blue","J","negation","match","gesture","no","HeadShake","male","speech-gesture","1536","864","firefox","61.1","Windows 10","20","female","right","Sun Oct 13 2024 13:50:13 GMT+0200 (Mitteleuropäische Sommerzeit)","3","26","0","1728821354153"
"960","f","SpeechGestureMatch","../RequiredFiles/videos/NeinKopfNein_m_no_sound.mp4","Ist der Ball in der blauen Box?","Green","Blue","F","negation","na","gesture","na","HeadShake","male","speech-gesture","1536","864","firefox","61.1","Windows 10","20","female","right","Sun Oct 13 2024 13:50:20 GMT+0200 (Mitteleuropäische Sommerzeit)","3","27","0","1728821354153"
"1493","j","SpeechGestureMatch","../RequiredFiles/videos/JaKopfJa_f.mp4","Ist der Ball in der blauen Box?","Green","Blue","J","affirmation","match","gesture","yes","HeadNod","female","speech-gesture","1536","864","firefox","61.1","Windows 10","20","female","right","Sun Oct 13 2024 13:50:27 GMT+0200 (Mitteleuropäische Sommerzeit)","3","28","0","1728821354153"
"1374","j","SpeechGestureMatch","../RequiredFiles/videos/JaKopfNein_m.mp4","Ist der Ball in der blauen Box?","Blue","Green","J","negation","mismatch","gesture","yes","HeadShake","male","speech-gesture","1536","864","firefox","61.1","Windows 10","20","female","right","Sun Oct 13 2024 13:50:34 GMT+0200 (Mitteleuropäische Sommerzeit)","3","29","0","1728821354153"
"1603","f","SpeechGestureMatch","../RequiredFiles/videos/NeinKopfJa_m.mp4","Ist der Ball in der blauen Box?","Blue","Green","F","affirmation","mismatch","gesture","no","HeadNod","male","speech-gesture","1536","864","firefox","61.1","Windows 10","20","female","right","Sun Oct 13 2024 13:50:41 GMT+0200 (Mitteleuropäische Sommerzeit)","3","30","0","1728821354153"
"929","j","SpeechGestureMatch","../RequiredFiles/videos/JaKopfNein_m_no_sound.mp4","Ist der Ball in der blauen Box?","Blue","Green","J","negation","na","gesture","na","HeadShake","male","speech-gesture","1536","864","firefox","61.1","Windows 10","20","female","right","Sun Oct 13 2024 13:50:48 GMT+0200 (Mitteleuropäische Sommerzeit)","3","31","0","1728821354153"
"1766","f","SpeechGestureMatch","../RequiredFiles/videos/NeinKopfJa_m.mp4","Ist der Ball in der grünen Box?","Blue","Green","J","affirmation","mismatch","gesture","no","HeadNod","male","speech-gesture","1536","864","firefox","61.1","Windows 10","20","female","right","Sun Oct 13 2024 13:50:55 GMT+0200 (Mitteleuropäische Sommerzeit)","3","32","1","1728821354153"
"1063","f","SpeechGestureMatch","../RequiredFiles/videos/NeinKopfNein_f_no_sound.mp4","Ist der Ball in der blauen Box?","Green","Blue","F","negation","na","gesture","na","HeadShake","female","speech-gesture","1536","864","firefox","61.1","Windows 10","20","female","right","Sun Oct 13 2024 13:51:02 GMT+0200 (Mitteleuropäische Sommerzeit)","3","33","0","1728821354153"
"1100","f","SpeechGestureMatch","../RequiredFiles/videos/JaKopfNein_m_no_sound.mp4","Ist der Ball in der grünen Box?","Blue","Green","F","negation","na","gesture","na","HeadShake","male","speech-gesture","1536","864","firefox","61.1","Windows 10","20","female","right","Sun Oct 13 2024 13:51:08 GMT+0200 (Mitteleuropäische Sommerzeit)","3","34","0","1728821354153"
"1563","f","SpeechGestureMatch","../RequiredFiles/videos/NeinKopfNein_m.mp4","Ist der Ball in der blauen Box?","Green","Blue","F","negation","match","gesture","no","HeadShake","male","speech-gesture","1536","864","firefox","61.1","Windows 10","20","female","right","Sun Oct 13 2024 13:51:15 GMT+0200 (Mitteleuropäische Sommerzeit)","3","35","0","1728821354153"
"1045","j","SpeechGestureMatch","../RequiredFiles/videos/NeinKopfNein_f.mp4","Ist der Ball in der blauen Box?","Blue","Green","J","negation","match","gesture","no","HeadShake","female","speech-gesture","1536","864","firefox","61.1","Windows 10","20","female","right","Sun Oct 13 2024 13:51:22 GMT+0200 (Mitteleuropäische Sommerzeit)","3","36","0","1728821354153"
"1135","f","SpeechGestureMatch","../RequiredFiles/videos/NeinKopfNein_m.mp4","Ist der Ball in der grünen Box?","Blue","Green","F","negation","match","gesture","no","HeadShake","male","speech-gesture","1536","864","firefox","61.1","Windows 10","20","female","right","Sun Oct 13 2024 13:51:28 GMT+0200 (Mitteleuropäische Sommerzeit)","3","37","0","1728821354153"
"839","j","SpeechGestureMatch","../RequiredFiles/videos/JaKopfNein_f_no_sound.mp4","Ist der Ball in der blauen Box?","Blue","Green","J","negation","na","gesture","na","HeadShake","female","speech-gesture","1536","864","firefox","61.1","Windows 10","20","female","right","Sun Oct 13 2024 13:51:35 GMT+0200 (Mitteleuropäische Sommerzeit)","3","38","0","1728821354153"
"775","j","SpeechGestureMatch","../RequiredFiles/videos/NeinKopfNein_m_no_sound.mp4","Ist der Ball in der grünen Box?","Green","Blue","J","negation","na","gesture","na","HeadShake","male","speech-gesture","1536","864","firefox","61.1","Windows 10","20","female","right","Sun Oct 13 2024 13:51:41 GMT+0200 (Mitteleuropäische Sommerzeit)","3","39","0","1728821354153"
"1590","j","SpeechGestureMatch","../RequiredFiles/videos/NeinKopfJa_f.mp4","Ist der Ball in der blauen Box?","Green","Blue","J","affirmation","mismatch","gesture","no","HeadNod","female","speech-gesture","1536","864","firefox","61.1","Windows 10","20","female","right","Sun Oct 13 2024 13:51:48 GMT+0200 (Mitteleuropäische Sommerzeit)","3","40","0","1728821354153"
"762","j","SpeechGestureMatch","../RequiredFiles/videos/JaKopfJa_m_no_sound.mp4","Ist der Ball in der grünen Box?","Blue","Green","J","affirmation","na","gesture","na","HeadNod","male","speech-gesture","1536","864","firefox","61.1","Windows 10","20","female","right","Sun Oct 13 2024 13:51:55 GMT+0200 (Mitteleuropäische Sommerzeit)","3","41","0","1728821354153"
"820","j","SpeechGestureMatch","../RequiredFiles/videos/NeinKopfNein_m_no_sound.mp4","Ist der Ball in der blauen Box?","Blue","Green","J","negation","na","gesture","na","HeadShake","male","speech-gesture","1536","864","firefox","61.1","Windows 10","20","female","right","Sun Oct 13 2024 13:52:01 GMT+0200 (Mitteleuropäische Sommerzeit)","3","42","0","1728821354153"
"764","f","SpeechGestureMatch","../RequiredFiles/videos/JaKopfJa_m_no_sound.mp4","Ist der Ball in der grünen Box?","Green","Blue","F","affirmation","na","gesture","na","HeadNod","male","speech-gesture","1536","864","firefox","61.1","Windows 10","20","female","right","Sun Oct 13 2024 13:52:07 GMT+0200 (Mitteleuropäische Sommerzeit)","3","43","0","1728821354153"
"757","j","SpeechGestureMatch","../RequiredFiles/videos/NeinKopfJa_m_no_sound.mp4","Ist der Ball in der grünen Box?","Blue","Green","J","affirmation","na","gesture","na","HeadNod","male","speech-gesture","1536","864","firefox","61.1","Windows 10","20","female","right","Sun Oct 13 2024 13:52:14 GMT+0200 (Mitteleuropäische Sommerzeit)","3","44","0","1728821354153"
"853","j","SpeechGestureMatch","../RequiredFiles/videos/JaKopfNein_f_no_sound.mp4","Ist der Ball in der grünen Box?","Green","Blue","J","negation","na","gesture","na","HeadShake","female","speech-gesture","1536","864","firefox","61.1","Windows 10","20","female","right","Sun Oct 13 2024 13:52:20 GMT+0200 (Mitteleuropäische Sommerzeit)","3","45","0","1728821354153"
"1835","j","SpeechGestureMatch","../RequiredFiles/videos/NeinKopfJa_m.mp4","Ist der Ball in der blauen Box?","Green","Blue","J","affirmation","mismatch","gesture","no","HeadNod","male","speech-gesture","1536","864","firefox","61.1","Windows 10","20","female","right","Sun Oct 13 2024 13:52:27 GMT+0200 (Mitteleuropäische Sommerzeit)","3","46","0","1728821354153"
"805","f","SpeechGestureMatch","../RequiredFiles/videos/NeinKopfJa_m_no_sound.mp4","Ist der Ball in der grünen Box?","Green","Blue","F","affirmation","na","gesture","na","HeadNod","male","speech-gesture","1536","864","firefox","61.1","Windows 10","20","female","right","Sun Oct 13 2024 13:52:34 GMT+0200 (Mitteleuropäische Sommerzeit)","3","47","0","1728821354153"
"1532","j","SpeechGestureMatch","../RequiredFiles/videos/NeinKopfNein_f.mp4","Ist der Ball in der grünen Box?","Green","Blue","J","negation","match","gesture","no","HeadShake","female","speech-gesture","1536","864","firefox","61.1","Windows 10","20","female","right","Sun Oct 13 2024 13:52:41 GMT+0200 (Mitteleuropäische Sommerzeit)","3","48","0","1728821354153"
"1155","f","SpeechGestureMatch","../RequiredFiles/videos/NeinKopfNein_f.mp4","Ist der Ball in der blauen Box?","Green","Blue","F","negation","match","gesture","no","HeadShake","female","speech-gesture","1536","864","firefox","61.1","Windows 10","20","female","right","Sun Oct 13 2024 13:52:47 GMT+0200 (Mitteleuropäische Sommerzeit)","3","49","0","1728821354153"
"1270","j","SpeechGestureMatch","../RequiredFiles/videos/JaKopfJa_f.mp4","Ist der Ball in der blauen Box?","Green","Blue","J","affirmation","match","gesture","yes","HeadNod","female","speech-gesture","1536","864","firefox","61.1","Windows 10","20","female","right","Sun Oct 13 2024 13:52:54 GMT+0200 (Mitteleuropäische Sommerzeit)","3","50","0","1728821354153"
"1181","f","SpeechGestureMatch","../RequiredFiles/videos/JaKopfJa_f.mp4","Ist der Ball in der grünen Box?","Green","Blue","F","affirmation","match","gesture","yes","HeadNod","female","speech-gesture","1536","864","firefox","61.1","Windows 10","20","female","right","Sun Oct 13 2024 13:53:01 GMT+0200 (Mitteleuropäische Sommerzeit)","3","51","0","1728821354153"
"1353","f","SpeechGestureMatch","../RequiredFiles/videos/JaKopfJa_m.mp4","Ist der Ball in der blauen Box?","Blue","Green","F","affirmation","match","gesture","yes","HeadNod","male","speech-gesture","1536","864","firefox","61.1","Windows 10","20","female","right","Sun Oct 13 2024 13:53:08 GMT+0200 (Mitteleuropäische Sommerzeit)","3","52","0","1728821354153"
"1164","j","SpeechGestureMatch","../RequiredFiles/videos/JaKopfNein_f.mp4","Ist der Ball in der grünen Box?","Green","Blue","J","negation","mismatch","gesture","yes","HeadShake","female","speech-gesture","1536","864","firefox","61.1","Windows 10","20","female","right","Sun Oct 13 2024 13:53:15 GMT+0200 (Mitteleuropäische Sommerzeit)","3","53","0","1728821354153"
"1597","f","SpeechGestureMatch","../RequiredFiles/videos/NeinKopfJa_f.mp4","Ist der Ball in der blauen Box?","Blue","Green","F","affirmation","mismatch","gesture","no","HeadNod","female","speech-gesture","1536","864","firefox","61.1","Windows 10","20","female","right","Sun Oct 13 2024 13:53:22 GMT+0200 (Mitteleuropäische Sommerzeit)","3","54","0","1728821354153"
"1418","f","SpeechGestureMatch","../RequiredFiles/videos/NeinKopfNein_f.mp4","Ist der Ball in der blauen Box?","Green","Blue","F","negation","match","gesture","no","HeadShake","female","speech-gesture","1536","864","firefox","61.1","Windows 10","20","female","right","Sun Oct 13 2024 13:53:29 GMT+0200 (Mitteleuropäische Sommerzeit)","3","55","0","1728821354153"
"1097","f","SpeechGestureMatch","../RequiredFiles/videos/NeinKopfJa_f.mp4","Ist der Ball in der blauen Box?","Blue","Green","F","affirmation","mismatch","gesture","no","HeadNod","female","speech-gesture","1536","864","firefox","61.1","Windows 10","20","female","right","Sun Oct 13 2024 13:53:36 GMT+0200 (Mitteleuropäische Sommerzeit)","3","56","0","1728821354153"
"1376","j","SpeechGestureMatch","../RequiredFiles/videos/JaKopfNein_f.mp4","Ist der Ball in der blauen Box?","Blue","Green","J","negation","mismatch","gesture","yes","HeadShake","female","speech-gesture","1536","864","firefox","61.1","Windows 10","20","female","right","Sun Oct 13 2024 13:53:42 GMT+0200 (Mitteleuropäische Sommerzeit)","3","57","0","1728821354153"
"1081","f","SpeechGestureMatch","../RequiredFiles/videos/JaKopfJa_m.mp4","Ist der Ball in der grünen Box?","Green","Blue","F","affirmation","match","gesture","yes","HeadNod","male","speech-gesture","1536","864","firefox","61.1","Windows 10","20","female","right","Sun Oct 13 2024 13:53:49 GMT+0200 (Mitteleuropäische Sommerzeit)","3","58","0","1728821354153"
"1035","j","SpeechGestureMatch","../RequiredFiles/videos/JaKopfJa_m.mp4","Ist der Ball in der blauen Box?","Green","Blue","J","affirmation","match","gesture","yes","HeadNod","male","speech-gesture","1536","864","firefox","61.1","Windows 10","20","female","right","Sun Oct 13 2024 13:53:56 GMT+0200 (Mitteleuropäische Sommerzeit)","3","59","0","1728821354153"
"688","j","SpeechGestureMatch","../RequiredFiles/videos/JaKopfJa_f_no_sound.mp4","Ist der Ball in der grünen Box?","Blue","Green","J","affirmation","na","gesture","na","HeadNod","female","speech-gesture","1536","864","firefox","61.1","Windows 10","20","female","right","Sun Oct 13 2024 13:54:02 GMT+0200 (Mitteleuropäische Sommerzeit)","3","60","0","1728821354153"
"1421","f","SpeechGestureMatch","../RequiredFiles/videos/JaKopfNein_f.mp4","Ist der Ball in der blauen Box?","Green","Blue","F","negation","mismatch","gesture","yes","HeadShake","female","speech-gesture","1536","864","firefox","61.1","Windows 10","20","female","right","Sun Oct 13 2024 13:54:09 GMT+0200 (Mitteleuropäische Sommerzeit)","3","61","0","1728821354153"
"1033","f","SpeechGestureMatch","../RequiredFiles/videos/NeinKopfNein_m.mp4","Ist der Ball in der blauen Box?","Green","Blue","F","negation","match","gesture","no","HeadShake","male","speech-gesture","1536","864","firefox","61.1","Windows 10","20","female","right","Sun Oct 13 2024 13:54:16 GMT+0200 (Mitteleuropäische Sommerzeit)","3","62","0","1728821354153"
"1009","j","SpeechGestureMatch","../RequiredFiles/videos/NeinKopfNein_f_no_sound.mp4","Ist der Ball in der grünen Box?","Green","Blue","J","negation","na","gesture","na","HeadShake","female","speech-gesture","1536","864","firefox","61.1","Windows 10","20","female","right","Sun Oct 13 2024 13:54:22 GMT+0200 (Mitteleuropäische Sommerzeit)","3","63","0","1728821354153"
"1395","j","SpeechGestureMatch","../RequiredFiles/videos/JaKopfNein_f.mp4","Ist der Ball in der blauen Box?","Blue","Green","J","negation","mismatch","gesture","yes","HeadShake","female","speech-gesture","1536","864","firefox","61.1","Windows 10","20","female","right","Sun Oct 13 2024 13:54:29 GMT+0200 (Mitteleuropäische Sommerzeit)","3","64","0","1728821354153"
"774","j","SpeechGestureMatch","../RequiredFiles/videos/NeinKopfJa_f_no_sound.mp4","Ist der Ball in der grünen Box?","Blue","Green","J","affirmation","na","gesture","na","HeadNod","female","speech-gesture","1536","864","firefox","61.1","Windows 10","20","female","right","Sun Oct 13 2024 13:54:35 GMT+0200 (Mitteleuropäische Sommerzeit)","3","65","0","1728821354153"
"1449","f","SpeechGestureMatch","../RequiredFiles/videos/NeinKopfNein_f.mp4","Ist der Ball in der grünen Box?","Blue","Green","F","negation","match","gesture","no","HeadShake","female","speech-gesture","1536","864","firefox","61.1","Windows 10","20","female","right","Sun Oct 13 2024 13:54:43 GMT+0200 (Mitteleuropäische Sommerzeit)","3","66","0","1728821354153"
"935","f","SpeechGestureMatch","../RequiredFiles/videos/NeinKopfJa_f.mp4","Ist der Ball in der grünen Box?","Green","Blue","F","affirmation","mismatch","gesture","no","HeadNod","female","speech-gesture","1536","864","firefox","61.1","Windows 10","20","female","right","Sun Oct 13 2024 13:54:49 GMT+0200 (Mitteleuropäische Sommerzeit)","3","67","0","1728821354153"
"1106","j","SpeechGestureMatch","../RequiredFiles/videos/JaKopfNein_m.mp4","Ist der Ball in der grünen Box?","Green","Blue","J","negation","mismatch","gesture","yes","HeadShake","male","speech-gesture","1536","864","firefox","61.1","Windows 10","20","female","right","Sun Oct 13 2024 13:54:56 GMT+0200 (Mitteleuropäische Sommerzeit)","3","68","0","1728821354153"
"952","f","SpeechGestureMatch","../RequiredFiles/videos/JaKopfJa_m.mp4","Ist der Ball in der grünen Box?","Green","Blue","F","affirmation","match","gesture","yes","HeadNod","male","speech-gesture","1536","864","firefox","61.1","Windows 10","20","female","right","Sun Oct 13 2024 13:55:02 GMT+0200 (Mitteleuropäische Sommerzeit)","3","69","0","1728821354153"
"773","f","SpeechGestureMatch","../RequiredFiles/videos/NeinKopfNein_m_no_sound.mp4","Ist der Ball in der grünen Box?","Blue","Green","F","negation","na","gesture","na","HeadShake","male","speech-gesture","1536","864","firefox","61.1","Windows 10","20","female","right","Sun Oct 13 2024 13:55:09 GMT+0200 (Mitteleuropäische Sommerzeit)","3","70","0","1728821354153"
"887","j","SpeechGestureMatch","../RequiredFiles/videos/JaKopfJa_m_no_sound.mp4","Ist der Ball in der blauen Box?","Green","Blue","J","affirmation","na","gesture","na","HeadNod","male","speech-gesture","1536","864","firefox","61.1","Windows 10","20","female","right","Sun Oct 13 2024 13:55:15 GMT+0200 (Mitteleuropäische Sommerzeit)","3","71","0","1728821354153"
"728","j","SpeechGestureMatch","../RequiredFiles/videos/JaKopfJa_f_no_sound.mp4","Ist der Ball in der blauen Box?","Green","Blue","J","affirmation","na","gesture","na","HeadNod","female","speech-gesture","1536","864","firefox","61.1","Windows 10","20","female","right","Sun Oct 13 2024 13:55:21 GMT+0200 (Mitteleuropäische Sommerzeit)","3","72","0","1728821354153"
"1331","f","SpeechGestureMatch","../RequiredFiles/videos/NeinKopfNein_m.mp4","Ist der Ball in der grünen Box?","Blue","Green","F","negation","match","gesture","no","HeadShake","male","speech-gesture","1536","864","firefox","61.1","Windows 10","20","female","right","Sun Oct 13 2024 13:55:28 GMT+0200 (Mitteleuropäische Sommerzeit)","3","73","0","1728821354153"
"1212","j","SpeechGestureMatch","../RequiredFiles/videos/NeinKopfJa_f.mp4","Ist der Ball in der blauen Box?","Green","Blue","J","affirmation","mismatch","gesture","no","HeadNod","female","speech-gesture","1536","864","firefox","61.1","Windows 10","20","female","right","Sun Oct 13 2024 13:55:35 GMT+0200 (Mitteleuropäische Sommerzeit)","3","74","0","1728821354153"
"799","f","SpeechGestureMatch","../RequiredFiles/videos/NeinKopfJa_f_no_sound.mp4","Ist der Ball in der blauen Box?","Blue","Green","F","affirmation","na","gesture","na","HeadNod","female","speech-gesture","1536","864","firefox","61.1","Windows 10","20","female","right","Sun Oct 13 2024 13:55:41 GMT+0200 (Mitteleuropäische Sommerzeit)","3","75","0","1728821354153"
"1405","j","SpeechGestureMatch","../RequiredFiles/videos/JaKopfNein_f.mp4","Ist der Ball in der grünen Box?","Green","Blue","J","negation","mismatch","gesture","yes","HeadShake","female","speech-gesture","1536","864","firefox","61.1","Windows 10","20","female","right","Sun Oct 13 2024 13:55:48 GMT+0200 (Mitteleuropäische Sommerzeit)","3","76","0","1728821354153"
"1238","f","SpeechGestureMatch","../RequiredFiles/videos/JaKopfNein_m.mp4","Ist der Ball in der grünen Box?","Blue","Green","F","negation","mismatch","gesture","yes","HeadShake","male","speech-gesture","1536","864","firefox","61.1","Windows 10","20","female","right","Sun Oct 13 2024 13:55:55 GMT+0200 (Mitteleuropäische Sommerzeit)","3","77","0","1728821354153"
"1001","j","SpeechGestureMatch","../RequiredFiles/videos/JaKopfJa_m.mp4","Ist der Ball in der blauen Box?","Green","Blue","J","affirmation","match","gesture","yes","HeadNod","male","speech-gesture","1536","864","firefox","61.1","Windows 10","20","female","right","Sun Oct 13 2024 13:56:02 GMT+0200 (Mitteleuropäische Sommerzeit)","3","78","0","1728821354153"
"1203","j","SpeechGestureMatch","../RequiredFiles/videos/NeinKopfNein_m.mp4","Ist der Ball in der grünen Box?","Green","Blue","J","negation","match","gesture","no","HeadShake","male","speech-gesture","1536","864","firefox","61.1","Windows 10","20","female","right","Sun Oct 13 2024 13:56:08 GMT+0200 (Mitteleuropäische Sommerzeit)","3","79","0","1728821354153"
"976","f","SpeechGestureMatch","../RequiredFiles/videos/JaKopfJa_m.mp4","Ist der Ball in der blauen Box?","Blue","Green","F","affirmation","match","gesture","yes","HeadNod","male","speech-gesture","1536","864","firefox","61.1","Windows 10","20","female","right","Sun Oct 13 2024 13:56:15 GMT+0200 (Mitteleuropäische Sommerzeit)","3","80","0","1728821354153"
"1088","f","SpeechGestureMatch","../RequiredFiles/videos/NeinKopfJa_m.mp4","Ist der Ball in der grünen Box?","Green","Blue","F","affirmation","mismatch","gesture","no","HeadNod","male","speech-gesture","1536","864","firefox","61.1","Windows 10","20","female","right","Sun Oct 13 2024 13:56:22 GMT+0200 (Mitteleuropäische Sommerzeit)","3","81","0","1728821354153"
"974","f","SpeechGestureMatch","../RequiredFiles/videos/JaKopfNein_f_no_sound.mp4","Ist der Ball in der blauen Box?","Green","Blue","F","negation","na","gesture","na","HeadShake","female","speech-gesture","1536","864","firefox","61.1","Windows 10","20","female","right","Sun Oct 13 2024 13:56:28 GMT+0200 (Mitteleuropäische Sommerzeit)","3","82","0","1728821354153"
