"rt","response","stim","video","question","box_colour_left","box_colour_right","correct_key","polarity","matching","modality","verbal","gesture","speaker","order","width","height","browser","vsync_rate","os","age","gender","handedness","date","blockNum","trialNum","error","vpNum"
"1085","j","SpeechGestureMatch","../RequiredFiles/videos/NeinKopfJa_f_no_sound.mp4","Ist der Ball in der blauen Box?","Green","Blue","J","affirmation","na","gesture","na","HeadNod","female","gesture-speech","1280","800","firefox","60","Windows 10","20","male","right","Tue Oct 22 2024 17:29:04 GMT+0200 (Mitteleuropäische Sommerzeit)","1","1","0","1729613950224"
"1138","f","SpeechGestureMatch","../RequiredFiles/videos/NeinKopfJa_f_no_sound.mp4","Ist der Ball in der grünen Box?","Green","Blue","F","affirmation","na","gesture","na","HeadNod","female","gesture-speech","1280","800","firefox","60","Windows 10","20","male","right","Tue Oct 22 2024 17:29:11 GMT+0200 (Mitteleuropäische Sommerzeit)","1","2","0","1729613950224"
"1851","j","SpeechGestureMatch","../RequiredFiles/videos/NeinKopfNein_m_no_sound.mp4","Ist der Ball in der grünen Box?","Green","Blue","J","negation","na","gesture","na","HeadShake","male","gesture-speech","1280","800","firefox","60","Windows 10","20","male","right","Tue Oct 22 2024 17:29:18 GMT+0200 (Mitteleuropäische Sommerzeit)","1","3","0","1729613950224"
"3427","f","SpeechGestureMatch","../RequiredFiles/videos/NeinKopfNein_f.mp4","Ist der Ball in der blauen Box?","Green","Blue","F","negation","match","gesture","no","HeadShake","female","gesture-speech","1280","800","firefox","60","Windows 10","20","male","right","Tue Oct 22 2024 17:29:27 GMT+0200 (Mitteleuropäische Sommerzeit)","1","4","0","1729613950224"
"2892","j","SpeechGestureMatch","../RequiredFiles/videos/JaKopfNein_m_no_sound.mp4","Ist der Ball in der grünen Box?","Green","Blue","J","negation","na","gesture","na","HeadShake","male","gesture-speech","1280","800","firefox","60","Windows 10","20","male","right","Tue Oct 22 2024 17:29:36 GMT+0200 (Mitteleuropäische Sommerzeit)","1","5","0","1729613950224"
"2576","f","SpeechGestureMatch","../RequiredFiles/videos/NeinKopfNein_f.mp4","Ist der Ball in der grünen Box?","Blue","Green","F","negation","match","gesture","no","HeadShake","female","gesture-speech","1280","800","firefox","60","Windows 10","20","male","right","Tue Oct 22 2024 17:29:44 GMT+0200 (Mitteleuropäische Sommerzeit)","1","6","0","1729613950224"
"1079","j","SpeechGestureMatch","../RequiredFiles/videos/NeinKopfNein_m_no_sound.mp4","Ist der Ball in der blauen Box?","Blue","Green","J","negation","na","gesture","na","HeadShake","male","gesture-speech","1280","800","firefox","60","Windows 10","20","male","right","Tue Oct 22 2024 17:29:51 GMT+0200 (Mitteleuropäische Sommerzeit)","1","7","0","1729613950224"
"1968","f","SpeechGestureMatch","../RequiredFiles/videos/JaKopfNein_m.mp4","Ist der Ball in der blauen Box?","Green","Blue","F","negation","mismatch","gesture","yes","HeadShake","male","gesture-speech","1280","800","firefox","60","Windows 10","20","male","right","Tue Oct 22 2024 17:29:58 GMT+0200 (Mitteleuropäische Sommerzeit)","1","8","0","1729613950224"
"1404","j","SpeechGestureMatch","../RequiredFiles/videos/JaKopfNein_f.mp4","Ist der Ball in der blauen Box?","Blue","Green","J","negation","mismatch","gesture","yes","HeadShake","female","gesture-speech","1280","800","firefox","60","Windows 10","20","male","right","Tue Oct 22 2024 17:30:05 GMT+0200 (Mitteleuropäische Sommerzeit)","1","9","0","1729613950224"
"1674","f","SpeechGestureMatch","../RequiredFiles/videos/JaKopfNein_f.mp4","Ist der Ball in der blauen Box?","Green","Blue","F","negation","mismatch","gesture","yes","HeadShake","female","gesture-speech","1280","800","firefox","60","Windows 10","20","male","right","Tue Oct 22 2024 17:30:12 GMT+0200 (Mitteleuropäische Sommerzeit)","1","10","0","1729613950224"
"1638","j","SpeechGestureMatch","../RequiredFiles/videos/NeinKopfJa_f.mp4","Ist der Ball in der grünen Box?","Green","Blue","F","affirmation","mismatch","gesture","no","HeadNod","female","gesture-speech","1280","800","firefox","60","Windows 10","20","male","right","Tue Oct 22 2024 17:30:19 GMT+0200 (Mitteleuropäische Sommerzeit)","1","11","1","1729613950224"
"1680","j","SpeechGestureMatch","../RequiredFiles/videos/NeinKopfJa_f.mp4","Ist der Ball in der blauen Box?","Green","Blue","J","affirmation","mismatch","gesture","no","HeadNod","female","gesture-speech","1280","800","firefox","60","Windows 10","20","male","right","Tue Oct 22 2024 17:30:27 GMT+0200 (Mitteleuropäische Sommerzeit)","1","12","0","1729613950224"
"1613","j","SpeechGestureMatch","../RequiredFiles/videos/NeinKopfJa_f.mp4","Ist der Ball in der grünen Box?","Blue","Green","J","affirmation","mismatch","gesture","no","HeadNod","female","gesture-speech","1280","800","firefox","60","Windows 10","20","male","right","Tue Oct 22 2024 17:30:34 GMT+0200 (Mitteleuropäische Sommerzeit)","1","13","0","1729613950224"
"1921","f","SpeechGestureMatch","../RequiredFiles/videos/JaKopfNein_m_no_sound.mp4","Ist der Ball in der blauen Box?","Blue","Green","J","negation","na","gesture","na","HeadShake","male","gesture-speech","1280","800","firefox","60","Windows 10","20","male","right","Tue Oct 22 2024 17:30:41 GMT+0200 (Mitteleuropäische Sommerzeit)","1","14","1","1729613950224"
"1378","j","SpeechGestureMatch","../RequiredFiles/videos/NeinKopfNein_m_no_sound.mp4","Ist der Ball in der grünen Box?","Blue","Green","F","negation","na","gesture","na","HeadShake","male","gesture-speech","1280","800","firefox","60","Windows 10","20","male","right","Tue Oct 22 2024 17:30:48 GMT+0200 (Mitteleuropäische Sommerzeit)","1","15","1","1729613950224"
"2177","j","SpeechGestureMatch","../RequiredFiles/videos/NeinKopfNein_m.mp4","Ist der Ball in der grünen Box?","Green","Blue","J","negation","match","gesture","no","HeadShake","male","gesture-speech","1280","800","firefox","60","Windows 10","20","male","right","Tue Oct 22 2024 17:30:56 GMT+0200 (Mitteleuropäische Sommerzeit)","1","16","0","1729613950224"
"1132","j","SpeechGestureMatch","../RequiredFiles/videos/JaKopfNein_m.mp4","Ist der Ball in der blauen Box?","Blue","Green","J","negation","mismatch","gesture","yes","HeadShake","male","gesture-speech","1280","800","firefox","60","Windows 10","20","male","right","Tue Oct 22 2024 17:31:03 GMT+0200 (Mitteleuropäische Sommerzeit)","1","17","0","1729613950224"
"1407","j","SpeechGestureMatch","../RequiredFiles/videos/NeinKopfNein_f_no_sound.mp4","Ist der Ball in der grünen Box?","Green","Blue","J","negation","na","gesture","na","HeadShake","female","gesture-speech","1280","800","firefox","60","Windows 10","20","male","right","Tue Oct 22 2024 17:31:10 GMT+0200 (Mitteleuropäische Sommerzeit)","1","18","0","1729613950224"
"2536","j","SpeechGestureMatch","../RequiredFiles/videos/NeinKopfNein_f.mp4","Ist der Ball in der blauen Box?","Green","Blue","F","negation","match","gesture","no","HeadShake","female","gesture-speech","1280","800","firefox","60","Windows 10","20","male","right","Tue Oct 22 2024 17:31:18 GMT+0200 (Mitteleuropäische Sommerzeit)","1","19","1","1729613950224"
"1936","j","SpeechGestureMatch","../RequiredFiles/videos/NeinKopfNein_f.mp4","Ist der Ball in der blauen Box?","Blue","Green","J","negation","match","gesture","no","HeadShake","female","gesture-speech","1280","800","firefox","60","Windows 10","20","male","right","Tue Oct 22 2024 17:31:25 GMT+0200 (Mitteleuropäische Sommerzeit)","1","20","0","1729613950224"
"1543","j","SpeechGestureMatch","../RequiredFiles/videos/NeinKopfJa_f.mp4","Ist der Ball in der grünen Box?","Blue","Green","J","affirmation","mismatch","gesture","no","HeadNod","female","gesture-speech","1280","800","firefox","60","Windows 10","20","male","right","Tue Oct 22 2024 17:31:32 GMT+0200 (Mitteleuropäische Sommerzeit)","1","21","0","1729613950224"
"1310","f","SpeechGestureMatch","../RequiredFiles/videos/JaKopfNein_f.mp4","Ist der Ball in der grünen Box?","Blue","Green","F","negation","mismatch","gesture","yes","HeadShake","female","gesture-speech","1280","800","firefox","60","Windows 10","20","male","right","Tue Oct 22 2024 17:31:39 GMT+0200 (Mitteleuropäische Sommerzeit)","1","22","0","1729613950224"
"1405","f","SpeechGestureMatch","../RequiredFiles/videos/NeinKopfJa_f.mp4","Ist der Ball in der blauen Box?","Blue","Green","F","affirmation","mismatch","gesture","no","HeadNod","female","gesture-speech","1280","800","firefox","60","Windows 10","20","male","right","Tue Oct 22 2024 17:31:46 GMT+0200 (Mitteleuropäische Sommerzeit)","1","23","0","1729613950224"
"1250","f","SpeechGestureMatch","../RequiredFiles/videos/JaKopfJa_m_no_sound.mp4","Ist der Ball in der blauen Box?","Blue","Green","F","affirmation","na","gesture","na","HeadNod","male","gesture-speech","1280","800","firefox","60","Windows 10","20","male","right","Tue Oct 22 2024 17:31:53 GMT+0200 (Mitteleuropäische Sommerzeit)","1","24","0","1729613950224"
"1505","f","SpeechGestureMatch","../RequiredFiles/videos/JaKopfJa_m.mp4","Ist der Ball in der blauen Box?","Blue","Green","F","affirmation","match","gesture","yes","HeadNod","male","gesture-speech","1280","800","firefox","60","Windows 10","20","male","right","Tue Oct 22 2024 17:32:00 GMT+0200 (Mitteleuropäische Sommerzeit)","1","25","0","1729613950224"
"1207","f","SpeechGestureMatch","../RequiredFiles/videos/NeinKopfJa_m.mp4","Ist der Ball in der grünen Box?","Green","Blue","F","affirmation","mismatch","gesture","no","HeadNod","male","gesture-speech","1280","800","firefox","60","Windows 10","20","male","right","Tue Oct 22 2024 17:32:07 GMT+0200 (Mitteleuropäische Sommerzeit)","1","26","0","1729613950224"
"1373","f","SpeechGestureMatch","../RequiredFiles/videos/NeinKopfJa_m.mp4","Ist der Ball in der grünen Box?","Green","Blue","F","affirmation","mismatch","gesture","no","HeadNod","male","gesture-speech","1280","800","firefox","60","Windows 10","20","male","right","Tue Oct 22 2024 17:32:14 GMT+0200 (Mitteleuropäische Sommerzeit)","1","27","0","1729613950224"
"1086","j","SpeechGestureMatch","../RequiredFiles/videos/JaKopfJa_m.mp4","Ist der Ball in der blauen Box?","Green","Blue","J","affirmation","match","gesture","yes","HeadNod","male","gesture-speech","1280","800","firefox","60","Windows 10","20","male","right","Tue Oct 22 2024 17:32:21 GMT+0200 (Mitteleuropäische Sommerzeit)","1","28","0","1729613950224"
"1424","j","SpeechGestureMatch","../RequiredFiles/videos/JaKopfNein_f.mp4","Ist der Ball in der grünen Box?","Green","Blue","J","negation","mismatch","gesture","yes","HeadShake","female","gesture-speech","1280","800","firefox","60","Windows 10","20","male","right","Tue Oct 22 2024 17:32:28 GMT+0200 (Mitteleuropäische Sommerzeit)","1","29","0","1729613950224"
"1460","f","SpeechGestureMatch","../RequiredFiles/videos/NeinKopfNein_m_no_sound.mp4","Ist der Ball in der blauen Box?","Green","Blue","F","negation","na","gesture","na","HeadShake","male","gesture-speech","1280","800","firefox","60","Windows 10","20","male","right","Tue Oct 22 2024 17:32:35 GMT+0200 (Mitteleuropäische Sommerzeit)","1","30","0","1729613950224"
"1354","j","SpeechGestureMatch","../RequiredFiles/videos/JaKopfJa_f_no_sound.mp4","Ist der Ball in der blauen Box?","Green","Blue","J","affirmation","na","gesture","na","HeadNod","female","gesture-speech","1280","800","firefox","60","Windows 10","20","male","right","Tue Oct 22 2024 17:32:42 GMT+0200 (Mitteleuropäische Sommerzeit)","1","31","0","1729613950224"
"1552","j","SpeechGestureMatch","../RequiredFiles/videos/NeinKopfNein_m.mp4","Ist der Ball in der blauen Box?","Blue","Green","J","negation","match","gesture","no","HeadShake","male","gesture-speech","1280","800","firefox","60","Windows 10","20","male","right","Tue Oct 22 2024 17:32:49 GMT+0200 (Mitteleuropäische Sommerzeit)","1","32","0","1729613950224"
"1417","f","SpeechGestureMatch","../RequiredFiles/videos/JaKopfNein_f_no_sound.mp4","Ist der Ball in der grünen Box?","Blue","Green","F","negation","na","gesture","na","HeadShake","female","gesture-speech","1280","800","firefox","60","Windows 10","20","male","right","Tue Oct 22 2024 17:32:56 GMT+0200 (Mitteleuropäische Sommerzeit)","1","33","0","1729613950224"
"1251","j","SpeechGestureMatch","../RequiredFiles/videos/NeinKopfJa_m_no_sound.mp4","Ist der Ball in der blauen Box?","Green","Blue","J","affirmation","na","gesture","na","HeadNod","male","gesture-speech","1280","800","firefox","60","Windows 10","20","male","right","Tue Oct 22 2024 17:33:02 GMT+0200 (Mitteleuropäische Sommerzeit)","1","34","0","1729613950224"
"1310","j","SpeechGestureMatch","../RequiredFiles/videos/NeinKopfJa_f_no_sound.mp4","Ist der Ball in der grünen Box?","Blue","Green","J","affirmation","na","gesture","na","HeadNod","female","gesture-speech","1280","800","firefox","60","Windows 10","20","male","right","Tue Oct 22 2024 17:33:09 GMT+0200 (Mitteleuropäische Sommerzeit)","1","35","0","1729613950224"
"2225","f","SpeechGestureMatch","../RequiredFiles/videos/NeinKopfNein_f.mp4","Ist der Ball in der grünen Box?","Green","Blue","J","negation","match","gesture","no","HeadShake","female","gesture-speech","1280","800","firefox","60","Windows 10","20","male","right","Tue Oct 22 2024 17:33:17 GMT+0200 (Mitteleuropäische Sommerzeit)","1","36","1","1729613950224"
"1112","f","SpeechGestureMatch","../RequiredFiles/videos/JaKopfJa_f.mp4","Ist der Ball in der grünen Box?","Green","Blue","F","affirmation","match","gesture","yes","HeadNod","female","gesture-speech","1280","800","firefox","60","Windows 10","20","male","right","Tue Oct 22 2024 17:33:24 GMT+0200 (Mitteleuropäische Sommerzeit)","1","37","0","1729613950224"
"1253","f","SpeechGestureMatch","../RequiredFiles/videos/JaKopfNein_m_no_sound.mp4","Ist der Ball in der blauen Box?","Green","Blue","F","negation","na","gesture","na","HeadShake","male","gesture-speech","1280","800","firefox","60","Windows 10","20","male","right","Tue Oct 22 2024 17:33:31 GMT+0200 (Mitteleuropäische Sommerzeit)","1","38","0","1729613950224"
"1349","f","SpeechGestureMatch","../RequiredFiles/videos/JaKopfJa_f.mp4","Ist der Ball in der blauen Box?","Blue","Green","F","affirmation","match","gesture","yes","HeadNod","female","gesture-speech","1280","800","firefox","60","Windows 10","20","male","right","Tue Oct 22 2024 17:33:38 GMT+0200 (Mitteleuropäische Sommerzeit)","1","39","0","1729613950224"
"1383","j","SpeechGestureMatch","../RequiredFiles/videos/NeinKopfNein_f.mp4","Ist der Ball in der blauen Box?","Blue","Green","J","negation","match","gesture","no","HeadShake","female","gesture-speech","1280","800","firefox","60","Windows 10","20","male","right","Tue Oct 22 2024 17:33:45 GMT+0200 (Mitteleuropäische Sommerzeit)","1","40","0","1729613950224"
"1447","f","SpeechGestureMatch","../RequiredFiles/videos/NeinKopfNein_f_no_sound.mp4","Ist der Ball in der grünen Box?","Blue","Green","F","negation","na","gesture","na","HeadShake","female","gesture-speech","1280","800","firefox","60","Windows 10","20","male","right","Tue Oct 22 2024 17:33:52 GMT+0200 (Mitteleuropäische Sommerzeit)","1","41","0","1729613950224"
"1000","f","SpeechGestureMatch","../RequiredFiles/videos/NeinKopfJa_m_no_sound.mp4","Ist der Ball in der blauen Box?","Blue","Green","F","affirmation","na","gesture","na","HeadNod","male","gesture-speech","1280","800","firefox","60","Windows 10","20","male","right","Tue Oct 22 2024 17:33:58 GMT+0200 (Mitteleuropäische Sommerzeit)","1","42","0","1729613950224"
"1960","j","SpeechGestureMatch","../RequiredFiles/videos/NeinKopfJa_m.mp4","Ist der Ball in der blauen Box?","Green","Blue","J","affirmation","mismatch","gesture","no","HeadNod","male","gesture-speech","1280","800","firefox","60","Windows 10","20","male","right","Tue Oct 22 2024 17:34:06 GMT+0200 (Mitteleuropäische Sommerzeit)","1","43","0","1729613950224"
"1160","f","SpeechGestureMatch","../RequiredFiles/videos/JaKopfJa_m_no_sound.mp4","Ist der Ball in der grünen Box?","Green","Blue","F","affirmation","na","gesture","na","HeadNod","male","gesture-speech","1280","800","firefox","60","Windows 10","20","male","right","Tue Oct 22 2024 17:34:13 GMT+0200 (Mitteleuropäische Sommerzeit)","1","44","0","1729613950224"
"1097","j","SpeechGestureMatch","../RequiredFiles/videos/NeinKopfJa_m_no_sound.mp4","Ist der Ball in der grünen Box?","Blue","Green","J","affirmation","na","gesture","na","HeadNod","male","gesture-speech","1280","800","firefox","60","Windows 10","20","male","right","Tue Oct 22 2024 17:34:19 GMT+0200 (Mitteleuropäische Sommerzeit)","1","45","0","1729613950224"
"815","j","SpeechGestureMatch","../RequiredFiles/videos/JaKopfJa_m_no_sound.mp4","Ist der Ball in der grünen Box?","Blue","Green","J","affirmation","na","gesture","na","HeadNod","male","gesture-speech","1280","800","firefox","60","Windows 10","20","male","right","Tue Oct 22 2024 17:34:26 GMT+0200 (Mitteleuropäische Sommerzeit)","1","46","0","1729613950224"
"1205","j","SpeechGestureMatch","../RequiredFiles/videos/JaKopfJa_f.mp4","Ist der Ball in der grünen Box?","Blue","Green","J","affirmation","match","gesture","yes","HeadNod","female","gesture-speech","1280","800","firefox","60","Windows 10","20","male","right","Tue Oct 22 2024 17:34:32 GMT+0200 (Mitteleuropäische Sommerzeit)","1","47","0","1729613950224"
"1251","f","SpeechGestureMatch","../RequiredFiles/videos/NeinKopfJa_m.mp4","Ist der Ball in der blauen Box?","Blue","Green","F","affirmation","mismatch","gesture","no","HeadNod","male","gesture-speech","1280","800","firefox","60","Windows 10","20","male","right","Tue Oct 22 2024 17:34:39 GMT+0200 (Mitteleuropäische Sommerzeit)","1","48","0","1729613950224"
"1135","f","SpeechGestureMatch","../RequiredFiles/videos/NeinKopfJa_m.mp4","Ist der Ball in der blauen Box?","Blue","Green","F","affirmation","mismatch","gesture","no","HeadNod","male","gesture-speech","1280","800","firefox","60","Windows 10","20","male","right","Tue Oct 22 2024 17:34:46 GMT+0200 (Mitteleuropäische Sommerzeit)","1","49","0","1729613950224"
"1153","f","SpeechGestureMatch","../RequiredFiles/videos/JaKopfJa_f.mp4","Ist der Ball in der blauen Box?","Blue","Green","F","affirmation","match","gesture","yes","HeadNod","female","gesture-speech","1280","800","firefox","60","Windows 10","20","male","right","Tue Oct 22 2024 17:34:53 GMT+0200 (Mitteleuropäische Sommerzeit)","1","50","0","1729613950224"
"1405","j","SpeechGestureMatch","../RequiredFiles/videos/NeinKopfNein_f.mp4","Ist der Ball in der grünen Box?","Green","Blue","J","negation","match","gesture","no","HeadShake","female","gesture-speech","1280","800","firefox","60","Windows 10","20","male","right","Tue Oct 22 2024 17:35:00 GMT+0200 (Mitteleuropäische Sommerzeit)","1","51","0","1729613950224"
"1684","j","SpeechGestureMatch","../RequiredFiles/videos/JaKopfNein_m.mp4","Ist der Ball in der blauen Box?","Blue","Green","J","negation","mismatch","gesture","yes","HeadShake","male","gesture-speech","1280","800","firefox","60","Windows 10","20","male","right","Tue Oct 22 2024 17:35:07 GMT+0200 (Mitteleuropäische Sommerzeit)","1","52","0","1729613950224"
"1880","f","SpeechGestureMatch","../RequiredFiles/videos/JaKopfNein_f_no_sound.mp4","Ist der Ball in der blauen Box?","Blue","Green","J","negation","na","gesture","na","HeadShake","female","gesture-speech","1280","800","firefox","60","Windows 10","20","male","right","Tue Oct 22 2024 17:35:14 GMT+0200 (Mitteleuropäische Sommerzeit)","1","53","1","1729613950224"
"1397","j","SpeechGestureMatch","../RequiredFiles/videos/JaKopfJa_m.mp4","Ist der Ball in der blauen Box?","Green","Blue","J","affirmation","match","gesture","yes","HeadNod","male","gesture-speech","1280","800","firefox","60","Windows 10","20","male","right","Tue Oct 22 2024 17:35:21 GMT+0200 (Mitteleuropäische Sommerzeit)","1","54","0","1729613950224"
"1388","f","SpeechGestureMatch","../RequiredFiles/videos/JaKopfJa_m.mp4","Ist der Ball in der grünen Box?","Green","Blue","F","affirmation","match","gesture","yes","HeadNod","male","gesture-speech","1280","800","firefox","60","Windows 10","20","male","right","Tue Oct 22 2024 17:35:28 GMT+0200 (Mitteleuropäische Sommerzeit)","1","55","0","1729613950224"
"1168","j","SpeechGestureMatch","../RequiredFiles/videos/NeinKopfJa_f.mp4","Ist der Ball in der blauen Box?","Green","Blue","J","affirmation","mismatch","gesture","no","HeadNod","female","gesture-speech","1280","800","firefox","60","Windows 10","20","male","right","Tue Oct 22 2024 17:35:35 GMT+0200 (Mitteleuropäische Sommerzeit)","1","56","0","1729613950224"
"973","f","SpeechGestureMatch","../RequiredFiles/videos/JaKopfJa_f_no_sound.mp4","Ist der Ball in der blauen Box?","Blue","Green","F","affirmation","na","gesture","na","HeadNod","female","gesture-speech","1280","800","firefox","60","Windows 10","20","male","right","Tue Oct 22 2024 17:35:41 GMT+0200 (Mitteleuropäische Sommerzeit)","1","57","0","1729613950224"
"1282","f","SpeechGestureMatch","../RequiredFiles/videos/JaKopfNein_m.mp4","Ist der Ball in der blauen Box?","Green","Blue","F","negation","mismatch","gesture","yes","HeadShake","male","gesture-speech","1280","800","firefox","60","Windows 10","20","male","right","Tue Oct 22 2024 17:35:48 GMT+0200 (Mitteleuropäische Sommerzeit)","1","58","0","1729613950224"
"1145","f","SpeechGestureMatch","../RequiredFiles/videos/JaKopfNein_m.mp4","Ist der Ball in der grünen Box?","Blue","Green","F","negation","mismatch","gesture","yes","HeadShake","male","gesture-speech","1280","800","firefox","60","Windows 10","20","male","right","Tue Oct 22 2024 17:35:55 GMT+0200 (Mitteleuropäische Sommerzeit)","1","59","0","1729613950224"
"1295","f","SpeechGestureMatch","../RequiredFiles/videos/JaKopfNein_m_no_sound.mp4","Ist der Ball in der grünen Box?","Blue","Green","F","negation","na","gesture","na","HeadShake","male","gesture-speech","1280","800","firefox","60","Windows 10","20","male","right","Tue Oct 22 2024 17:36:02 GMT+0200 (Mitteleuropäische Sommerzeit)","1","60","0","1729613950224"
"1375","f","SpeechGestureMatch","../RequiredFiles/videos/NeinKopfNein_f.mp4","Ist der Ball in der grünen Box?","Blue","Green","F","negation","match","gesture","no","HeadShake","female","gesture-speech","1280","800","firefox","60","Windows 10","20","male","right","Tue Oct 22 2024 17:36:09 GMT+0200 (Mitteleuropäische Sommerzeit)","1","61","0","1729613950224"
"1547","f","SpeechGestureMatch","../RequiredFiles/videos/JaKopfNein_f.mp4","Ist der Ball in der grünen Box?","Blue","Green","F","negation","mismatch","gesture","yes","HeadShake","female","gesture-speech","1280","800","firefox","60","Windows 10","20","male","right","Tue Oct 22 2024 17:36:16 GMT+0200 (Mitteleuropäische Sommerzeit)","1","62","0","1729613950224"
"1856","j","SpeechGestureMatch","../RequiredFiles/videos/JaKopfNein_m.mp4","Ist der Ball in der grünen Box?","Green","Blue","J","negation","mismatch","gesture","yes","HeadShake","male","gesture-speech","1280","800","firefox","60","Windows 10","20","male","right","Tue Oct 22 2024 17:36:24 GMT+0200 (Mitteleuropäische Sommerzeit)","1","63","0","1729613950224"
"1149","f","SpeechGestureMatch","../RequiredFiles/videos/JaKopfJa_m.mp4","Ist der Ball in der grünen Box?","Green","Blue","F","affirmation","match","gesture","yes","HeadNod","male","gesture-speech","1280","800","firefox","60","Windows 10","20","male","right","Tue Oct 22 2024 17:36:30 GMT+0200 (Mitteleuropäische Sommerzeit)","1","64","0","1729613950224"
"1119","j","SpeechGestureMatch","../RequiredFiles/videos/NeinKopfNein_m.mp4","Ist der Ball in der blauen Box?","Green","Blue","F","negation","match","gesture","no","HeadShake","male","gesture-speech","1280","800","firefox","60","Windows 10","20","male","right","Tue Oct 22 2024 17:36:37 GMT+0200 (Mitteleuropäische Sommerzeit)","1","65","1","1729613950224"
"1117","j","SpeechGestureMatch","../RequiredFiles/videos/JaKopfNein_f.mp4","Ist der Ball in der blauen Box?","Blue","Green","J","negation","mismatch","gesture","yes","HeadShake","female","gesture-speech","1280","800","firefox","60","Windows 10","20","male","right","Tue Oct 22 2024 17:36:44 GMT+0200 (Mitteleuropäische Sommerzeit)","1","66","0","1729613950224"
"1003","j","SpeechGestureMatch","../RequiredFiles/videos/JaKopfJa_m.mp4","Ist der Ball in der grünen Box?","Blue","Green","J","affirmation","match","gesture","yes","HeadNod","male","gesture-speech","1280","800","firefox","60","Windows 10","20","male","right","Tue Oct 22 2024 17:36:50 GMT+0200 (Mitteleuropäische Sommerzeit)","1","67","0","1729613950224"
"994","j","SpeechGestureMatch","../RequiredFiles/videos/JaKopfJa_f.mp4","Ist der Ball in der grünen Box?","Blue","Green","J","affirmation","match","gesture","yes","HeadNod","female","gesture-speech","1280","800","firefox","60","Windows 10","20","male","right","Tue Oct 22 2024 17:36:57 GMT+0200 (Mitteleuropäische Sommerzeit)","1","68","0","1729613950224"
"1529","f","SpeechGestureMatch","../RequiredFiles/videos/JaKopfNein_m.mp4","Ist der Ball in der grünen Box?","Blue","Green","F","negation","mismatch","gesture","yes","HeadShake","male","gesture-speech","1280","800","firefox","60","Windows 10","20","male","right","Tue Oct 22 2024 17:37:04 GMT+0200 (Mitteleuropäische Sommerzeit)","1","69","0","1729613950224"
"1724","f","SpeechGestureMatch","../RequiredFiles/videos/NeinKopfNein_m.mp4","Ist der Ball in der grünen Box?","Blue","Green","F","negation","match","gesture","no","HeadShake","male","gesture-speech","1280","800","firefox","60","Windows 10","20","male","right","Tue Oct 22 2024 17:37:11 GMT+0200 (Mitteleuropäische Sommerzeit)","1","70","0","1729613950224"
"1421","f","SpeechGestureMatch","../RequiredFiles/videos/NeinKopfNein_m.mp4","Ist der Ball in der grünen Box?","Blue","Green","F","negation","match","gesture","no","HeadShake","male","gesture-speech","1280","800","firefox","60","Windows 10","20","male","right","Tue Oct 22 2024 17:37:18 GMT+0200 (Mitteleuropäische Sommerzeit)","1","71","0","1729613950224"
"1421","j","SpeechGestureMatch","../RequiredFiles/videos/NeinKopfJa_m.mp4","Ist der Ball in der blauen Box?","Green","Blue","J","affirmation","mismatch","gesture","no","HeadNod","male","gesture-speech","1280","800","firefox","60","Windows 10","20","male","right","Tue Oct 22 2024 17:37:25 GMT+0200 (Mitteleuropäische Sommerzeit)","1","72","0","1729613950224"
"980","j","SpeechGestureMatch","../RequiredFiles/videos/JaKopfJa_f.mp4","Ist der Ball in der blauen Box?","Green","Blue","J","affirmation","match","gesture","yes","HeadNod","female","gesture-speech","1280","800","firefox","60","Windows 10","20","male","right","Tue Oct 22 2024 17:37:32 GMT+0200 (Mitteleuropäische Sommerzeit)","1","73","0","1729613950224"
"777","f","SpeechGestureMatch","../RequiredFiles/videos/NeinKopfJa_m_no_sound.mp4","Ist der Ball in der grünen Box?","Green","Blue","F","affirmation","na","gesture","na","HeadNod","male","gesture-speech","1280","800","firefox","60","Windows 10","20","male","right","Tue Oct 22 2024 17:37:38 GMT+0200 (Mitteleuropäische Sommerzeit)","1","74","0","1729613950224"
"958","j","SpeechGestureMatch","../RequiredFiles/videos/NeinKopfJa_m.mp4","Ist der Ball in der grünen Box?","Blue","Green","J","affirmation","mismatch","gesture","no","HeadNod","male","gesture-speech","1280","800","firefox","60","Windows 10","20","male","right","Tue Oct 22 2024 17:37:45 GMT+0200 (Mitteleuropäische Sommerzeit)","1","75","0","1729613950224"
"1964","j","SpeechGestureMatch","../RequiredFiles/videos/NeinKopfJa_m.mp4","Ist der Ball in der grünen Box?","Blue","Green","J","affirmation","mismatch","gesture","no","HeadNod","male","gesture-speech","1280","800","firefox","60","Windows 10","20","male","right","Tue Oct 22 2024 17:37:52 GMT+0200 (Mitteleuropäische Sommerzeit)","1","76","0","1729613950224"
"2553","j","SpeechGestureMatch","../RequiredFiles/videos/NeinKopfNein_m.mp4","Ist der Ball in der blauen Box?","Blue","Green","J","negation","match","gesture","no","HeadShake","male","gesture-speech","1280","800","firefox","60","Windows 10","20","male","right","Tue Oct 22 2024 17:38:00 GMT+0200 (Mitteleuropäische Sommerzeit)","1","77","0","1729613950224"
"1225","f","SpeechGestureMatch","../RequiredFiles/videos/JaKopfNein_f_no_sound.mp4","Ist der Ball in der blauen Box?","Green","Blue","F","negation","na","gesture","na","HeadShake","female","gesture-speech","1280","800","firefox","60","Windows 10","20","male","right","Tue Oct 22 2024 17:38:07 GMT+0200 (Mitteleuropäische Sommerzeit)","1","78","0","1729613950224"
"928","f","SpeechGestureMatch","../RequiredFiles/videos/JaKopfJa_f_no_sound.mp4","Ist der Ball in der grünen Box?","Green","Blue","F","affirmation","na","gesture","na","HeadNod","female","gesture-speech","1280","800","firefox","60","Windows 10","20","male","right","Tue Oct 22 2024 17:38:13 GMT+0200 (Mitteleuropäische Sommerzeit)","1","79","0","1729613950224"
"1326","f","SpeechGestureMatch","../RequiredFiles/videos/NeinKopfJa_f.mp4","Ist der Ball in der grünen Box?","Green","Blue","F","affirmation","mismatch","gesture","no","HeadNod","female","gesture-speech","1280","800","firefox","60","Windows 10","20","male","right","Tue Oct 22 2024 17:38:20 GMT+0200 (Mitteleuropäische Sommerzeit)","1","80","0","1729613950224"
"1153","j","SpeechGestureMatch","../RequiredFiles/videos/JaKopfJa_m_no_sound.mp4","Ist der Ball in der blauen Box?","Green","Blue","J","affirmation","na","gesture","na","HeadNod","male","gesture-speech","1280","800","firefox","60","Windows 10","20","male","right","Tue Oct 22 2024 17:38:27 GMT+0200 (Mitteleuropäische Sommerzeit)","1","81","0","1729613950224"
"1066","j","SpeechGestureMatch","../RequiredFiles/videos/JaKopfJa_m.mp4","Ist der Ball in der grünen Box?","Blue","Green","J","affirmation","match","gesture","yes","HeadNod","male","gesture-speech","1280","800","firefox","60","Windows 10","20","male","right","Tue Oct 22 2024 17:38:34 GMT+0200 (Mitteleuropäische Sommerzeit)","1","82","0","1729613950224"
"845","f","SpeechGestureMatch","../RequiredFiles/videos/NeinKopfJa_f_no_sound.mp4","Ist der Ball in der blauen Box?","Blue","Green","F","affirmation","na","gesture","na","HeadNod","female","gesture-speech","1280","800","firefox","60","Windows 10","20","male","right","Tue Oct 22 2024 17:38:40 GMT+0200 (Mitteleuropäische Sommerzeit)","1","83","0","1729613950224"
"1096","j","SpeechGestureMatch","../RequiredFiles/videos/NeinKopfNein_m.mp4","Ist der Ball in der grünen Box?","Green","Blue","J","negation","match","gesture","no","HeadShake","male","gesture-speech","1280","800","firefox","60","Windows 10","20","male","right","Tue Oct 22 2024 17:38:47 GMT+0200 (Mitteleuropäische Sommerzeit)","1","84","0","1729613950224"
"1104","f","SpeechGestureMatch","../RequiredFiles/videos/JaKopfJa_f.mp4","Ist der Ball in der grünen Box?","Green","Blue","F","affirmation","match","gesture","yes","HeadNod","female","gesture-speech","1280","800","firefox","60","Windows 10","20","male","right","Tue Oct 22 2024 17:38:54 GMT+0200 (Mitteleuropäische Sommerzeit)","1","85","0","1729613950224"
"1039","j","SpeechGestureMatch","../RequiredFiles/videos/JaKopfNein_m.mp4","Ist der Ball in der grünen Box?","Green","Blue","J","negation","mismatch","gesture","yes","HeadShake","male","gesture-speech","1280","800","firefox","60","Windows 10","20","male","right","Tue Oct 22 2024 17:39:00 GMT+0200 (Mitteleuropäische Sommerzeit)","1","86","0","1729613950224"
"1210","f","SpeechGestureMatch","../RequiredFiles/videos/JaKopfJa_f.mp4","Ist der Ball in der blauen Box?","Green","Blue","J","affirmation","match","gesture","yes","HeadNod","female","gesture-speech","1280","800","firefox","60","Windows 10","20","male","right","Tue Oct 22 2024 17:39:07 GMT+0200 (Mitteleuropäische Sommerzeit)","1","87","1","1729613950224"
"2175","f","SpeechGestureMatch","../RequiredFiles/videos/NeinKopfNein_m.mp4","Ist der Ball in der blauen Box?","Green","Blue","F","negation","match","gesture","no","HeadShake","male","gesture-speech","1280","800","firefox","60","Windows 10","20","male","right","Tue Oct 22 2024 17:39:15 GMT+0200 (Mitteleuropäische Sommerzeit)","1","88","0","1729613950224"
"1196","f","SpeechGestureMatch","../RequiredFiles/videos/JaKopfJa_m.mp4","Ist der Ball in der blauen Box?","Blue","Green","F","affirmation","match","gesture","yes","HeadNod","male","gesture-speech","1280","800","firefox","60","Windows 10","20","male","right","Tue Oct 22 2024 17:39:21 GMT+0200 (Mitteleuropäische Sommerzeit)","1","89","0","1729613950224"
"1229","f","SpeechGestureMatch","../RequiredFiles/videos/JaKopfNein_f.mp4","Ist der Ball in der blauen Box?","Green","Blue","F","negation","mismatch","gesture","yes","HeadShake","female","gesture-speech","1280","800","firefox","60","Windows 10","20","male","right","Tue Oct 22 2024 17:39:28 GMT+0200 (Mitteleuropäische Sommerzeit)","1","90","0","1729613950224"
"976","j","SpeechGestureMatch","../RequiredFiles/videos/JaKopfJa_f_no_sound.mp4","Ist der Ball in der grünen Box?","Blue","Green","J","affirmation","na","gesture","na","HeadNod","female","gesture-speech","1280","800","firefox","60","Windows 10","20","male","right","Tue Oct 22 2024 17:39:35 GMT+0200 (Mitteleuropäische Sommerzeit)","1","91","0","1729613950224"
"1149","j","SpeechGestureMatch","../RequiredFiles/videos/NeinKopfNein_f_no_sound.mp4","Ist der Ball in der blauen Box?","Blue","Green","J","negation","na","gesture","na","HeadShake","female","gesture-speech","1280","800","firefox","60","Windows 10","20","male","right","Tue Oct 22 2024 17:39:41 GMT+0200 (Mitteleuropäische Sommerzeit)","1","92","0","1729613950224"
"1545","j","SpeechGestureMatch","../RequiredFiles/videos/JaKopfNein_f.mp4","Ist der Ball in der grünen Box?","Green","Blue","J","negation","mismatch","gesture","yes","HeadShake","female","gesture-speech","1280","800","firefox","60","Windows 10","20","male","right","Tue Oct 22 2024 17:39:49 GMT+0200 (Mitteleuropäische Sommerzeit)","1","93","0","1729613950224"
"2440","j","SpeechGestureMatch","../RequiredFiles/videos/NeinKopfNein_f_no_sound.mp4","Ist der Ball in der blauen Box?","Green","Blue","F","negation","na","gesture","na","HeadShake","female","gesture-speech","1280","800","firefox","60","Windows 10","20","male","right","Tue Oct 22 2024 17:39:57 GMT+0200 (Mitteleuropäische Sommerzeit)","1","94","1","1729613950224"
"1013","j","SpeechGestureMatch","../RequiredFiles/videos/JaKopfNein_f_no_sound.mp4","Ist der Ball in der grünen Box?","Green","Blue","J","negation","na","gesture","na","HeadShake","female","gesture-speech","1280","800","firefox","60","Windows 10","20","male","right","Tue Oct 22 2024 17:40:03 GMT+0200 (Mitteleuropäische Sommerzeit)","1","95","0","1729613950224"
"1550","f","SpeechGestureMatch","../RequiredFiles/videos/NeinKopfJa_f.mp4","Ist der Ball in der blauen Box?","Blue","Green","F","affirmation","mismatch","gesture","no","HeadNod","female","gesture-speech","1280","800","firefox","60","Windows 10","20","male","right","Tue Oct 22 2024 17:40:10 GMT+0200 (Mitteleuropäische Sommerzeit)","1","96","0","1729613950224"
"1225","f","SpeechGestureMatch","../RequiredFiles/videos/NeinKopfJa_m_no_sound.mp4","Ist der Ball in der grünen Box?","Green","Blue","F","affirmation","na","gesture","na","HeadNod","male","gesture-speech","1280","800","firefox","60","Windows 10","20","male","right","Tue Oct 22 2024 17:40:31 GMT+0200 (Mitteleuropäische Sommerzeit)","2","1","0","1729613950224"
"790","f","SpeechGestureMatch","../RequiredFiles/videos/JaKopfJa_m_no_sound.mp4","Ist der Ball in der blauen Box?","Blue","Green","F","affirmation","na","gesture","na","HeadNod","male","gesture-speech","1280","800","firefox","60","Windows 10","20","male","right","Tue Oct 22 2024 17:40:38 GMT+0200 (Mitteleuropäische Sommerzeit)","2","2","0","1729613950224"
"1535","f","SpeechGestureMatch","../RequiredFiles/videos/NeinKopfJa_f.mp4","Ist der Ball in der grünen Box?","Blue","Green","J","affirmation","mismatch","gesture","no","HeadNod","female","gesture-speech","1280","800","firefox","60","Windows 10","20","male","right","Tue Oct 22 2024 17:40:45 GMT+0200 (Mitteleuropäische Sommerzeit)","2","3","1","1729613950224"
"1469","f","SpeechGestureMatch","../RequiredFiles/videos/JaKopfNein_m.mp4","Ist der Ball in der grünen Box?","Blue","Green","F","negation","mismatch","gesture","yes","HeadShake","male","gesture-speech","1280","800","firefox","60","Windows 10","20","male","right","Tue Oct 22 2024 17:40:52 GMT+0200 (Mitteleuropäische Sommerzeit)","2","4","0","1729613950224"
"1123","j","SpeechGestureMatch","../RequiredFiles/videos/JaKopfJa_m.mp4","Ist der Ball in der blauen Box?","Green","Blue","J","affirmation","match","gesture","yes","HeadNod","male","gesture-speech","1280","800","firefox","60","Windows 10","20","male","right","Tue Oct 22 2024 17:40:59 GMT+0200 (Mitteleuropäische Sommerzeit)","2","5","0","1729613950224"
"1238","j","SpeechGestureMatch","../RequiredFiles/videos/JaKopfJa_f_no_sound.mp4","Ist der Ball in der blauen Box?","Green","Blue","J","affirmation","na","gesture","na","HeadNod","female","gesture-speech","1280","800","firefox","60","Windows 10","20","male","right","Tue Oct 22 2024 17:41:06 GMT+0200 (Mitteleuropäische Sommerzeit)","2","6","0","1729613950224"
"1312","j","SpeechGestureMatch","../RequiredFiles/videos/NeinKopfNein_f_no_sound.mp4","Ist der Ball in der blauen Box?","Blue","Green","J","negation","na","gesture","na","HeadShake","female","gesture-speech","1280","800","firefox","60","Windows 10","20","male","right","Tue Oct 22 2024 17:41:13 GMT+0200 (Mitteleuropäische Sommerzeit)","2","7","0","1729613950224"
"1188","f","SpeechGestureMatch","../RequiredFiles/videos/JaKopfNein_f.mp4","Ist der Ball in der grünen Box?","Blue","Green","F","negation","mismatch","gesture","yes","HeadShake","female","gesture-speech","1280","800","firefox","60","Windows 10","20","male","right","Tue Oct 22 2024 17:41:19 GMT+0200 (Mitteleuropäische Sommerzeit)","2","8","0","1729613950224"
"1890","j","SpeechGestureMatch","../RequiredFiles/videos/JaKopfJa_f.mp4","Ist der Ball in der grünen Box?","Green","Blue","F","affirmation","match","gesture","yes","HeadNod","female","gesture-speech","1280","800","firefox","60","Windows 10","20","male","right","Tue Oct 22 2024 17:41:27 GMT+0200 (Mitteleuropäische Sommerzeit)","2","9","1","1729613950224"
"1605","j","SpeechGestureMatch","../RequiredFiles/videos/JaKopfNein_f.mp4","Ist der Ball in der blauen Box?","Blue","Green","J","negation","mismatch","gesture","yes","HeadShake","female","gesture-speech","1280","800","firefox","60","Windows 10","20","male","right","Tue Oct 22 2024 17:41:34 GMT+0200 (Mitteleuropäische Sommerzeit)","2","10","0","1729613950224"
"1824","j","SpeechGestureMatch","../RequiredFiles/videos/NeinKopfNein_m.mp4","Ist der Ball in der blauen Box?","Blue","Green","J","negation","match","gesture","no","HeadShake","male","gesture-speech","1280","800","firefox","60","Windows 10","20","male","right","Tue Oct 22 2024 17:41:41 GMT+0200 (Mitteleuropäische Sommerzeit)","2","11","0","1729613950224"
"969","j","SpeechGestureMatch","../RequiredFiles/videos/JaKopfNein_f_no_sound.mp4","Ist der Ball in der blauen Box?","Blue","Green","J","negation","na","gesture","na","HeadShake","female","gesture-speech","1280","800","firefox","60","Windows 10","20","male","right","Tue Oct 22 2024 17:41:48 GMT+0200 (Mitteleuropäische Sommerzeit)","2","12","0","1729613950224"
"1484","j","SpeechGestureMatch","../RequiredFiles/videos/JaKopfNein_m_no_sound.mp4","Ist der Ball in der grünen Box?","Green","Blue","J","negation","na","gesture","na","HeadShake","male","gesture-speech","1280","800","firefox","60","Windows 10","20","male","right","Tue Oct 22 2024 17:41:55 GMT+0200 (Mitteleuropäische Sommerzeit)","2","13","0","1729613950224"
"1044","j","SpeechGestureMatch","../RequiredFiles/videos/NeinKopfJa_m.mp4","Ist der Ball in der blauen Box?","Green","Blue","J","affirmation","mismatch","gesture","no","HeadNod","male","gesture-speech","1280","800","firefox","60","Windows 10","20","male","right","Tue Oct 22 2024 17:42:02 GMT+0200 (Mitteleuropäische Sommerzeit)","2","14","0","1729613950224"
"1037","f","SpeechGestureMatch","../RequiredFiles/videos/JaKopfJa_f_no_sound.mp4","Ist der Ball in der grünen Box?","Green","Blue","F","affirmation","na","gesture","na","HeadNod","female","gesture-speech","1280","800","firefox","60","Windows 10","20","male","right","Tue Oct 22 2024 17:42:08 GMT+0200 (Mitteleuropäische Sommerzeit)","2","15","0","1729613950224"
"1235","j","SpeechGestureMatch","../RequiredFiles/videos/NeinKopfNein_f.mp4","Ist der Ball in der grünen Box?","Blue","Green","F","negation","match","gesture","no","HeadShake","female","gesture-speech","1280","800","firefox","60","Windows 10","20","male","right","Tue Oct 22 2024 17:42:15 GMT+0200 (Mitteleuropäische Sommerzeit)","2","16","1","1729613950224"
"855","j","SpeechGestureMatch","../RequiredFiles/videos/JaKopfJa_f_no_sound.mp4","Ist der Ball in der grünen Box?","Blue","Green","J","affirmation","na","gesture","na","HeadNod","female","gesture-speech","1280","800","firefox","60","Windows 10","20","male","right","Tue Oct 22 2024 17:42:21 GMT+0200 (Mitteleuropäische Sommerzeit)","2","17","0","1729613950224"
"1730","j","SpeechGestureMatch","../RequiredFiles/videos/NeinKopfNein_f.mp4","Ist der Ball in der blauen Box?","Blue","Green","J","negation","match","gesture","no","HeadShake","female","gesture-speech","1280","800","firefox","60","Windows 10","20","male","right","Tue Oct 22 2024 17:42:29 GMT+0200 (Mitteleuropäische Sommerzeit)","2","18","0","1729613950224"
"1165","f","SpeechGestureMatch","../RequiredFiles/videos/NeinKopfJa_m.mp4","Ist der Ball in der grünen Box?","Green","Blue","F","affirmation","mismatch","gesture","no","HeadNod","male","gesture-speech","1280","800","firefox","60","Windows 10","20","male","right","Tue Oct 22 2024 17:42:35 GMT+0200 (Mitteleuropäische Sommerzeit)","2","19","0","1729613950224"
"851","f","SpeechGestureMatch","../RequiredFiles/videos/NeinKopfJa_f_no_sound.mp4","Ist der Ball in der blauen Box?","Blue","Green","F","affirmation","na","gesture","na","HeadNod","female","gesture-speech","1280","800","firefox","60","Windows 10","20","male","right","Tue Oct 22 2024 17:42:42 GMT+0200 (Mitteleuropäische Sommerzeit)","2","20","0","1729613950224"
"1153","j","SpeechGestureMatch","../RequiredFiles/videos/JaKopfJa_m.mp4","Ist der Ball in der grünen Box?","Blue","Green","J","affirmation","match","gesture","yes","HeadNod","male","gesture-speech","1280","800","firefox","60","Windows 10","20","male","right","Tue Oct 22 2024 17:42:49 GMT+0200 (Mitteleuropäische Sommerzeit)","2","21","0","1729613950224"
"1334","f","SpeechGestureMatch","../RequiredFiles/videos/JaKopfNein_f.mp4","Ist der Ball in der blauen Box?","Green","Blue","F","negation","mismatch","gesture","yes","HeadShake","female","gesture-speech","1280","800","firefox","60","Windows 10","20","male","right","Tue Oct 22 2024 17:42:56 GMT+0200 (Mitteleuropäische Sommerzeit)","2","22","0","1729613950224"
"1009","j","SpeechGestureMatch","../RequiredFiles/videos/JaKopfJa_f.mp4","Ist der Ball in der grünen Box?","Blue","Green","J","affirmation","match","gesture","yes","HeadNod","female","gesture-speech","1280","800","firefox","60","Windows 10","20","male","right","Tue Oct 22 2024 17:43:02 GMT+0200 (Mitteleuropäische Sommerzeit)","2","23","0","1729613950224"
"1207","f","SpeechGestureMatch","../RequiredFiles/videos/NeinKopfNein_f.mp4","Ist der Ball in der grünen Box?","Blue","Green","F","negation","match","gesture","no","HeadShake","female","gesture-speech","1280","800","firefox","60","Windows 10","20","male","right","Tue Oct 22 2024 17:43:09 GMT+0200 (Mitteleuropäische Sommerzeit)","2","24","0","1729613950224"
"944","f","SpeechGestureMatch","../RequiredFiles/videos/NeinKopfJa_f_no_sound.mp4","Ist der Ball in der grünen Box?","Green","Blue","F","affirmation","na","gesture","na","HeadNod","female","gesture-speech","1280","800","firefox","60","Windows 10","20","male","right","Tue Oct 22 2024 17:43:16 GMT+0200 (Mitteleuropäische Sommerzeit)","2","25","0","1729613950224"
"1193","f","SpeechGestureMatch","../RequiredFiles/videos/JaKopfNein_m_no_sound.mp4","Ist der Ball in der blauen Box?","Green","Blue","F","negation","na","gesture","na","HeadShake","male","gesture-speech","1280","800","firefox","60","Windows 10","20","male","right","Tue Oct 22 2024 17:43:23 GMT+0200 (Mitteleuropäische Sommerzeit)","2","26","0","1729613950224"
"1029","f","SpeechGestureMatch","../RequiredFiles/videos/NeinKopfNein_m_no_sound.mp4","Ist der Ball in der grünen Box?","Blue","Green","F","negation","na","gesture","na","HeadShake","male","gesture-speech","1280","800","firefox","60","Windows 10","20","male","right","Tue Oct 22 2024 17:43:29 GMT+0200 (Mitteleuropäische Sommerzeit)","2","27","0","1729613950224"
"1150","f","SpeechGestureMatch","../RequiredFiles/videos/JaKopfNein_f.mp4","Ist der Ball in der grünen Box?","Blue","Green","F","negation","mismatch","gesture","yes","HeadShake","female","gesture-speech","1280","800","firefox","60","Windows 10","20","male","right","Tue Oct 22 2024 17:43:36 GMT+0200 (Mitteleuropäische Sommerzeit)","2","28","0","1729613950224"
"1166","f","SpeechGestureMatch","../RequiredFiles/videos/JaKopfNein_m.mp4","Ist der Ball in der grünen Box?","Blue","Green","F","negation","mismatch","gesture","yes","HeadShake","male","gesture-speech","1280","800","firefox","60","Windows 10","20","male","right","Tue Oct 22 2024 17:43:43 GMT+0200 (Mitteleuropäische Sommerzeit)","2","29","0","1729613950224"
"1367","j","SpeechGestureMatch","../RequiredFiles/videos/NeinKopfNein_m_no_sound.mp4","Ist der Ball in der grünen Box?","Green","Blue","J","negation","na","gesture","na","HeadShake","male","gesture-speech","1280","800","firefox","60","Windows 10","20","male","right","Tue Oct 22 2024 17:43:49 GMT+0200 (Mitteleuropäische Sommerzeit)","2","30","0","1729613950224"
"1271","f","SpeechGestureMatch","../RequiredFiles/videos/JaKopfNein_m.mp4","Ist der Ball in der blauen Box?","Green","Blue","F","negation","mismatch","gesture","yes","HeadShake","male","gesture-speech","1280","800","firefox","60","Windows 10","20","male","right","Tue Oct 22 2024 17:43:56 GMT+0200 (Mitteleuropäische Sommerzeit)","2","31","0","1729613950224"
"1185","j","SpeechGestureMatch","../RequiredFiles/videos/JaKopfJa_m.mp4","Ist der Ball in der blauen Box?","Green","Blue","J","affirmation","match","gesture","yes","HeadNod","male","gesture-speech","1280","800","firefox","60","Windows 10","20","male","right","Tue Oct 22 2024 17:44:03 GMT+0200 (Mitteleuropäische Sommerzeit)","2","32","0","1729613950224"
"948","f","SpeechGestureMatch","../RequiredFiles/videos/NeinKopfJa_m.mp4","Ist der Ball in der grünen Box?","Green","Blue","F","affirmation","mismatch","gesture","no","HeadNod","male","gesture-speech","1280","800","firefox","60","Windows 10","20","male","right","Tue Oct 22 2024 17:44:10 GMT+0200 (Mitteleuropäische Sommerzeit)","2","33","0","1729613950224"
"1089","f","SpeechGestureMatch","../RequiredFiles/videos/JaKopfJa_m.mp4","Ist der Ball in der blauen Box?","Blue","Green","F","affirmation","match","gesture","yes","HeadNod","male","gesture-speech","1280","800","firefox","60","Windows 10","20","male","right","Tue Oct 22 2024 17:44:16 GMT+0200 (Mitteleuropäische Sommerzeit)","2","34","0","1729613950224"
"1150","f","SpeechGestureMatch","../RequiredFiles/videos/JaKopfJa_f.mp4","Ist der Ball in der blauen Box?","Blue","Green","F","affirmation","match","gesture","yes","HeadNod","female","gesture-speech","1280","800","firefox","60","Windows 10","20","male","right","Tue Oct 22 2024 17:44:23 GMT+0200 (Mitteleuropäische Sommerzeit)","2","35","0","1729613950224"
"1017","j","SpeechGestureMatch","../RequiredFiles/videos/NeinKopfNein_m_no_sound.mp4","Ist der Ball in der blauen Box?","Blue","Green","J","negation","na","gesture","na","HeadShake","male","gesture-speech","1280","800","firefox","60","Windows 10","20","male","right","Tue Oct 22 2024 17:44:30 GMT+0200 (Mitteleuropäische Sommerzeit)","2","36","0","1729613950224"
"1105","j","SpeechGestureMatch","../RequiredFiles/videos/JaKopfNein_f.mp4","Ist der Ball in der grünen Box?","Green","Blue","J","negation","mismatch","gesture","yes","HeadShake","female","gesture-speech","1280","800","firefox","60","Windows 10","20","male","right","Tue Oct 22 2024 17:44:36 GMT+0200 (Mitteleuropäische Sommerzeit)","2","37","0","1729613950224"
"863","j","SpeechGestureMatch","../RequiredFiles/videos/JaKopfJa_m_no_sound.mp4","Ist der Ball in der grünen Box?","Blue","Green","J","affirmation","na","gesture","na","HeadNod","male","gesture-speech","1280","800","firefox","60","Windows 10","20","male","right","Tue Oct 22 2024 17:44:43 GMT+0200 (Mitteleuropäische Sommerzeit)","2","38","0","1729613950224"
"1055","f","SpeechGestureMatch","../RequiredFiles/videos/JaKopfJa_m.mp4","Ist der Ball in der grünen Box?","Green","Blue","F","affirmation","match","gesture","yes","HeadNod","male","gesture-speech","1280","800","firefox","60","Windows 10","20","male","right","Tue Oct 22 2024 17:44:49 GMT+0200 (Mitteleuropäische Sommerzeit)","2","39","0","1729613950224"
"1240","f","SpeechGestureMatch","../RequiredFiles/videos/NeinKopfNein_f_no_sound.mp4","Ist der Ball in der grünen Box?","Blue","Green","F","negation","na","gesture","na","HeadShake","female","gesture-speech","1280","800","firefox","60","Windows 10","20","male","right","Tue Oct 22 2024 17:44:56 GMT+0200 (Mitteleuropäische Sommerzeit)","2","40","0","1729613950224"
"1021","j","SpeechGestureMatch","../RequiredFiles/videos/NeinKopfJa_f_no_sound.mp4","Ist der Ball in der blauen Box?","Green","Blue","J","affirmation","na","gesture","na","HeadNod","female","gesture-speech","1280","800","firefox","60","Windows 10","20","male","right","Tue Oct 22 2024 17:45:03 GMT+0200 (Mitteleuropäische Sommerzeit)","2","41","0","1729613950224"
"980","j","SpeechGestureMatch","../RequiredFiles/videos/JaKopfNein_f_no_sound.mp4","Ist der Ball in der grünen Box?","Green","Blue","J","negation","na","gesture","na","HeadShake","female","gesture-speech","1280","800","firefox","60","Windows 10","20","male","right","Tue Oct 22 2024 17:45:09 GMT+0200 (Mitteleuropäische Sommerzeit)","2","42","0","1729613950224"
"1060","f","SpeechGestureMatch","../RequiredFiles/videos/JaKopfJa_f.mp4","Ist der Ball in der grünen Box?","Green","Blue","F","affirmation","match","gesture","yes","HeadNod","female","gesture-speech","1280","800","firefox","60","Windows 10","20","male","right","Tue Oct 22 2024 17:45:16 GMT+0200 (Mitteleuropäische Sommerzeit)","2","43","0","1729613950224"
"1082","j","SpeechGestureMatch","../RequiredFiles/videos/NeinKopfJa_m.mp4","Ist der Ball in der grünen Box?","Blue","Green","J","affirmation","mismatch","gesture","no","HeadNod","male","gesture-speech","1280","800","firefox","60","Windows 10","20","male","right","Tue Oct 22 2024 17:45:22 GMT+0200 (Mitteleuropäische Sommerzeit)","2","44","0","1729613950224"
"918","f","SpeechGestureMatch","../RequiredFiles/videos/NeinKopfNein_m_no_sound.mp4","Ist der Ball in der blauen Box?","Green","Blue","F","negation","na","gesture","na","HeadShake","male","gesture-speech","1280","800","firefox","60","Windows 10","20","male","right","Tue Oct 22 2024 17:45:29 GMT+0200 (Mitteleuropäische Sommerzeit)","2","45","0","1729613950224"
"871","j","SpeechGestureMatch","../RequiredFiles/videos/NeinKopfJa_m_no_sound.mp4","Ist der Ball in der blauen Box?","Green","Blue","J","affirmation","na","gesture","na","HeadNod","male","gesture-speech","1280","800","firefox","60","Windows 10","20","male","right","Tue Oct 22 2024 17:45:36 GMT+0200 (Mitteleuropäische Sommerzeit)","2","46","0","1729613950224"
"1190","j","SpeechGestureMatch","../RequiredFiles/videos/JaKopfNein_m.mp4","Ist der Ball in der grünen Box?","Green","Blue","J","negation","mismatch","gesture","yes","HeadShake","male","gesture-speech","1280","800","firefox","60","Windows 10","20","male","right","Tue Oct 22 2024 17:45:42 GMT+0200 (Mitteleuropäische Sommerzeit)","2","47","0","1729613950224"
"1138","j","SpeechGestureMatch","../RequiredFiles/videos/NeinKopfJa_m.mp4","Ist der Ball in der blauen Box?","Green","Blue","J","affirmation","mismatch","gesture","no","HeadNod","male","gesture-speech","1280","800","firefox","60","Windows 10","20","male","right","Tue Oct 22 2024 17:45:49 GMT+0200 (Mitteleuropäische Sommerzeit)","2","48","0","1729613950224"
"1228","f","SpeechGestureMatch","../RequiredFiles/videos/JaKopfNein_m_no_sound.mp4","Ist der Ball in der grünen Box?","Blue","Green","F","negation","na","gesture","na","HeadShake","male","gesture-speech","1280","800","firefox","60","Windows 10","20","male","right","Tue Oct 22 2024 17:45:56 GMT+0200 (Mitteleuropäische Sommerzeit)","2","49","0","1729613950224"
"1084","j","SpeechGestureMatch","../RequiredFiles/videos/JaKopfJa_f.mp4","Ist der Ball in der grünen Box?","Blue","Green","J","affirmation","match","gesture","yes","HeadNod","female","gesture-speech","1280","800","firefox","60","Windows 10","20","male","right","Tue Oct 22 2024 17:46:03 GMT+0200 (Mitteleuropäische Sommerzeit)","2","50","0","1729613950224"
"1375","j","SpeechGestureMatch","../RequiredFiles/videos/NeinKopfNein_f.mp4","Ist der Ball in der blauen Box?","Blue","Green","J","negation","match","gesture","no","HeadShake","female","gesture-speech","1280","800","firefox","60","Windows 10","20","male","right","Tue Oct 22 2024 17:46:10 GMT+0200 (Mitteleuropäische Sommerzeit)","2","51","0","1729613950224"
"1223","j","SpeechGestureMatch","../RequiredFiles/videos/JaKopfJa_f.mp4","Ist der Ball in der blauen Box?","Blue","Green","F","affirmation","match","gesture","yes","HeadNod","female","gesture-speech","1280","800","firefox","60","Windows 10","20","male","right","Tue Oct 22 2024 17:46:17 GMT+0200 (Mitteleuropäische Sommerzeit)","2","52","1","1729613950224"
"1044","j","SpeechGestureMatch","../RequiredFiles/videos/JaKopfJa_f.mp4","Ist der Ball in der blauen Box?","Green","Blue","J","affirmation","match","gesture","yes","HeadNod","female","gesture-speech","1280","800","firefox","60","Windows 10","20","male","right","Tue Oct 22 2024 17:46:23 GMT+0200 (Mitteleuropäische Sommerzeit)","2","53","0","1729613950224"
"1215","f","SpeechGestureMatch","../RequiredFiles/videos/JaKopfNein_f.mp4","Ist der Ball in der blauen Box?","Green","Blue","F","negation","mismatch","gesture","yes","HeadShake","female","gesture-speech","1280","800","firefox","60","Windows 10","20","male","right","Tue Oct 22 2024 17:46:30 GMT+0200 (Mitteleuropäische Sommerzeit)","2","54","0","1729613950224"
"1078","f","SpeechGestureMatch","../RequiredFiles/videos/NeinKopfJa_f.mp4","Ist der Ball in der grünen Box?","Green","Blue","F","affirmation","mismatch","gesture","no","HeadNod","female","gesture-speech","1280","800","firefox","60","Windows 10","20","male","right","Tue Oct 22 2024 17:46:37 GMT+0200 (Mitteleuropäische Sommerzeit)","2","55","0","1729613950224"
"886","f","SpeechGestureMatch","../RequiredFiles/videos/NeinKopfJa_m_no_sound.mp4","Ist der Ball in der blauen Box?","Blue","Green","F","affirmation","na","gesture","na","HeadNod","male","gesture-speech","1280","800","firefox","60","Windows 10","20","male","right","Tue Oct 22 2024 17:46:43 GMT+0200 (Mitteleuropäische Sommerzeit)","2","56","0","1729613950224"
"1068","f","SpeechGestureMatch","../RequiredFiles/videos/NeinKopfJa_f.mp4","Ist der Ball in der blauen Box?","Blue","Green","F","affirmation","mismatch","gesture","no","HeadNod","female","gesture-speech","1280","800","firefox","60","Windows 10","20","male","right","Tue Oct 22 2024 17:46:50 GMT+0200 (Mitteleuropäische Sommerzeit)","2","57","0","1729613950224"
"858","f","SpeechGestureMatch","../RequiredFiles/videos/JaKopfJa_f_no_sound.mp4","Ist der Ball in der blauen Box?","Blue","Green","F","affirmation","na","gesture","na","HeadNod","female","gesture-speech","1280","800","firefox","60","Windows 10","20","male","right","Tue Oct 22 2024 17:46:56 GMT+0200 (Mitteleuropäische Sommerzeit)","2","58","0","1729613950224"
"1207","j","SpeechGestureMatch","../RequiredFiles/videos/JaKopfNein_m.mp4","Ist der Ball in der grünen Box?","Green","Blue","J","negation","mismatch","gesture","yes","HeadShake","male","gesture-speech","1280","800","firefox","60","Windows 10","20","male","right","Tue Oct 22 2024 17:47:03 GMT+0200 (Mitteleuropäische Sommerzeit)","2","59","0","1729613950224"
"1150","f","SpeechGestureMatch","../RequiredFiles/videos/JaKopfJa_m.mp4","Ist der Ball in der blauen Box?","Blue","Green","F","affirmation","match","gesture","yes","HeadNod","male","gesture-speech","1280","800","firefox","60","Windows 10","20","male","right","Tue Oct 22 2024 17:47:10 GMT+0200 (Mitteleuropäische Sommerzeit)","2","60","0","1729613950224"
"1018","f","SpeechGestureMatch","../RequiredFiles/videos/NeinKopfNein_m.mp4","Ist der Ball in der blauen Box?","Green","Blue","F","negation","match","gesture","no","HeadShake","male","gesture-speech","1280","800","firefox","60","Windows 10","20","male","right","Tue Oct 22 2024 17:47:16 GMT+0200 (Mitteleuropäische Sommerzeit)","2","61","0","1729613950224"
"1033","f","SpeechGestureMatch","../RequiredFiles/videos/NeinKopfJa_m.mp4","Ist der Ball in der blauen Box?","Blue","Green","F","affirmation","mismatch","gesture","no","HeadNod","male","gesture-speech","1280","800","firefox","60","Windows 10","20","male","right","Tue Oct 22 2024 17:47:23 GMT+0200 (Mitteleuropäische Sommerzeit)","2","62","0","1729613950224"
"891","f","SpeechGestureMatch","../RequiredFiles/videos/NeinKopfNein_f_no_sound.mp4","Ist der Ball in der blauen Box?","Green","Blue","F","negation","na","gesture","na","HeadShake","female","gesture-speech","1280","800","firefox","60","Windows 10","20","male","right","Tue Oct 22 2024 17:47:29 GMT+0200 (Mitteleuropäische Sommerzeit)","2","63","0","1729613950224"
"1301","f","SpeechGestureMatch","../RequiredFiles/videos/JaKopfNein_m.mp4","Ist der Ball in der blauen Box?","Green","Blue","F","negation","mismatch","gesture","yes","HeadShake","male","gesture-speech","1280","800","firefox","60","Windows 10","20","male","right","Tue Oct 22 2024 17:47:36 GMT+0200 (Mitteleuropäische Sommerzeit)","2","64","0","1729613950224"
"1553","j","SpeechGestureMatch","../RequiredFiles/videos/JaKopfNein_f_no_sound.mp4","Ist der Ball in der blauen Box?","Green","Blue","F","negation","na","gesture","na","HeadShake","female","gesture-speech","1280","800","firefox","60","Windows 10","20","male","right","Tue Oct 22 2024 17:47:44 GMT+0200 (Mitteleuropäische Sommerzeit)","2","65","1","1729613950224"
"1422","f","SpeechGestureMatch","../RequiredFiles/videos/JaKopfJa_m.mp4","Ist der Ball in der grünen Box?","Green","Blue","F","affirmation","match","gesture","yes","HeadNod","male","gesture-speech","1280","800","firefox","60","Windows 10","20","male","right","Tue Oct 22 2024 17:47:51 GMT+0200 (Mitteleuropäische Sommerzeit)","2","66","0","1729613950224"
"1117","j","SpeechGestureMatch","../RequiredFiles/videos/JaKopfNein_m_no_sound.mp4","Ist der Ball in der blauen Box?","Blue","Green","J","negation","na","gesture","na","HeadShake","male","gesture-speech","1280","800","firefox","60","Windows 10","20","male","right","Tue Oct 22 2024 17:47:57 GMT+0200 (Mitteleuropäische Sommerzeit)","2","67","0","1729613950224"
"1185","j","SpeechGestureMatch","../RequiredFiles/videos/NeinKopfNein_f.mp4","Ist der Ball in der grünen Box?","Green","Blue","J","negation","match","gesture","no","HeadShake","female","gesture-speech","1280","800","firefox","60","Windows 10","20","male","right","Tue Oct 22 2024 17:48:04 GMT+0200 (Mitteleuropäische Sommerzeit)","2","68","0","1729613950224"
"1238","f","SpeechGestureMatch","../RequiredFiles/videos/JaKopfJa_f.mp4","Ist der Ball in der blauen Box?","Green","Blue","J","affirmation","match","gesture","yes","HeadNod","female","gesture-speech","1280","800","firefox","60","Windows 10","20","male","right","Tue Oct 22 2024 17:48:11 GMT+0200 (Mitteleuropäische Sommerzeit)","2","69","1","1729613950224"
"1031","j","SpeechGestureMatch","../RequiredFiles/videos/JaKopfNein_m.mp4","Ist der Ball in der blauen Box?","Blue","Green","J","negation","mismatch","gesture","yes","HeadShake","male","gesture-speech","1280","800","firefox","60","Windows 10","20","male","right","Tue Oct 22 2024 17:48:17 GMT+0200 (Mitteleuropäische Sommerzeit)","2","70","0","1729613950224"
"896","j","SpeechGestureMatch","../RequiredFiles/videos/JaKopfJa_m_no_sound.mp4","Ist der Ball in der blauen Box?","Green","Blue","J","affirmation","na","gesture","na","HeadNod","male","gesture-speech","1280","800","firefox","60","Windows 10","20","male","right","Tue Oct 22 2024 17:48:24 GMT+0200 (Mitteleuropäische Sommerzeit)","2","71","0","1729613950224"
"1169","j","SpeechGestureMatch","../RequiredFiles/videos/NeinKopfNein_m.mp4","Ist der Ball in der blauen Box?","Blue","Green","J","negation","match","gesture","no","HeadShake","male","gesture-speech","1280","800","firefox","60","Windows 10","20","male","right","Tue Oct 22 2024 17:48:31 GMT+0200 (Mitteleuropäische Sommerzeit)","2","72","0","1729613950224"
"934","f","SpeechGestureMatch","../RequiredFiles/videos/JaKopfJa_m_no_sound.mp4","Ist der Ball in der grünen Box?","Green","Blue","F","affirmation","na","gesture","na","HeadNod","male","gesture-speech","1280","800","firefox","60","Windows 10","20","male","right","Tue Oct 22 2024 17:48:37 GMT+0200 (Mitteleuropäische Sommerzeit)","2","73","0","1729613950224"
"1108","j","SpeechGestureMatch","../RequiredFiles/videos/JaKopfNein_m.mp4","Ist der Ball in der blauen Box?","Blue","Green","J","negation","mismatch","gesture","yes","HeadShake","male","gesture-speech","1280","800","firefox","60","Windows 10","20","male","right","Tue Oct 22 2024 17:48:44 GMT+0200 (Mitteleuropäische Sommerzeit)","2","74","0","1729613950224"
"1149","f","SpeechGestureMatch","../RequiredFiles/videos/NeinKopfNein_f.mp4","Ist der Ball in der blauen Box?","Green","Blue","F","negation","match","gesture","no","HeadShake","female","gesture-speech","1280","800","firefox","60","Windows 10","20","male","right","Tue Oct 22 2024 17:48:51 GMT+0200 (Mitteleuropäische Sommerzeit)","2","75","0","1729613950224"
"1072","f","SpeechGestureMatch","../RequiredFiles/videos/NeinKopfJa_f.mp4","Ist der Ball in der grünen Box?","Green","Blue","F","affirmation","mismatch","gesture","no","HeadNod","female","gesture-speech","1280","800","firefox","60","Windows 10","20","male","right","Tue Oct 22 2024 17:48:57 GMT+0200 (Mitteleuropäische Sommerzeit)","2","76","0","1729613950224"
"1002","f","SpeechGestureMatch","../RequiredFiles/videos/NeinKopfNein_m.mp4","Ist der Ball in der grünen Box?","Blue","Green","F","negation","match","gesture","no","HeadShake","male","gesture-speech","1280","800","firefox","60","Windows 10","20","male","right","Tue Oct 22 2024 17:49:04 GMT+0200 (Mitteleuropäische Sommerzeit)","2","77","0","1729613950224"
"915","j","SpeechGestureMatch","../RequiredFiles/videos/NeinKopfJa_f_no_sound.mp4","Ist der Ball in der grünen Box?","Blue","Green","J","affirmation","na","gesture","na","HeadNod","female","gesture-speech","1280","800","firefox","60","Windows 10","20","male","right","Tue Oct 22 2024 17:49:10 GMT+0200 (Mitteleuropäische Sommerzeit)","2","78","0","1729613950224"
"1188","f","SpeechGestureMatch","../RequiredFiles/videos/NeinKopfNein_f.mp4","Ist der Ball in der blauen Box?","Green","Blue","F","negation","match","gesture","no","HeadShake","female","gesture-speech","1280","800","firefox","60","Windows 10","20","male","right","Tue Oct 22 2024 17:49:17 GMT+0200 (Mitteleuropäische Sommerzeit)","2","79","0","1729613950224"
"795","j","SpeechGestureMatch","../RequiredFiles/videos/NeinKopfJa_m_no_sound.mp4","Ist der Ball in der grünen Box?","Blue","Green","J","affirmation","na","gesture","na","HeadNod","male","gesture-speech","1280","800","firefox","60","Windows 10","20","male","right","Tue Oct 22 2024 17:49:24 GMT+0200 (Mitteleuropäische Sommerzeit)","2","80","0","1729613950224"
"1303","j","SpeechGestureMatch","../RequiredFiles/videos/JaKopfNein_f.mp4","Ist der Ball in der blauen Box?","Blue","Green","J","negation","mismatch","gesture","yes","HeadShake","female","gesture-speech","1280","800","firefox","60","Windows 10","20","male","right","Tue Oct 22 2024 17:49:31 GMT+0200 (Mitteleuropäische Sommerzeit)","2","81","0","1729613950224"
"1063","j","SpeechGestureMatch","../RequiredFiles/videos/JaKopfJa_m.mp4","Ist der Ball in der grünen Box?","Blue","Green","J","affirmation","match","gesture","yes","HeadNod","male","gesture-speech","1280","800","firefox","60","Windows 10","20","male","right","Tue Oct 22 2024 17:49:37 GMT+0200 (Mitteleuropäische Sommerzeit)","2","82","0","1729613950224"
"1066","f","SpeechGestureMatch","../RequiredFiles/videos/NeinKopfNein_m.mp4","Ist der Ball in der blauen Box?","Green","Blue","F","negation","match","gesture","no","HeadShake","male","gesture-speech","1280","800","firefox","60","Windows 10","20","male","right","Tue Oct 22 2024 17:49:44 GMT+0200 (Mitteleuropäische Sommerzeit)","2","83","0","1729613950224"
"1014","j","SpeechGestureMatch","../RequiredFiles/videos/NeinKopfJa_f.mp4","Ist der Ball in der grünen Box?","Blue","Green","J","affirmation","mismatch","gesture","no","HeadNod","female","gesture-speech","1280","800","firefox","60","Windows 10","20","male","right","Tue Oct 22 2024 17:49:51 GMT+0200 (Mitteleuropäische Sommerzeit)","2","84","0","1729613950224"
"1043","j","SpeechGestureMatch","../RequiredFiles/videos/NeinKopfJa_m.mp4","Ist der Ball in der grünen Box?","Blue","Green","J","affirmation","mismatch","gesture","no","HeadNod","male","gesture-speech","1280","800","firefox","60","Windows 10","20","male","right","Tue Oct 22 2024 17:49:57 GMT+0200 (Mitteleuropäische Sommerzeit)","2","85","0","1729613950224"
"1054","j","SpeechGestureMatch","../RequiredFiles/videos/JaKopfNein_f.mp4","Ist der Ball in der grünen Box?","Green","Blue","J","negation","mismatch","gesture","yes","HeadShake","female","gesture-speech","1280","800","firefox","60","Windows 10","20","male","right","Tue Oct 22 2024 17:50:04 GMT+0200 (Mitteleuropäische Sommerzeit)","2","86","0","1729613950224"
"1294","f","SpeechGestureMatch","../RequiredFiles/videos/NeinKopfJa_f.mp4","Ist der Ball in der blauen Box?","Blue","Green","F","affirmation","mismatch","gesture","no","HeadNod","female","gesture-speech","1280","800","firefox","60","Windows 10","20","male","right","Tue Oct 22 2024 17:50:11 GMT+0200 (Mitteleuropäische Sommerzeit)","2","87","0","1729613950224"
"1120","j","SpeechGestureMatch","../RequiredFiles/videos/NeinKopfNein_m.mp4","Ist der Ball in der grünen Box?","Green","Blue","J","negation","match","gesture","no","HeadShake","male","gesture-speech","1280","800","firefox","60","Windows 10","20","male","right","Tue Oct 22 2024 17:50:18 GMT+0200 (Mitteleuropäische Sommerzeit)","2","88","0","1729613950224"
"1059","f","SpeechGestureMatch","../RequiredFiles/videos/JaKopfNein_f_no_sound.mp4","Ist der Ball in der grünen Box?","Blue","Green","F","negation","na","gesture","na","HeadShake","female","gesture-speech","1280","800","firefox","60","Windows 10","20","male","right","Tue Oct 22 2024 17:50:24 GMT+0200 (Mitteleuropäische Sommerzeit)","2","89","0","1729613950224"
"920","j","SpeechGestureMatch","../RequiredFiles/videos/NeinKopfNein_f_no_sound.mp4","Ist der Ball in der grünen Box?","Green","Blue","J","negation","na","gesture","na","HeadShake","female","gesture-speech","1280","800","firefox","60","Windows 10","20","male","right","Tue Oct 22 2024 17:50:31 GMT+0200 (Mitteleuropäische Sommerzeit)","2","90","0","1729613950224"
"1286","j","SpeechGestureMatch","../RequiredFiles/videos/NeinKopfNein_f.mp4","Ist der Ball in der grünen Box?","Green","Blue","J","negation","match","gesture","no","HeadShake","female","gesture-speech","1280","800","firefox","60","Windows 10","20","male","right","Tue Oct 22 2024 17:50:37 GMT+0200 (Mitteleuropäische Sommerzeit)","2","91","0","1729613950224"
"958","j","SpeechGestureMatch","../RequiredFiles/videos/NeinKopfNein_m.mp4","Ist der Ball in der grünen Box?","Green","Blue","J","negation","match","gesture","no","HeadShake","male","gesture-speech","1280","800","firefox","60","Windows 10","20","male","right","Tue Oct 22 2024 17:50:44 GMT+0200 (Mitteleuropäische Sommerzeit)","2","92","0","1729613950224"
"886","j","SpeechGestureMatch","../RequiredFiles/videos/NeinKopfJa_f.mp4","Ist der Ball in der blauen Box?","Green","Blue","J","affirmation","mismatch","gesture","no","HeadNod","female","gesture-speech","1280","800","firefox","60","Windows 10","20","male","right","Tue Oct 22 2024 17:50:51 GMT+0200 (Mitteleuropäische Sommerzeit)","2","93","0","1729613950224"
"1005","f","SpeechGestureMatch","../RequiredFiles/videos/NeinKopfJa_m.mp4","Ist der Ball in der blauen Box?","Blue","Green","F","affirmation","mismatch","gesture","no","HeadNod","male","gesture-speech","1280","800","firefox","60","Windows 10","20","male","right","Tue Oct 22 2024 17:50:57 GMT+0200 (Mitteleuropäische Sommerzeit)","2","94","0","1729613950224"
"1098","f","SpeechGestureMatch","../RequiredFiles/videos/NeinKopfNein_m.mp4","Ist der Ball in der grünen Box?","Blue","Green","F","negation","match","gesture","no","HeadShake","male","gesture-speech","1280","800","firefox","60","Windows 10","20","male","right","Tue Oct 22 2024 17:51:04 GMT+0200 (Mitteleuropäische Sommerzeit)","2","95","0","1729613950224"
"910","j","SpeechGestureMatch","../RequiredFiles/videos/NeinKopfJa_f.mp4","Ist der Ball in der blauen Box?","Green","Blue","J","affirmation","mismatch","gesture","no","HeadNod","female","gesture-speech","1280","800","firefox","60","Windows 10","20","male","right","Tue Oct 22 2024 17:51:10 GMT+0200 (Mitteleuropäische Sommerzeit)","2","96","0","1729613950224"
"1923","f","SpeechGestureMatch","../RequiredFiles/videos/NeinKopfNein_f_no_gesture.mp4","Ist der Ball in der grünen Box?","Blue","Green","F","negation","na","speech","no","na","female","gesture-speech","1280","800","firefox","60","Windows 10","20","male","right","Tue Oct 22 2024 17:54:47 GMT+0200 (Mitteleuropäische Sommerzeit)","3","1","0","1729613950224"
"1828","f","SpeechGestureMatch","../RequiredFiles/videos/NeinKopfJa_m.mp4","Ist der Ball in der blauen Box?","Green","Blue","F","negation","mismatch","speech","no","HeadNod","male","gesture-speech","1280","800","firefox","60","Windows 10","20","male","right","Tue Oct 22 2024 17:54:54 GMT+0200 (Mitteleuropäische Sommerzeit)","3","2","0","1729613950224"
"1843","f","SpeechGestureMatch","../RequiredFiles/videos/NeinKopfJa_m.mp4","Ist der Ball in der grünen Box?","Blue","Green","F","negation","mismatch","speech","no","HeadNod","male","gesture-speech","1280","800","firefox","60","Windows 10","20","male","right","Tue Oct 22 2024 17:55:01 GMT+0200 (Mitteleuropäische Sommerzeit)","3","3","0","1729613950224"
"1709","f","SpeechGestureMatch","../RequiredFiles/videos/JaKopfJa_m.mp4","Ist der Ball in der blauen Box?","Blue","Green","F","affirmation","match","speech","yes","HeadNod","male","gesture-speech","1280","800","firefox","60","Windows 10","20","male","right","Tue Oct 22 2024 17:55:09 GMT+0200 (Mitteleuropäische Sommerzeit)","3","4","0","1729613950224"
"1394","f","SpeechGestureMatch","../RequiredFiles/videos/JaKopfNein_m.mp4","Ist der Ball in der grünen Box?","Green","Blue","F","affirmation","mismatch","speech","yes","HeadShake","male","gesture-speech","1280","800","firefox","60","Windows 10","20","male","right","Tue Oct 22 2024 17:55:16 GMT+0200 (Mitteleuropäische Sommerzeit)","3","5","0","1729613950224"
"1251","j","SpeechGestureMatch","../RequiredFiles/videos/JaKopfNein_m.mp4","Ist der Ball in der blauen Box?","Green","Blue","J","affirmation","mismatch","speech","yes","HeadShake","male","gesture-speech","1280","800","firefox","60","Windows 10","20","male","right","Tue Oct 22 2024 17:55:22 GMT+0200 (Mitteleuropäische Sommerzeit)","3","6","0","1729613950224"
"1200","f","SpeechGestureMatch","../RequiredFiles/videos/JaKopfJa_f.mp4","Ist der Ball in der grünen Box?","Green","Blue","F","affirmation","match","speech","yes","HeadNod","female","gesture-speech","1280","800","firefox","60","Windows 10","20","male","right","Tue Oct 22 2024 17:55:29 GMT+0200 (Mitteleuropäische Sommerzeit)","3","7","0","1729613950224"
"1213","j","SpeechGestureMatch","../RequiredFiles/videos/JaKopfJa_m.mp4","Ist der Ball in der blauen Box?","Green","Blue","J","affirmation","match","speech","yes","HeadNod","male","gesture-speech","1280","800","firefox","60","Windows 10","20","male","right","Tue Oct 22 2024 17:55:36 GMT+0200 (Mitteleuropäische Sommerzeit)","3","8","0","1729613950224"
"1100","j","SpeechGestureMatch","../RequiredFiles/videos/JaKopfJa_f.mp4","Ist der Ball in der blauen Box?","Green","Blue","J","affirmation","match","speech","yes","HeadNod","female","gesture-speech","1280","800","firefox","60","Windows 10","20","male","right","Tue Oct 22 2024 17:55:43 GMT+0200 (Mitteleuropäische Sommerzeit)","3","9","0","1729613950224"
"1305","j","SpeechGestureMatch","../RequiredFiles/videos/JaKopfJa_f_no_gesture.mp4","Ist der Ball in der grünen Box?","Blue","Green","J","affirmation","na","speech","yes","na","female","gesture-speech","1280","800","firefox","60","Windows 10","20","male","right","Tue Oct 22 2024 17:55:50 GMT+0200 (Mitteleuropäische Sommerzeit)","3","10","0","1729613950224"
"1489","j","SpeechGestureMatch","../RequiredFiles/videos/JaKopfNein_m_no_gesture.mp4","Ist der Ball in der grünen Box?","Blue","Green","J","affirmation","na","speech","yes","na","male","gesture-speech","1280","800","firefox","60","Windows 10","20","male","right","Tue Oct 22 2024 17:55:57 GMT+0200 (Mitteleuropäische Sommerzeit)","3","11","0","1729613950224"
"1185","j","SpeechGestureMatch","../RequiredFiles/videos/JaKopfJa_m.mp4","Ist der Ball in der grünen Box?","Blue","Green","J","affirmation","match","speech","yes","HeadNod","male","gesture-speech","1280","800","firefox","60","Windows 10","20","male","right","Tue Oct 22 2024 17:56:03 GMT+0200 (Mitteleuropäische Sommerzeit)","3","12","0","1729613950224"
"1247","f","SpeechGestureMatch","../RequiredFiles/videos/JaKopfJa_m.mp4","Ist der Ball in der blauen Box?","Blue","Green","F","affirmation","match","speech","yes","HeadNod","male","gesture-speech","1280","800","firefox","60","Windows 10","20","male","right","Tue Oct 22 2024 17:56:10 GMT+0200 (Mitteleuropäische Sommerzeit)","3","13","0","1729613950224"
"1382","j","SpeechGestureMatch","../RequiredFiles/videos/NeinKopfJa_f.mp4","Ist der Ball in der grünen Box?","Green","Blue","J","negation","mismatch","speech","no","HeadNod","female","gesture-speech","1280","800","firefox","60","Windows 10","20","male","right","Tue Oct 22 2024 17:56:17 GMT+0200 (Mitteleuropäische Sommerzeit)","3","14","0","1729613950224"
"1567","f","SpeechGestureMatch","../RequiredFiles/videos/JaKopfNein_f.mp4","Ist der Ball in der grünen Box?","Green","Blue","F","affirmation","mismatch","speech","yes","HeadShake","female","gesture-speech","1280","800","firefox","60","Windows 10","20","male","right","Tue Oct 22 2024 17:56:24 GMT+0200 (Mitteleuropäische Sommerzeit)","3","15","0","1729613950224"
"1226","f","SpeechGestureMatch","../RequiredFiles/videos/JaKopfJa_f.mp4","Ist der Ball in der blauen Box?","Blue","Green","F","affirmation","match","speech","yes","HeadNod","female","gesture-speech","1280","800","firefox","60","Windows 10","20","male","right","Tue Oct 22 2024 17:56:31 GMT+0200 (Mitteleuropäische Sommerzeit)","3","16","0","1729613950224"
"1484","j","SpeechGestureMatch","../RequiredFiles/videos/NeinKopfJa_m.mp4","Ist der Ball in der blauen Box?","Green","Blue","F","negation","mismatch","speech","no","HeadNod","male","gesture-speech","1280","800","firefox","60","Windows 10","20","male","right","Tue Oct 22 2024 17:56:38 GMT+0200 (Mitteleuropäische Sommerzeit)","3","17","1","1729613950224"
"1417","f","SpeechGestureMatch","../RequiredFiles/videos/NeinKopfNein_m_no_gesture.mp4","Ist der Ball in der blauen Box?","Green","Blue","F","negation","na","speech","no","na","male","gesture-speech","1280","800","firefox","60","Windows 10","20","male","right","Tue Oct 22 2024 17:56:45 GMT+0200 (Mitteleuropäische Sommerzeit)","3","18","0","1729613950224"
"2215","j","SpeechGestureMatch","../RequiredFiles/videos/NeinKopfNein_f.mp4","Ist der Ball in der blauen Box?","Green","Blue","F","negation","match","speech","no","HeadShake","female","gesture-speech","1280","800","firefox","60","Windows 10","20","male","right","Tue Oct 22 2024 17:56:53 GMT+0200 (Mitteleuropäische Sommerzeit)","3","19","1","1729613950224"
"1438","j","SpeechGestureMatch","../RequiredFiles/videos/NeinKopfJa_f.mp4","Ist der Ball in der blauen Box?","Blue","Green","J","negation","mismatch","speech","no","HeadNod","female","gesture-speech","1280","800","firefox","60","Windows 10","20","male","right","Tue Oct 22 2024 17:57:00 GMT+0200 (Mitteleuropäische Sommerzeit)","3","20","0","1729613950224"
"1812","f","SpeechGestureMatch","../RequiredFiles/videos/NeinKopfJa_f_no_gesture.mp4","Ist der Ball in der grünen Box?","Blue","Green","F","negation","na","speech","no","na","female","gesture-speech","1280","800","firefox","60","Windows 10","20","male","right","Tue Oct 22 2024 17:57:07 GMT+0200 (Mitteleuropäische Sommerzeit)","3","21","0","1729613950224"
"1551","j","SpeechGestureMatch","../RequiredFiles/videos/JaKopfJa_m_no_gesture.mp4","Ist der Ball in der blauen Box?","Green","Blue","J","affirmation","na","speech","yes","na","male","gesture-speech","1280","800","firefox","60","Windows 10","20","male","right","Tue Oct 22 2024 17:57:15 GMT+0200 (Mitteleuropäische Sommerzeit)","3","22","0","1729613950224"
"1976","f","SpeechGestureMatch","../RequiredFiles/videos/NeinKopfNein_f.mp4","Ist der Ball in der grünen Box?","Blue","Green","F","negation","match","speech","no","HeadShake","female","gesture-speech","1280","800","firefox","60","Windows 10","20","male","right","Tue Oct 22 2024 17:57:22 GMT+0200 (Mitteleuropäische Sommerzeit)","3","23","0","1729613950224"
"1532","j","SpeechGestureMatch","../RequiredFiles/videos/JaKopfJa_m.mp4","Ist der Ball in der grünen Box?","Blue","Green","J","affirmation","match","speech","yes","HeadNod","male","gesture-speech","1280","800","firefox","60","Windows 10","20","male","right","Tue Oct 22 2024 17:57:29 GMT+0200 (Mitteleuropäische Sommerzeit)","3","24","0","1729613950224"
"1250","j","SpeechGestureMatch","../RequiredFiles/videos/JaKopfJa_f.mp4","Ist der Ball in der grünen Box?","Blue","Green","J","affirmation","match","speech","yes","HeadNod","female","gesture-speech","1280","800","firefox","60","Windows 10","20","male","right","Tue Oct 22 2024 17:57:36 GMT+0200 (Mitteleuropäische Sommerzeit)","3","25","0","1729613950224"
"1469","f","SpeechGestureMatch","../RequiredFiles/videos/NeinKopfJa_f.mp4","Ist der Ball in der grünen Box?","Blue","Green","F","negation","mismatch","speech","no","HeadNod","female","gesture-speech","1280","800","firefox","60","Windows 10","20","male","right","Tue Oct 22 2024 17:57:43 GMT+0200 (Mitteleuropäische Sommerzeit)","3","26","0","1729613950224"
"1351","j","SpeechGestureMatch","../RequiredFiles/videos/JaKopfJa_m.mp4","Ist der Ball in der blauen Box?","Green","Blue","J","affirmation","match","speech","yes","HeadNod","male","gesture-speech","1280","800","firefox","60","Windows 10","20","male","right","Tue Oct 22 2024 17:57:50 GMT+0200 (Mitteleuropäische Sommerzeit)","3","27","0","1729613950224"
"1511","f","SpeechGestureMatch","../RequiredFiles/videos/NeinKopfJa_f_no_gesture.mp4","Ist der Ball in der blauen Box?","Green","Blue","F","negation","na","speech","no","na","female","gesture-speech","1280","800","firefox","60","Windows 10","20","male","right","Tue Oct 22 2024 17:57:57 GMT+0200 (Mitteleuropäische Sommerzeit)","3","28","0","1729613950224"
"1698","j","SpeechGestureMatch","../RequiredFiles/videos/NeinKopfNein_f.mp4","Ist der Ball in der grünen Box?","Green","Blue","J","negation","match","speech","no","HeadShake","female","gesture-speech","1280","800","firefox","60","Windows 10","20","male","right","Tue Oct 22 2024 17:58:04 GMT+0200 (Mitteleuropäische Sommerzeit)","3","29","0","1729613950224"
"1467","f","SpeechGestureMatch","../RequiredFiles/videos/JaKopfNein_f_no_gesture.mp4","Ist der Ball in der blauen Box?","Green","Blue","J","affirmation","na","speech","yes","na","female","gesture-speech","1280","800","firefox","60","Windows 10","20","male","right","Tue Oct 22 2024 17:58:11 GMT+0200 (Mitteleuropäische Sommerzeit)","3","30","1","1729613950224"
"1336","f","SpeechGestureMatch","../RequiredFiles/videos/JaKopfJa_f_no_gesture.mp4","Ist der Ball in der grünen Box?","Green","Blue","F","affirmation","na","speech","yes","na","female","gesture-speech","1280","800","firefox","60","Windows 10","20","male","right","Tue Oct 22 2024 17:58:18 GMT+0200 (Mitteleuropäische Sommerzeit)","3","31","0","1729613950224"
"1561","j","SpeechGestureMatch","../RequiredFiles/videos/JaKopfNein_m.mp4","Ist der Ball in der blauen Box?","Green","Blue","J","affirmation","mismatch","speech","yes","HeadShake","male","gesture-speech","1280","800","firefox","60","Windows 10","20","male","right","Tue Oct 22 2024 17:58:25 GMT+0200 (Mitteleuropäische Sommerzeit)","3","32","0","1729613950224"
"1591","f","SpeechGestureMatch","../RequiredFiles/videos/NeinKopfJa_m.mp4","Ist der Ball in der blauen Box?","Blue","Green","J","negation","mismatch","speech","no","HeadNod","male","gesture-speech","1280","800","firefox","60","Windows 10","20","male","right","Tue Oct 22 2024 17:58:33 GMT+0200 (Mitteleuropäische Sommerzeit)","3","33","1","1729613950224"
"1673","f","SpeechGestureMatch","../RequiredFiles/videos/JaKopfJa_m.mp4","Ist der Ball in der grünen Box?","Green","Blue","F","affirmation","match","speech","yes","HeadNod","male","gesture-speech","1280","800","firefox","60","Windows 10","20","male","right","Tue Oct 22 2024 17:58:40 GMT+0200 (Mitteleuropäische Sommerzeit)","3","34","0","1729613950224"
"1589","f","SpeechGestureMatch","../RequiredFiles/videos/NeinKopfNein_m.mp4","Ist der Ball in der grünen Box?","Blue","Green","F","negation","match","speech","no","HeadShake","male","gesture-speech","1280","800","firefox","60","Windows 10","20","male","right","Tue Oct 22 2024 17:58:47 GMT+0200 (Mitteleuropäische Sommerzeit)","3","35","0","1729613950224"
"1781","f","SpeechGestureMatch","../RequiredFiles/videos/NeinKopfJa_m_no_gesture.mp4","Ist der Ball in der blauen Box?","Green","Blue","F","negation","na","speech","no","na","male","gesture-speech","1280","800","firefox","60","Windows 10","20","male","right","Tue Oct 22 2024 17:58:54 GMT+0200 (Mitteleuropäische Sommerzeit)","3","36","0","1729613950224"
"1338","j","SpeechGestureMatch","../RequiredFiles/videos/JaKopfJa_f.mp4","Ist der Ball in der blauen Box?","Green","Blue","J","affirmation","match","speech","yes","HeadNod","female","gesture-speech","1280","800","firefox","60","Windows 10","20","male","right","Tue Oct 22 2024 17:59:01 GMT+0200 (Mitteleuropäische Sommerzeit)","3","37","0","1729613950224"
"1800","j","SpeechGestureMatch","../RequiredFiles/videos/NeinKopfNein_f.mp4","Ist der Ball in der blauen Box?","Blue","Green","J","negation","match","speech","no","HeadShake","female","gesture-speech","1280","800","firefox","60","Windows 10","20","male","right","Tue Oct 22 2024 17:59:09 GMT+0200 (Mitteleuropäische Sommerzeit)","3","38","0","1729613950224"
"1515","j","SpeechGestureMatch","../RequiredFiles/videos/NeinKopfJa_f_no_gesture.mp4","Ist der Ball in der blauen Box?","Blue","Green","J","negation","na","speech","no","na","female","gesture-speech","1280","800","firefox","60","Windows 10","20","male","right","Tue Oct 22 2024 17:59:16 GMT+0200 (Mitteleuropäische Sommerzeit)","3","39","0","1729613950224"
"1290","j","SpeechGestureMatch","../RequiredFiles/videos/JaKopfNein_f.mp4","Ist der Ball in der blauen Box?","Green","Blue","J","affirmation","mismatch","speech","yes","HeadShake","female","gesture-speech","1280","800","firefox","60","Windows 10","20","male","right","Tue Oct 22 2024 17:59:23 GMT+0200 (Mitteleuropäische Sommerzeit)","3","40","0","1729613950224"
"1445","f","SpeechGestureMatch","../RequiredFiles/videos/NeinKopfJa_f.mp4","Ist der Ball in der blauen Box?","Green","Blue","F","negation","mismatch","speech","no","HeadNod","female","gesture-speech","1280","800","firefox","60","Windows 10","20","male","right","Tue Oct 22 2024 17:59:30 GMT+0200 (Mitteleuropäische Sommerzeit)","3","41","0","1729613950224"
"1886","f","SpeechGestureMatch","../RequiredFiles/videos/JaKopfNein_m_no_gesture.mp4","Ist der Ball in der blauen Box?","Blue","Green","F","affirmation","na","speech","yes","na","male","gesture-speech","1280","800","firefox","60","Windows 10","20","male","right","Tue Oct 22 2024 17:59:37 GMT+0200 (Mitteleuropäische Sommerzeit)","3","42","0","1729613950224"
"1826","j","SpeechGestureMatch","../RequiredFiles/videos/NeinKopfNein_f_no_gesture.mp4","Ist der Ball in der grünen Box?","Green","Blue","J","negation","na","speech","no","na","female","gesture-speech","1280","800","firefox","60","Windows 10","20","male","right","Tue Oct 22 2024 17:59:45 GMT+0200 (Mitteleuropäische Sommerzeit)","3","43","0","1729613950224"
"1340","j","SpeechGestureMatch","../RequiredFiles/videos/JaKopfJa_f_no_gesture.mp4","Ist der Ball in der blauen Box?","Green","Blue","J","affirmation","na","speech","yes","na","female","gesture-speech","1280","800","firefox","60","Windows 10","20","male","right","Tue Oct 22 2024 17:59:52 GMT+0200 (Mitteleuropäische Sommerzeit)","3","44","0","1729613950224"
"1557","f","SpeechGestureMatch","../RequiredFiles/videos/NeinKopfNein_m.mp4","Ist der Ball in der blauen Box?","Green","Blue","F","negation","match","speech","no","HeadShake","male","gesture-speech","1280","800","firefox","60","Windows 10","20","male","right","Tue Oct 22 2024 17:59:59 GMT+0200 (Mitteleuropäische Sommerzeit)","3","45","0","1729613950224"
"1610","f","SpeechGestureMatch","../RequiredFiles/videos/NeinKopfNein_f.mp4","Ist der Ball in der blauen Box?","Green","Blue","F","negation","match","speech","no","HeadShake","female","gesture-speech","1280","800","firefox","60","Windows 10","20","male","right","Tue Oct 22 2024 18:00:06 GMT+0200 (Mitteleuropäische Sommerzeit)","3","46","0","1729613950224"
"1883","f","SpeechGestureMatch","../RequiredFiles/videos/JaKopfNein_f_no_gesture.mp4","Ist der Ball in der grünen Box?","Green","Blue","F","affirmation","na","speech","yes","na","female","gesture-speech","1280","800","firefox","60","Windows 10","20","male","right","Tue Oct 22 2024 18:00:13 GMT+0200 (Mitteleuropäische Sommerzeit)","3","47","0","1729613950224"
"1399","f","SpeechGestureMatch","../RequiredFiles/videos/NeinKopfNein_m.mp4","Ist der Ball in der grünen Box?","Blue","Green","F","negation","match","speech","no","HeadShake","male","gesture-speech","1280","800","firefox","60","Windows 10","20","male","right","Tue Oct 22 2024 18:00:20 GMT+0200 (Mitteleuropäische Sommerzeit)","3","48","0","1729613950224"
"1418","f","SpeechGestureMatch","../RequiredFiles/videos/JaKopfNein_m.mp4","Ist der Ball in der grünen Box?","Green","Blue","F","affirmation","mismatch","speech","yes","HeadShake","male","gesture-speech","1280","800","firefox","60","Windows 10","20","male","right","Tue Oct 22 2024 18:00:27 GMT+0200 (Mitteleuropäische Sommerzeit)","3","49","0","1729613950224"
"1396","j","SpeechGestureMatch","../RequiredFiles/videos/NeinKopfJa_f_no_gesture.mp4","Ist der Ball in der grünen Box?","Green","Blue","J","negation","na","speech","no","na","female","gesture-speech","1280","800","firefox","60","Windows 10","20","male","right","Tue Oct 22 2024 18:00:34 GMT+0200 (Mitteleuropäische Sommerzeit)","3","50","0","1729613950224"
"1272","j","SpeechGestureMatch","../RequiredFiles/videos/JaKopfNein_f.mp4","Ist der Ball in der grünen Box?","Blue","Green","J","affirmation","mismatch","speech","yes","HeadShake","female","gesture-speech","1280","800","firefox","60","Windows 10","20","male","right","Tue Oct 22 2024 18:00:41 GMT+0200 (Mitteleuropäische Sommerzeit)","3","51","0","1729613950224"
"1241","j","SpeechGestureMatch","../RequiredFiles/videos/JaKopfNein_f.mp4","Ist der Ball in der grünen Box?","Blue","Green","J","affirmation","mismatch","speech","yes","HeadShake","female","gesture-speech","1280","800","firefox","60","Windows 10","20","male","right","Tue Oct 22 2024 18:00:48 GMT+0200 (Mitteleuropäische Sommerzeit)","3","52","0","1729613950224"
"1632","f","SpeechGestureMatch","../RequiredFiles/videos/JaKopfNein_f.mp4","Ist der Ball in der blauen Box?","Blue","Green","F","affirmation","mismatch","speech","yes","HeadShake","female","gesture-speech","1280","800","firefox","60","Windows 10","20","male","right","Tue Oct 22 2024 18:00:55 GMT+0200 (Mitteleuropäische Sommerzeit)","3","53","0","1729613950224"
"1568","j","SpeechGestureMatch","../RequiredFiles/videos/NeinKopfNein_f_no_gesture.mp4","Ist der Ball in der blauen Box?","Blue","Green","J","negation","na","speech","no","na","female","gesture-speech","1280","800","firefox","60","Windows 10","20","male","right","Tue Oct 22 2024 18:01:03 GMT+0200 (Mitteleuropäische Sommerzeit)","3","54","0","1729613950224"
"1554","j","SpeechGestureMatch","../RequiredFiles/videos/JaKopfJa_f.mp4","Ist der Ball in der grünen Box?","Blue","Green","J","affirmation","match","speech","yes","HeadNod","female","gesture-speech","1280","800","firefox","60","Windows 10","20","male","right","Tue Oct 22 2024 18:01:10 GMT+0200 (Mitteleuropäische Sommerzeit)","3","55","0","1729613950224"
"1165","f","SpeechGestureMatch","../RequiredFiles/videos/JaKopfJa_f.mp4","Ist der Ball in der blauen Box?","Blue","Green","F","affirmation","match","speech","yes","HeadNod","female","gesture-speech","1280","800","firefox","60","Windows 10","20","male","right","Tue Oct 22 2024 18:01:16 GMT+0200 (Mitteleuropäische Sommerzeit)","3","56","0","1729613950224"
"1334","f","SpeechGestureMatch","../RequiredFiles/videos/JaKopfNein_f.mp4","Ist der Ball in der blauen Box?","Blue","Green","F","affirmation","mismatch","speech","yes","HeadShake","female","gesture-speech","1280","800","firefox","60","Windows 10","20","male","right","Tue Oct 22 2024 18:01:23 GMT+0200 (Mitteleuropäische Sommerzeit)","3","57","0","1729613950224"
"1954","f","SpeechGestureMatch","../RequiredFiles/videos/NeinKopfNein_f.mp4","Ist der Ball in der grünen Box?","Blue","Green","F","negation","match","speech","no","HeadShake","female","gesture-speech","1280","800","firefox","60","Windows 10","20","male","right","Tue Oct 22 2024 18:01:31 GMT+0200 (Mitteleuropäische Sommerzeit)","3","58","0","1729613950224"
"1626","f","SpeechGestureMatch","../RequiredFiles/videos/JaKopfNein_m_no_gesture.mp4","Ist der Ball in der grünen Box?","Green","Blue","F","affirmation","na","speech","yes","na","male","gesture-speech","1280","800","firefox","60","Windows 10","20","male","right","Tue Oct 22 2024 18:01:38 GMT+0200 (Mitteleuropäische Sommerzeit)","3","59","0","1729613950224"
"1366","f","SpeechGestureMatch","../RequiredFiles/videos/JaKopfJa_m.mp4","Ist der Ball in der grünen Box?","Green","Blue","F","affirmation","match","speech","yes","HeadNod","male","gesture-speech","1280","800","firefox","60","Windows 10","20","male","right","Tue Oct 22 2024 18:01:45 GMT+0200 (Mitteleuropäische Sommerzeit)","3","60","0","1729613950224"
"1414","f","SpeechGestureMatch","../RequiredFiles/videos/JaKopfNein_m.mp4","Ist der Ball in der blauen Box?","Blue","Green","F","affirmation","mismatch","speech","yes","HeadShake","male","gesture-speech","1280","800","firefox","60","Windows 10","20","male","right","Tue Oct 22 2024 18:01:53 GMT+0200 (Mitteleuropäische Sommerzeit)","3","61","0","1729613950224"
"1413","j","SpeechGestureMatch","../RequiredFiles/videos/NeinKopfJa_f.mp4","Ist der Ball in der blauen Box?","Green","Blue","F","negation","mismatch","speech","no","HeadNod","female","gesture-speech","1280","800","firefox","60","Windows 10","20","male","right","Tue Oct 22 2024 18:02:00 GMT+0200 (Mitteleuropäische Sommerzeit)","3","62","1","1729613950224"
"1415","j","SpeechGestureMatch","../RequiredFiles/videos/JaKopfNein_m_no_gesture.mp4","Ist der Ball in der blauen Box?","Green","Blue","J","affirmation","na","speech","yes","na","male","gesture-speech","1280","800","firefox","60","Windows 10","20","male","right","Tue Oct 22 2024 18:02:07 GMT+0200 (Mitteleuropäische Sommerzeit)","3","63","0","1729613950224"
"1715","j","SpeechGestureMatch","../RequiredFiles/videos/NeinKopfNein_m.mp4","Ist der Ball in der blauen Box?","Blue","Green","J","negation","match","speech","no","HeadShake","male","gesture-speech","1280","800","firefox","60","Windows 10","20","male","right","Tue Oct 22 2024 18:02:14 GMT+0200 (Mitteleuropäische Sommerzeit)","3","64","0","1729613950224"
"1438","f","SpeechGestureMatch","../RequiredFiles/videos/JaKopfJa_m_no_gesture.mp4","Ist der Ball in der grünen Box?","Green","Blue","F","affirmation","na","speech","yes","na","male","gesture-speech","1280","800","firefox","60","Windows 10","20","male","right","Tue Oct 22 2024 18:02:21 GMT+0200 (Mitteleuropäische Sommerzeit)","3","65","0","1729613950224"
"1594","f","SpeechGestureMatch","../RequiredFiles/videos/NeinKopfJa_m_no_gesture.mp4","Ist der Ball in der grünen Box?","Blue","Green","F","negation","na","speech","no","na","male","gesture-speech","1280","800","firefox","60","Windows 10","20","male","right","Tue Oct 22 2024 18:02:28 GMT+0200 (Mitteleuropäische Sommerzeit)","3","66","0","1729613950224"
"1495","f","SpeechGestureMatch","../RequiredFiles/videos/NeinKopfJa_m.mp4","Ist der Ball in der grünen Box?","Green","Blue","J","negation","mismatch","speech","no","HeadNod","male","gesture-speech","1280","800","firefox","60","Windows 10","20","male","right","Tue Oct 22 2024 18:02:35 GMT+0200 (Mitteleuropäische Sommerzeit)","3","67","1","1729613950224"
"1623","j","SpeechGestureMatch","../RequiredFiles/videos/NeinKopfNein_m.mp4","Ist der Ball in der blauen Box?","Blue","Green","J","negation","match","speech","no","HeadShake","male","gesture-speech","1280","800","firefox","60","Windows 10","20","male","right","Tue Oct 22 2024 18:02:42 GMT+0200 (Mitteleuropäische Sommerzeit)","3","68","0","1729613950224"
"1357","j","SpeechGestureMatch","../RequiredFiles/videos/NeinKopfJa_m_no_gesture.mp4","Ist der Ball in der blauen Box?","Blue","Green","J","negation","na","speech","no","na","male","gesture-speech","1280","800","firefox","60","Windows 10","20","male","right","Tue Oct 22 2024 18:02:49 GMT+0200 (Mitteleuropäische Sommerzeit)","3","69","0","1729613950224"
"1859","j","SpeechGestureMatch","../RequiredFiles/videos/JaKopfNein_m.mp4","Ist der Ball in der grünen Box?","Blue","Green","J","affirmation","mismatch","speech","yes","HeadShake","male","gesture-speech","1280","800","firefox","60","Windows 10","20","male","right","Tue Oct 22 2024 18:02:57 GMT+0200 (Mitteleuropäische Sommerzeit)","3","70","0","1729613950224"
"1818","f","SpeechGestureMatch","../RequiredFiles/videos/NeinKopfJa_f.mp4","Ist der Ball in der grünen Box?","Blue","Green","F","negation","mismatch","speech","no","HeadNod","female","gesture-speech","1280","800","firefox","60","Windows 10","20","male","right","Tue Oct 22 2024 18:03:04 GMT+0200 (Mitteleuropäische Sommerzeit)","3","71","0","1729613950224"
"1566","j","SpeechGestureMatch","../RequiredFiles/videos/JaKopfNein_f_no_gesture.mp4","Ist der Ball in der grünen Box?","Blue","Green","J","affirmation","na","speech","yes","na","female","gesture-speech","1280","800","firefox","60","Windows 10","20","male","right","Tue Oct 22 2024 18:03:11 GMT+0200 (Mitteleuropäische Sommerzeit)","3","72","0","1729613950224"
"1889","f","SpeechGestureMatch","../RequiredFiles/videos/NeinKopfNein_m_no_gesture.mp4","Ist der Ball in der grünen Box?","Blue","Green","F","negation","na","speech","no","na","male","gesture-speech","1280","800","firefox","60","Windows 10","20","male","right","Tue Oct 22 2024 18:03:19 GMT+0200 (Mitteleuropäische Sommerzeit)","3","73","0","1729613950224"
"1370","f","SpeechGestureMatch","../RequiredFiles/videos/JaKopfJa_f.mp4","Ist der Ball in der grünen Box?","Green","Blue","F","affirmation","match","speech","yes","HeadNod","female","gesture-speech","1280","800","firefox","60","Windows 10","20","male","right","Tue Oct 22 2024 18:03:25 GMT+0200 (Mitteleuropäische Sommerzeit)","3","74","0","1729613950224"
"1523","j","SpeechGestureMatch","../RequiredFiles/videos/NeinKopfNein_f.mp4","Ist der Ball in der grünen Box?","Green","Blue","J","negation","match","speech","no","HeadShake","female","gesture-speech","1280","800","firefox","60","Windows 10","20","male","right","Tue Oct 22 2024 18:03:33 GMT+0200 (Mitteleuropäische Sommerzeit)","3","75","0","1729613950224"
"1475","f","SpeechGestureMatch","../RequiredFiles/videos/JaKopfNein_m.mp4","Ist der Ball in der blauen Box?","Blue","Green","F","affirmation","mismatch","speech","yes","HeadShake","male","gesture-speech","1280","800","firefox","60","Windows 10","20","male","right","Tue Oct 22 2024 18:03:40 GMT+0200 (Mitteleuropäische Sommerzeit)","3","76","0","1729613950224"
"1601","j","SpeechGestureMatch","../RequiredFiles/videos/JaKopfNein_f.mp4","Ist der Ball in der blauen Box?","Green","Blue","J","affirmation","mismatch","speech","yes","HeadShake","female","gesture-speech","1280","800","firefox","60","Windows 10","20","male","right","Tue Oct 22 2024 18:03:47 GMT+0200 (Mitteleuropäische Sommerzeit)","3","77","0","1729613950224"
"1595","j","SpeechGestureMatch","../RequiredFiles/videos/NeinKopfNein_m_no_gesture.mp4","Ist der Ball in der blauen Box?","Blue","Green","J","negation","na","speech","no","na","male","gesture-speech","1280","800","firefox","60","Windows 10","20","male","right","Tue Oct 22 2024 18:03:54 GMT+0200 (Mitteleuropäische Sommerzeit)","3","78","0","1729613950224"
"1771","f","SpeechGestureMatch","../RequiredFiles/videos/JaKopfJa_f_no_gesture.mp4","Ist der Ball in der blauen Box?","Blue","Green","F","affirmation","na","speech","yes","na","female","gesture-speech","1280","800","firefox","60","Windows 10","20","male","right","Tue Oct 22 2024 18:04:01 GMT+0200 (Mitteleuropäische Sommerzeit)","3","79","0","1729613950224"
"1393","j","SpeechGestureMatch","../RequiredFiles/videos/JaKopfNein_m.mp4","Ist der Ball in der grünen Box?","Blue","Green","J","affirmation","mismatch","speech","yes","HeadShake","male","gesture-speech","1280","800","firefox","60","Windows 10","20","male","right","Tue Oct 22 2024 18:04:08 GMT+0200 (Mitteleuropäische Sommerzeit)","3","80","0","1729613950224"
"4719","f","SpeechGestureMatch","../RequiredFiles/videos/NeinKopfNein_m.mp4","Ist der Ball in der grünen Box?","Green","Blue","J","negation","match","speech","no","HeadShake","male","gesture-speech","1280","800","firefox","60","Windows 10","20","male","right","Tue Oct 22 2024 18:04:19 GMT+0200 (Mitteleuropäische Sommerzeit)","3","81","1","1729613950224"
"3006","j","SpeechGestureMatch","../RequiredFiles/videos/NeinKopfNein_m.mp4","Ist der Ball in der grünen Box?","Green","Blue","J","negation","match","speech","no","HeadShake","male","gesture-speech","1280","800","firefox","60","Windows 10","20","male","right","Tue Oct 22 2024 18:04:27 GMT+0200 (Mitteleuropäische Sommerzeit)","3","82","0","1729613950224"
"1456","f","SpeechGestureMatch","../RequiredFiles/videos/NeinKopfNein_f_no_gesture.mp4","Ist der Ball in der blauen Box?","Green","Blue","F","negation","na","speech","no","na","female","gesture-speech","1280","800","firefox","60","Windows 10","20","male","right","Tue Oct 22 2024 18:04:34 GMT+0200 (Mitteleuropäische Sommerzeit)","3","83","0","1729613950224"
"2405","j","SpeechGestureMatch","../RequiredFiles/videos/NeinKopfJa_m.mp4","Ist der Ball in der grünen Box?","Green","Blue","J","negation","mismatch","speech","no","HeadNod","male","gesture-speech","1280","800","firefox","60","Windows 10","20","male","right","Tue Oct 22 2024 18:04:42 GMT+0200 (Mitteleuropäische Sommerzeit)","3","84","0","1729613950224"
"1621","j","SpeechGestureMatch","../RequiredFiles/videos/NeinKopfNein_m_no_gesture.mp4","Ist der Ball in der grünen Box?","Green","Blue","J","negation","na","speech","no","na","male","gesture-speech","1280","800","firefox","60","Windows 10","20","male","right","Tue Oct 22 2024 18:04:49 GMT+0200 (Mitteleuropäische Sommerzeit)","3","85","0","1729613950224"
