"rt","response","stim","video","question","box_colour_left","box_colour_right","correct_key","polarity","matching","modality","verbal","gesture","speaker","order","width","height","browser","vsync_rate","os","age","gender","handedness","date","blockNum","trialNum","error","vpNum"
"890","j","SpeechGestureMatch","../RequiredFiles/videos/JaDaumenhoch_f_no_sound.mp4","Ist der Ball in der grünen Box?","Blue","Green","J","affirmation","na","gesture","na","ThumbUp","female","gesture-speech","1440","960","edge-chromium","30.17","Windows 10","21","female","right","Tue Oct 22 2024 20:57:26 GMT+0200 (Mitteleuropäische Sommerzeit)","1","1","0","1729626077327"
"770","f","SpeechGestureMatch","../RequiredFiles/videos/JaDaumenhoch_f_no_sound.mp4","Ist der Ball in der grünen Box?","Green","Blue","F","affirmation","na","gesture","na","ThumbUp","female","gesture-speech","1440","960","edge-chromium","30.17","Windows 10","21","female","right","Tue Oct 22 2024 20:57:32 GMT+0200 (Mitteleuropäische Sommerzeit)","1","2","0","1729626077327"
"1833","f","SpeechGestureMatch","../RequiredFiles/videos/NeinDaumenhoch_m.mp4","Ist der Ball in der grünen Box?","Blue","Green","J","affirmation","mismatch","gesture","no","ThumbUp","male","gesture-speech","1440","960","edge-chromium","30.17","Windows 10","21","female","right","Tue Oct 22 2024 20:57:39 GMT+0200 (Mitteleuropäische Sommerzeit)","1","3","1","1729626077327"
"861","f","SpeechGestureMatch","../RequiredFiles/videos/NeinDaumenrunter_f.mp4","Ist der Ball in der blauen Box?","Blue","Green","J","negation","match","gesture","no","ThumbDown","female","gesture-speech","1440","960","edge-chromium","30.17","Windows 10","21","female","right","Tue Oct 22 2024 20:57:46 GMT+0200 (Mitteleuropäische Sommerzeit)","1","4","1","1729626077327"
"970","j","SpeechGestureMatch","../RequiredFiles/videos/JaDaumenrunter_f.mp4","Ist der Ball in der grünen Box?","Green","Blue","J","negation","mismatch","gesture","yes","ThumbDown","female","gesture-speech","1440","960","edge-chromium","30.17","Windows 10","21","female","right","Tue Oct 22 2024 20:57:52 GMT+0200 (Mitteleuropäische Sommerzeit)","1","5","0","1729626077327"
"1037","j","SpeechGestureMatch","../RequiredFiles/videos/NeinDaumenhoch_f.mp4","Ist der Ball in der blauen Box?","Green","Blue","J","affirmation","mismatch","gesture","no","ThumbUp","female","gesture-speech","1440","960","edge-chromium","30.17","Windows 10","21","female","right","Tue Oct 22 2024 20:57:59 GMT+0200 (Mitteleuropäische Sommerzeit)","1","6","0","1729626077327"
"1037","f","SpeechGestureMatch","../RequiredFiles/videos/JaDaumenrunter_m.mp4","Ist der Ball in der grünen Box?","Blue","Green","F","negation","mismatch","gesture","yes","ThumbDown","male","gesture-speech","1440","960","edge-chromium","30.17","Windows 10","21","female","right","Tue Oct 22 2024 20:58:05 GMT+0200 (Mitteleuropäische Sommerzeit)","1","7","0","1729626077327"
"927","j","SpeechGestureMatch","../RequiredFiles/videos/JaDaumenrunter_f.mp4","Ist der Ball in der blauen Box?","Blue","Green","J","negation","mismatch","gesture","yes","ThumbDown","female","gesture-speech","1440","960","edge-chromium","30.17","Windows 10","21","female","right","Tue Oct 22 2024 20:58:12 GMT+0200 (Mitteleuropäische Sommerzeit)","1","8","0","1729626077327"
"744","j","SpeechGestureMatch","../RequiredFiles/videos/NeinDaumenrunter_m.mp4","Ist der Ball in der grünen Box?","Green","Blue","J","negation","match","gesture","no","ThumbDown","male","gesture-speech","1440","960","edge-chromium","30.17","Windows 10","21","female","right","Tue Oct 22 2024 20:58:18 GMT+0200 (Mitteleuropäische Sommerzeit)","1","9","0","1729626077327"
"704","j","SpeechGestureMatch","../RequiredFiles/videos/JaDaumenrunter_m_no_sound.mp4","Ist der Ball in der grünen Box?","Blue","Green","F","negation","na","gesture","na","ThumbDown","male","gesture-speech","1440","960","edge-chromium","30.17","Windows 10","21","female","right","Tue Oct 22 2024 20:58:24 GMT+0200 (Mitteleuropäische Sommerzeit)","1","10","1","1729626077327"
"716","j","SpeechGestureMatch","../RequiredFiles/videos/NeinDaumenrunter_f_no_sound.mp4","Ist der Ball in der grünen Box?","Green","Blue","J","negation","na","gesture","na","ThumbDown","female","gesture-speech","1440","960","edge-chromium","30.17","Windows 10","21","female","right","Tue Oct 22 2024 20:58:31 GMT+0200 (Mitteleuropäische Sommerzeit)","1","11","0","1729626077327"
"1098","j","SpeechGestureMatch","../RequiredFiles/videos/JaDaumenhoch_f.mp4","Ist der Ball in der blauen Box?","Blue","Green","F","affirmation","match","gesture","yes","ThumbUp","female","gesture-speech","1440","960","edge-chromium","30.17","Windows 10","21","female","right","Tue Oct 22 2024 20:58:37 GMT+0200 (Mitteleuropäische Sommerzeit)","1","12","1","1729626077327"
"847","j","SpeechGestureMatch","../RequiredFiles/videos/NeinDaumenrunter_m.mp4","Ist der Ball in der blauen Box?","Blue","Green","J","negation","match","gesture","no","ThumbDown","male","gesture-speech","1440","960","edge-chromium","30.17","Windows 10","21","female","right","Tue Oct 22 2024 20:58:44 GMT+0200 (Mitteleuropäische Sommerzeit)","1","13","0","1729626077327"
"866","f","SpeechGestureMatch","../RequiredFiles/videos/NeinDaumenrunter_m_no_sound.mp4","Ist der Ball in der blauen Box?","Green","Blue","F","negation","na","gesture","na","ThumbDown","male","gesture-speech","1440","960","edge-chromium","30.17","Windows 10","21","female","right","Tue Oct 22 2024 20:58:50 GMT+0200 (Mitteleuropäische Sommerzeit)","1","14","0","1729626077327"
"1132","f","SpeechGestureMatch","../RequiredFiles/videos/JaDaumenrunter_f.mp4","Ist der Ball in der blauen Box?","Green","Blue","F","negation","mismatch","gesture","yes","ThumbDown","female","gesture-speech","1440","960","edge-chromium","30.17","Windows 10","21","female","right","Tue Oct 22 2024 20:58:57 GMT+0200 (Mitteleuropäische Sommerzeit)","1","15","0","1729626077327"
"1005","j","SpeechGestureMatch","../RequiredFiles/videos/JaDaumenhoch_f.mp4","Ist der Ball in der blauen Box?","Green","Blue","J","affirmation","match","gesture","yes","ThumbUp","female","gesture-speech","1440","960","edge-chromium","30.17","Windows 10","21","female","right","Tue Oct 22 2024 20:59:03 GMT+0200 (Mitteleuropäische Sommerzeit)","1","16","0","1729626077327"
"861","f","SpeechGestureMatch","../RequiredFiles/videos/NeinDaumenrunter_m.mp4","Ist der Ball in der grünen Box?","Blue","Green","F","negation","match","gesture","no","ThumbDown","male","gesture-speech","1440","960","edge-chromium","30.17","Windows 10","21","female","right","Tue Oct 22 2024 20:59:10 GMT+0200 (Mitteleuropäische Sommerzeit)","1","17","0","1729626077327"
"1047","f","SpeechGestureMatch","../RequiredFiles/videos/NeinDaumenhoch_m_no_sound.mp4","Ist der Ball in der blauen Box?","Blue","Green","F","affirmation","na","gesture","na","ThumbUp","male","gesture-speech","1440","960","edge-chromium","30.17","Windows 10","21","female","right","Tue Oct 22 2024 20:59:16 GMT+0200 (Mitteleuropäische Sommerzeit)","1","18","0","1729626077327"
"991","j","SpeechGestureMatch","../RequiredFiles/videos/JaDaumenhoch_f_no_sound.mp4","Ist der Ball in der blauen Box?","Green","Blue","J","affirmation","na","gesture","na","ThumbUp","female","gesture-speech","1440","960","edge-chromium","30.17","Windows 10","21","female","right","Tue Oct 22 2024 20:59:23 GMT+0200 (Mitteleuropäische Sommerzeit)","1","19","0","1729626077327"
"1232","f","SpeechGestureMatch","../RequiredFiles/videos/JaDaumenrunter_m.mp4","Ist der Ball in der grünen Box?","Green","Blue","J","negation","mismatch","gesture","yes","ThumbDown","male","gesture-speech","1440","960","edge-chromium","30.17","Windows 10","21","female","right","Tue Oct 22 2024 20:59:30 GMT+0200 (Mitteleuropäische Sommerzeit)","1","20","1","1729626077327"
"1070","j","SpeechGestureMatch","../RequiredFiles/videos/JaDaumenrunter_f.mp4","Ist der Ball in der blauen Box?","Blue","Green","J","negation","mismatch","gesture","yes","ThumbDown","female","gesture-speech","1440","960","edge-chromium","30.17","Windows 10","21","female","right","Tue Oct 22 2024 20:59:36 GMT+0200 (Mitteleuropäische Sommerzeit)","1","21","0","1729626077327"
"1112","f","SpeechGestureMatch","../RequiredFiles/videos/JaDaumenrunter_m.mp4","Ist der Ball in der grünen Box?","Blue","Green","F","negation","mismatch","gesture","yes","ThumbDown","male","gesture-speech","1440","960","edge-chromium","30.17","Windows 10","21","female","right","Tue Oct 22 2024 20:59:43 GMT+0200 (Mitteleuropäische Sommerzeit)","1","22","0","1729626077327"
"1153","f","SpeechGestureMatch","../RequiredFiles/videos/JaDaumenrunter_f_no_sound.mp4","Ist der Ball in der blauen Box?","Green","Blue","F","negation","na","gesture","na","ThumbDown","female","gesture-speech","1440","960","edge-chromium","30.17","Windows 10","21","female","right","Tue Oct 22 2024 20:59:50 GMT+0200 (Mitteleuropäische Sommerzeit)","1","23","0","1729626077327"
"1023","j","SpeechGestureMatch","../RequiredFiles/videos/NeinDaumenrunter_m_no_sound.mp4","Ist der Ball in der blauen Box?","Blue","Green","J","negation","na","gesture","na","ThumbDown","male","gesture-speech","1440","960","edge-chromium","30.17","Windows 10","21","female","right","Tue Oct 22 2024 20:59:56 GMT+0200 (Mitteleuropäische Sommerzeit)","1","24","0","1729626077327"
"990","f","SpeechGestureMatch","../RequiredFiles/videos/JaDaumenhoch_m_no_sound.mp4","Ist der Ball in der grünen Box?","Green","Blue","F","affirmation","na","gesture","na","ThumbUp","male","gesture-speech","1440","960","edge-chromium","30.17","Windows 10","21","female","right","Tue Oct 22 2024 21:00:03 GMT+0200 (Mitteleuropäische Sommerzeit)","1","25","0","1729626077327"
"1215","f","SpeechGestureMatch","../RequiredFiles/videos/JaDaumenhoch_f.mp4","Ist der Ball in der blauen Box?","Blue","Green","F","affirmation","match","gesture","yes","ThumbUp","female","gesture-speech","1440","960","edge-chromium","30.17","Windows 10","21","female","right","Tue Oct 22 2024 21:00:09 GMT+0200 (Mitteleuropäische Sommerzeit)","1","26","0","1729626077327"
"1604","j","SpeechGestureMatch","../RequiredFiles/videos/NeinDaumenhoch_m.mp4","Ist der Ball in der blauen Box?","Green","Blue","J","affirmation","mismatch","gesture","no","ThumbUp","male","gesture-speech","1440","960","edge-chromium","30.17","Windows 10","21","female","right","Tue Oct 22 2024 21:00:17 GMT+0200 (Mitteleuropäische Sommerzeit)","1","27","0","1729626077327"
"1276","j","SpeechGestureMatch","../RequiredFiles/videos/NeinDaumenrunter_f.mp4","Ist der Ball in der blauen Box?","Blue","Green","J","negation","match","gesture","no","ThumbDown","female","gesture-speech","1440","960","edge-chromium","30.17","Windows 10","21","female","right","Tue Oct 22 2024 21:00:23 GMT+0200 (Mitteleuropäische Sommerzeit)","1","28","0","1729626077327"
"903","f","SpeechGestureMatch","../RequiredFiles/videos/JaDaumenhoch_m.mp4","Ist der Ball in der grünen Box?","Blue","Green","J","affirmation","match","gesture","yes","ThumbUp","male","gesture-speech","1440","960","edge-chromium","30.17","Windows 10","21","female","right","Tue Oct 22 2024 21:00:30 GMT+0200 (Mitteleuropäische Sommerzeit)","1","29","1","1729626077327"
"1212","f","SpeechGestureMatch","../RequiredFiles/videos/NeinDaumenrunter_m.mp4","Ist der Ball in der blauen Box?","Green","Blue","F","negation","match","gesture","no","ThumbDown","male","gesture-speech","1440","960","edge-chromium","30.17","Windows 10","21","female","right","Tue Oct 22 2024 21:00:37 GMT+0200 (Mitteleuropäische Sommerzeit)","1","30","0","1729626077327"
"964","j","SpeechGestureMatch","../RequiredFiles/videos/JaDaumenrunter_f_no_sound.mp4","Ist der Ball in der blauen Box?","Blue","Green","J","negation","na","gesture","na","ThumbDown","female","gesture-speech","1440","960","edge-chromium","30.17","Windows 10","21","female","right","Tue Oct 22 2024 21:00:43 GMT+0200 (Mitteleuropäische Sommerzeit)","1","31","0","1729626077327"
"1247","f","SpeechGestureMatch","../RequiredFiles/videos/JaDaumenrunter_m.mp4","Ist der Ball in der blauen Box?","Green","Blue","F","negation","mismatch","gesture","yes","ThumbDown","male","gesture-speech","1440","960","edge-chromium","30.17","Windows 10","21","female","right","Tue Oct 22 2024 21:00:50 GMT+0200 (Mitteleuropäische Sommerzeit)","1","32","0","1729626077327"
"1137","f","SpeechGestureMatch","../RequiredFiles/videos/NeinDaumenhoch_f.mp4","Ist der Ball in der blauen Box?","Blue","Green","F","affirmation","mismatch","gesture","no","ThumbUp","female","gesture-speech","1440","960","edge-chromium","30.17","Windows 10","21","female","right","Tue Oct 22 2024 21:00:57 GMT+0200 (Mitteleuropäische Sommerzeit)","1","33","0","1729626077327"
"1144","f","SpeechGestureMatch","../RequiredFiles/videos/NeinDaumenhoch_f_no_sound.mp4","Ist der Ball in der grünen Box?","Green","Blue","F","affirmation","na","gesture","na","ThumbUp","female","gesture-speech","1440","960","edge-chromium","30.17","Windows 10","21","female","right","Tue Oct 22 2024 21:01:03 GMT+0200 (Mitteleuropäische Sommerzeit)","1","34","0","1729626077327"
"817","j","SpeechGestureMatch","../RequiredFiles/videos/JaDaumenrunter_f_no_sound.mp4","Ist der Ball in der grünen Box?","Green","Blue","J","negation","na","gesture","na","ThumbDown","female","gesture-speech","1440","960","edge-chromium","30.17","Windows 10","21","female","right","Tue Oct 22 2024 21:01:10 GMT+0200 (Mitteleuropäische Sommerzeit)","1","35","0","1729626077327"
"1253","j","SpeechGestureMatch","../RequiredFiles/videos/NeinDaumenhoch_m.mp4","Ist der Ball in der blauen Box?","Green","Blue","J","affirmation","mismatch","gesture","no","ThumbUp","male","gesture-speech","1440","960","edge-chromium","30.17","Windows 10","21","female","right","Tue Oct 22 2024 21:01:16 GMT+0200 (Mitteleuropäische Sommerzeit)","1","36","0","1729626077327"
"912","j","SpeechGestureMatch","../RequiredFiles/videos/JaDaumenrunter_m_no_sound.mp4","Ist der Ball in der grünen Box?","Green","Blue","J","negation","na","gesture","na","ThumbDown","male","gesture-speech","1440","960","edge-chromium","30.17","Windows 10","21","female","right","Tue Oct 22 2024 21:01:23 GMT+0200 (Mitteleuropäische Sommerzeit)","1","37","0","1729626077327"
"1212","f","SpeechGestureMatch","../RequiredFiles/videos/JaDaumenrunter_m.mp4","Ist der Ball in der blauen Box?","Green","Blue","F","negation","mismatch","gesture","yes","ThumbDown","male","gesture-speech","1440","960","edge-chromium","30.17","Windows 10","21","female","right","Tue Oct 22 2024 21:01:30 GMT+0200 (Mitteleuropäische Sommerzeit)","1","38","0","1729626077327"
"886","j","SpeechGestureMatch","../RequiredFiles/videos/JaDaumenrunter_m.mp4","Ist der Ball in der grünen Box?","Green","Blue","J","negation","mismatch","gesture","yes","ThumbDown","male","gesture-speech","1440","960","edge-chromium","30.17","Windows 10","21","female","right","Tue Oct 22 2024 21:01:36 GMT+0200 (Mitteleuropäische Sommerzeit)","1","39","0","1729626077327"
"983","j","SpeechGestureMatch","../RequiredFiles/videos/NeinDaumenrunter_f.mp4","Ist der Ball in der grünen Box?","Green","Blue","J","negation","match","gesture","no","ThumbDown","female","gesture-speech","1440","960","edge-chromium","30.17","Windows 10","21","female","right","Tue Oct 22 2024 21:01:43 GMT+0200 (Mitteleuropäische Sommerzeit)","1","40","0","1729626077327"
"1046","f","SpeechGestureMatch","../RequiredFiles/videos/NeinDaumenhoch_m.mp4","Ist der Ball in der blauen Box?","Blue","Green","F","affirmation","mismatch","gesture","no","ThumbUp","male","gesture-speech","1440","960","edge-chromium","30.17","Windows 10","21","female","right","Tue Oct 22 2024 21:01:49 GMT+0200 (Mitteleuropäische Sommerzeit)","1","41","0","1729626077327"
"870","f","SpeechGestureMatch","../RequiredFiles/videos/NeinDaumenhoch_m.mp4","Ist der Ball in der grünen Box?","Green","Blue","F","affirmation","mismatch","gesture","no","ThumbUp","male","gesture-speech","1440","960","edge-chromium","30.17","Windows 10","21","female","right","Tue Oct 22 2024 21:01:56 GMT+0200 (Mitteleuropäische Sommerzeit)","1","42","0","1729626077327"
"1066","f","SpeechGestureMatch","../RequiredFiles/videos/NeinDaumenrunter_f.mp4","Ist der Ball in der blauen Box?","Green","Blue","F","negation","match","gesture","no","ThumbDown","female","gesture-speech","1440","960","edge-chromium","30.17","Windows 10","21","female","right","Tue Oct 22 2024 21:02:02 GMT+0200 (Mitteleuropäische Sommerzeit)","1","43","0","1729626077327"
"1132","j","SpeechGestureMatch","../RequiredFiles/videos/JaDaumenrunter_m.mp4","Ist der Ball in der blauen Box?","Blue","Green","J","negation","mismatch","gesture","yes","ThumbDown","male","gesture-speech","1440","960","edge-chromium","30.17","Windows 10","21","female","right","Tue Oct 22 2024 21:02:09 GMT+0200 (Mitteleuropäische Sommerzeit)","1","44","0","1729626077327"
"785","j","SpeechGestureMatch","../RequiredFiles/videos/NeinDaumenrunter_m_no_sound.mp4","Ist der Ball in der grünen Box?","Green","Blue","J","negation","na","gesture","na","ThumbDown","male","gesture-speech","1440","960","edge-chromium","30.17","Windows 10","21","female","right","Tue Oct 22 2024 21:02:15 GMT+0200 (Mitteleuropäische Sommerzeit)","1","45","0","1729626077327"
"739","f","SpeechGestureMatch","../RequiredFiles/videos/JaDaumenrunter_m_no_sound.mp4","Ist der Ball in der blauen Box?","Green","Blue","F","negation","na","gesture","na","ThumbDown","male","gesture-speech","1440","960","edge-chromium","30.17","Windows 10","21","female","right","Tue Oct 22 2024 21:02:22 GMT+0200 (Mitteleuropäische Sommerzeit)","1","46","0","1729626077327"
"1222","j","SpeechGestureMatch","../RequiredFiles/videos/JaDaumenhoch_f.mp4","Ist der Ball in der grünen Box?","Blue","Green","J","affirmation","match","gesture","yes","ThumbUp","female","gesture-speech","1440","960","edge-chromium","30.17","Windows 10","21","female","right","Tue Oct 22 2024 21:02:28 GMT+0200 (Mitteleuropäische Sommerzeit)","1","47","0","1729626077327"
"978","f","SpeechGestureMatch","../RequiredFiles/videos/JaDaumenhoch_m.mp4","Ist der Ball in der blauen Box?","Blue","Green","F","affirmation","match","gesture","yes","ThumbUp","male","gesture-speech","1440","960","edge-chromium","30.17","Windows 10","21","female","right","Tue Oct 22 2024 21:02:35 GMT+0200 (Mitteleuropäische Sommerzeit)","1","48","0","1729626077327"
"759","j","SpeechGestureMatch","../RequiredFiles/videos/NeinDaumenrunter_f_no_sound.mp4","Ist der Ball in der grünen Box?","Blue","Green","F","negation","na","gesture","na","ThumbDown","female","gesture-speech","1440","960","edge-chromium","30.17","Windows 10","21","female","right","Tue Oct 22 2024 21:02:41 GMT+0200 (Mitteleuropäische Sommerzeit)","1","49","1","1729626077327"
"1268","f","SpeechGestureMatch","../RequiredFiles/videos/NeinDaumenrunter_f.mp4","Ist der Ball in der grünen Box?","Blue","Green","F","negation","match","gesture","no","ThumbDown","female","gesture-speech","1440","960","edge-chromium","30.17","Windows 10","21","female","right","Tue Oct 22 2024 21:02:48 GMT+0200 (Mitteleuropäische Sommerzeit)","1","50","0","1729626077327"
"1379","j","SpeechGestureMatch","../RequiredFiles/videos/NeinDaumenhoch_f_no_sound.mp4","Ist der Ball in der blauen Box?","Green","Blue","J","affirmation","na","gesture","na","ThumbUp","female","gesture-speech","1440","960","edge-chromium","30.17","Windows 10","21","female","right","Tue Oct 22 2024 21:02:55 GMT+0200 (Mitteleuropäische Sommerzeit)","1","51","0","1729626077327"
"1202","f","SpeechGestureMatch","../RequiredFiles/videos/JaDaumenrunter_f.mp4","Ist der Ball in der grünen Box?","Blue","Green","F","negation","mismatch","gesture","yes","ThumbDown","female","gesture-speech","1440","960","edge-chromium","30.17","Windows 10","21","female","right","Tue Oct 22 2024 21:03:02 GMT+0200 (Mitteleuropäische Sommerzeit)","1","52","0","1729626077327"
"857","j","SpeechGestureMatch","../RequiredFiles/videos/NeinDaumenhoch_f.mp4","Ist der Ball in der blauen Box?","Green","Blue","J","affirmation","mismatch","gesture","no","ThumbUp","female","gesture-speech","1440","960","edge-chromium","30.17","Windows 10","21","female","right","Tue Oct 22 2024 21:03:08 GMT+0200 (Mitteleuropäische Sommerzeit)","1","53","0","1729626077327"
"758","f","SpeechGestureMatch","../RequiredFiles/videos/NeinDaumenhoch_m.mp4","Ist der Ball in der blauen Box?","Blue","Green","F","affirmation","mismatch","gesture","no","ThumbUp","male","gesture-speech","1440","960","edge-chromium","30.17","Windows 10","21","female","right","Tue Oct 22 2024 21:03:14 GMT+0200 (Mitteleuropäische Sommerzeit)","1","54","0","1729626077327"
"854","f","SpeechGestureMatch","../RequiredFiles/videos/NeinDaumenhoch_f.mp4","Ist der Ball in der grünen Box?","Green","Blue","F","affirmation","mismatch","gesture","no","ThumbUp","female","gesture-speech","1440","960","edge-chromium","30.17","Windows 10","21","female","right","Tue Oct 22 2024 21:03:21 GMT+0200 (Mitteleuropäische Sommerzeit)","1","55","0","1729626077327"
"741","f","SpeechGestureMatch","../RequiredFiles/videos/NeinDaumenhoch_f_no_sound.mp4","Ist der Ball in der blauen Box?","Blue","Green","F","affirmation","na","gesture","na","ThumbUp","female","gesture-speech","1440","960","edge-chromium","30.17","Windows 10","21","female","right","Tue Oct 22 2024 21:03:27 GMT+0200 (Mitteleuropäische Sommerzeit)","1","56","0","1729626077327"
"1193","j","SpeechGestureMatch","../RequiredFiles/videos/JaDaumenhoch_f.mp4","Ist der Ball in der blauen Box?","Green","Blue","J","affirmation","match","gesture","yes","ThumbUp","female","gesture-speech","1440","960","edge-chromium","30.17","Windows 10","21","female","right","Tue Oct 22 2024 21:03:34 GMT+0200 (Mitteleuropäische Sommerzeit)","1","57","0","1729626077327"
"1282","f","SpeechGestureMatch","../RequiredFiles/videos/NeinDaumenrunter_m.mp4","Ist der Ball in der grünen Box?","Blue","Green","F","negation","match","gesture","no","ThumbDown","male","gesture-speech","1440","960","edge-chromium","30.17","Windows 10","21","female","right","Tue Oct 22 2024 21:03:41 GMT+0200 (Mitteleuropäische Sommerzeit)","1","58","0","1729626077327"
"2314","f","SpeechGestureMatch","../RequiredFiles/videos/NeinDaumenrunter_m.mp4","Ist der Ball in der blauen Box?","Green","Blue","F","negation","match","gesture","no","ThumbDown","male","gesture-speech","1440","960","edge-chromium","30.17","Windows 10","21","female","right","Tue Oct 22 2024 21:03:48 GMT+0200 (Mitteleuropäische Sommerzeit)","1","59","0","1729626077327"
"908","j","SpeechGestureMatch","../RequiredFiles/videos/NeinDaumenrunter_m.mp4","Ist der Ball in der grünen Box?","Green","Blue","J","negation","match","gesture","no","ThumbDown","male","gesture-speech","1440","960","edge-chromium","30.17","Windows 10","21","female","right","Tue Oct 22 2024 21:03:55 GMT+0200 (Mitteleuropäische Sommerzeit)","1","60","0","1729626077327"
"1010","f","SpeechGestureMatch","../RequiredFiles/videos/JaDaumenhoch_f.mp4","Ist der Ball in der grünen Box?","Green","Blue","F","affirmation","match","gesture","yes","ThumbUp","female","gesture-speech","1440","960","edge-chromium","30.17","Windows 10","21","female","right","Tue Oct 22 2024 21:04:01 GMT+0200 (Mitteleuropäische Sommerzeit)","1","61","0","1729626077327"
"784","f","SpeechGestureMatch","../RequiredFiles/videos/NeinDaumenhoch_m_no_sound.mp4","Ist der Ball in der grünen Box?","Green","Blue","F","affirmation","na","gesture","na","ThumbUp","male","gesture-speech","1440","960","edge-chromium","30.17","Windows 10","21","female","right","Tue Oct 22 2024 21:04:08 GMT+0200 (Mitteleuropäische Sommerzeit)","1","62","0","1729626077327"
"885","j","SpeechGestureMatch","../RequiredFiles/videos/JaDaumenrunter_m.mp4","Ist der Ball in der blauen Box?","Blue","Green","J","negation","mismatch","gesture","yes","ThumbDown","male","gesture-speech","1440","960","edge-chromium","30.17","Windows 10","21","female","right","Tue Oct 22 2024 21:04:14 GMT+0200 (Mitteleuropäische Sommerzeit)","1","63","0","1729626077327"
"827","f","SpeechGestureMatch","../RequiredFiles/videos/JaDaumenhoch_f.mp4","Ist der Ball in der grünen Box?","Blue","Green","J","affirmation","match","gesture","yes","ThumbUp","female","gesture-speech","1440","960","edge-chromium","30.17","Windows 10","21","female","right","Tue Oct 22 2024 21:04:21 GMT+0200 (Mitteleuropäische Sommerzeit)","1","64","1","1729626077327"
"827","f","SpeechGestureMatch","../RequiredFiles/videos/JaDaumenrunter_f_no_sound.mp4","Ist der Ball in der grünen Box?","Blue","Green","F","negation","na","gesture","na","ThumbDown","female","gesture-speech","1440","960","edge-chromium","30.17","Windows 10","21","female","right","Tue Oct 22 2024 21:04:27 GMT+0200 (Mitteleuropäische Sommerzeit)","1","65","0","1729626077327"
"956","j","SpeechGestureMatch","../RequiredFiles/videos/JaDaumenhoch_m.mp4","Ist der Ball in der blauen Box?","Green","Blue","J","affirmation","match","gesture","yes","ThumbUp","male","gesture-speech","1440","960","edge-chromium","30.17","Windows 10","21","female","right","Tue Oct 22 2024 21:04:33 GMT+0200 (Mitteleuropäische Sommerzeit)","1","66","0","1729626077327"
"936","f","SpeechGestureMatch","../RequiredFiles/videos/NeinDaumenhoch_f.mp4","Ist der Ball in der grünen Box?","Green","Blue","F","affirmation","mismatch","gesture","no","ThumbUp","female","gesture-speech","1440","960","edge-chromium","30.17","Windows 10","21","female","right","Tue Oct 22 2024 21:04:40 GMT+0200 (Mitteleuropäische Sommerzeit)","1","67","0","1729626077327"
"825","f","SpeechGestureMatch","../RequiredFiles/videos/JaDaumenhoch_m.mp4","Ist der Ball in der blauen Box?","Blue","Green","F","affirmation","match","gesture","yes","ThumbUp","male","gesture-speech","1440","960","edge-chromium","30.17","Windows 10","21","female","right","Tue Oct 22 2024 21:04:46 GMT+0200 (Mitteleuropäische Sommerzeit)","1","68","0","1729626077327"
"740","f","SpeechGestureMatch","../RequiredFiles/videos/JaDaumenhoch_m_no_sound.mp4","Ist der Ball in der blauen Box?","Blue","Green","F","affirmation","na","gesture","na","ThumbUp","male","gesture-speech","1440","960","edge-chromium","30.17","Windows 10","21","female","right","Tue Oct 22 2024 21:04:53 GMT+0200 (Mitteleuropäische Sommerzeit)","1","69","0","1729626077327"
"1269","j","SpeechGestureMatch","../RequiredFiles/videos/NeinDaumenrunter_f.mp4","Ist der Ball in der grünen Box?","Green","Blue","J","negation","match","gesture","no","ThumbDown","female","gesture-speech","1440","960","edge-chromium","30.17","Windows 10","21","female","right","Tue Oct 22 2024 21:04:59 GMT+0200 (Mitteleuropäische Sommerzeit)","1","70","0","1729626077327"
"872","f","SpeechGestureMatch","../RequiredFiles/videos/JaDaumenhoch_f_no_sound.mp4","Ist der Ball in der blauen Box?","Blue","Green","F","affirmation","na","gesture","na","ThumbUp","female","gesture-speech","1440","960","edge-chromium","30.17","Windows 10","21","female","right","Tue Oct 22 2024 21:05:06 GMT+0200 (Mitteleuropäische Sommerzeit)","1","71","0","1729626077327"
"1069","f","SpeechGestureMatch","../RequiredFiles/videos/JaDaumenhoch_m.mp4","Ist der Ball in der grünen Box?","Blue","Green","J","affirmation","match","gesture","yes","ThumbUp","male","gesture-speech","1440","960","edge-chromium","30.17","Windows 10","21","female","right","Tue Oct 22 2024 21:05:12 GMT+0200 (Mitteleuropäische Sommerzeit)","1","72","1","1729626077327"
"948","j","SpeechGestureMatch","../RequiredFiles/videos/JaDaumenhoch_m_no_sound.mp4","Ist der Ball in der blauen Box?","Green","Blue","J","affirmation","na","gesture","na","ThumbUp","male","gesture-speech","1440","960","edge-chromium","30.17","Windows 10","21","female","right","Tue Oct 22 2024 21:05:19 GMT+0200 (Mitteleuropäische Sommerzeit)","1","73","0","1729626077327"
"1208","j","SpeechGestureMatch","../RequiredFiles/videos/JaDaumenrunter_f.mp4","Ist der Ball in der grünen Box?","Green","Blue","J","negation","mismatch","gesture","yes","ThumbDown","female","gesture-speech","1440","960","edge-chromium","30.17","Windows 10","21","female","right","Tue Oct 22 2024 21:05:26 GMT+0200 (Mitteleuropäische Sommerzeit)","1","74","0","1729626077327"
"863","f","SpeechGestureMatch","../RequiredFiles/videos/JaDaumenhoch_f.mp4","Ist der Ball in der grünen Box?","Green","Blue","F","affirmation","match","gesture","yes","ThumbUp","female","gesture-speech","1440","960","edge-chromium","30.17","Windows 10","21","female","right","Tue Oct 22 2024 21:05:32 GMT+0200 (Mitteleuropäische Sommerzeit)","1","75","0","1729626077327"
"1548","f","SpeechGestureMatch","../RequiredFiles/videos/JaDaumenhoch_m.mp4","Ist der Ball in der grünen Box?","Green","Blue","F","affirmation","match","gesture","yes","ThumbUp","male","gesture-speech","1440","960","edge-chromium","30.17","Windows 10","21","female","right","Tue Oct 22 2024 21:05:39 GMT+0200 (Mitteleuropäische Sommerzeit)","1","76","0","1729626077327"
"882","f","SpeechGestureMatch","../RequiredFiles/videos/NeinDaumenrunter_f.mp4","Ist der Ball in der grünen Box?","Blue","Green","F","negation","match","gesture","no","ThumbDown","female","gesture-speech","1440","960","edge-chromium","30.17","Windows 10","21","female","right","Tue Oct 22 2024 21:05:46 GMT+0200 (Mitteleuropäische Sommerzeit)","1","77","0","1729626077327"
"978","f","SpeechGestureMatch","../RequiredFiles/videos/JaDaumenrunter_f.mp4","Ist der Ball in der blauen Box?","Green","Blue","F","negation","mismatch","gesture","yes","ThumbDown","female","gesture-speech","1440","960","edge-chromium","30.17","Windows 10","21","female","right","Tue Oct 22 2024 21:05:52 GMT+0200 (Mitteleuropäische Sommerzeit)","1","78","0","1729626077327"
"1029","j","SpeechGestureMatch","../RequiredFiles/videos/NeinDaumenhoch_f.mp4","Ist der Ball in der grünen Box?","Blue","Green","J","affirmation","mismatch","gesture","no","ThumbUp","female","gesture-speech","1440","960","edge-chromium","30.17","Windows 10","21","female","right","Tue Oct 22 2024 21:05:59 GMT+0200 (Mitteleuropäische Sommerzeit)","1","79","0","1729626077327"
"885","j","SpeechGestureMatch","../RequiredFiles/videos/NeinDaumenhoch_m_no_sound.mp4","Ist der Ball in der blauen Box?","Green","Blue","J","affirmation","na","gesture","na","ThumbUp","male","gesture-speech","1440","960","edge-chromium","30.17","Windows 10","21","female","right","Tue Oct 22 2024 21:06:05 GMT+0200 (Mitteleuropäische Sommerzeit)","1","80","0","1729626077327"
"1362","j","SpeechGestureMatch","../RequiredFiles/videos/NeinDaumenhoch_f.mp4","Ist der Ball in der grünen Box?","Blue","Green","J","affirmation","mismatch","gesture","no","ThumbUp","female","gesture-speech","1440","960","edge-chromium","30.17","Windows 10","21","female","right","Tue Oct 22 2024 21:06:12 GMT+0200 (Mitteleuropäische Sommerzeit)","1","81","0","1729626077327"
"1238","j","SpeechGestureMatch","../RequiredFiles/videos/NeinDaumenrunter_f_no_sound.mp4","Ist der Ball in der blauen Box?","Blue","Green","J","negation","na","gesture","na","ThumbDown","female","gesture-speech","1440","960","edge-chromium","30.17","Windows 10","21","female","right","Tue Oct 22 2024 21:06:19 GMT+0200 (Mitteleuropäische Sommerzeit)","1","82","0","1729626077327"
"1290","f","SpeechGestureMatch","../RequiredFiles/videos/JaDaumenrunter_f.mp4","Ist der Ball in der grünen Box?","Blue","Green","F","negation","mismatch","gesture","yes","ThumbDown","female","gesture-speech","1440","960","edge-chromium","30.17","Windows 10","21","female","right","Tue Oct 22 2024 21:06:26 GMT+0200 (Mitteleuropäische Sommerzeit)","1","83","0","1729626077327"
"1133","j","SpeechGestureMatch","../RequiredFiles/videos/NeinDaumenhoch_m_no_sound.mp4","Ist der Ball in der grünen Box?","Blue","Green","J","affirmation","na","gesture","na","ThumbUp","male","gesture-speech","1440","960","edge-chromium","30.17","Windows 10","21","female","right","Tue Oct 22 2024 21:06:32 GMT+0200 (Mitteleuropäische Sommerzeit)","1","84","0","1729626077327"
"1332","f","SpeechGestureMatch","../RequiredFiles/videos/NeinDaumenhoch_m.mp4","Ist der Ball in der grünen Box?","Green","Blue","F","affirmation","mismatch","gesture","no","ThumbUp","male","gesture-speech","1440","960","edge-chromium","30.17","Windows 10","21","female","right","Tue Oct 22 2024 21:06:39 GMT+0200 (Mitteleuropäische Sommerzeit)","1","85","0","1729626077327"
"953","f","SpeechGestureMatch","../RequiredFiles/videos/JaDaumenhoch_m.mp4","Ist der Ball in der grünen Box?","Green","Blue","F","affirmation","match","gesture","yes","ThumbUp","male","gesture-speech","1440","960","edge-chromium","30.17","Windows 10","21","female","right","Tue Oct 22 2024 21:06:46 GMT+0200 (Mitteleuropäische Sommerzeit)","1","86","0","1729626077327"
"1292","f","SpeechGestureMatch","../RequiredFiles/videos/NeinDaumenrunter_f.mp4","Ist der Ball in der blauen Box?","Green","Blue","F","negation","match","gesture","no","ThumbDown","female","gesture-speech","1440","960","edge-chromium","30.17","Windows 10","21","female","right","Tue Oct 22 2024 21:06:53 GMT+0200 (Mitteleuropäische Sommerzeit)","1","87","0","1729626077327"
"1479","f","SpeechGestureMatch","../RequiredFiles/videos/NeinDaumenrunter_m_no_sound.mp4","Ist der Ball in der grünen Box?","Blue","Green","F","negation","na","gesture","na","ThumbDown","male","gesture-speech","1440","960","edge-chromium","30.17","Windows 10","21","female","right","Tue Oct 22 2024 21:07:00 GMT+0200 (Mitteleuropäische Sommerzeit)","1","88","0","1729626077327"
"1109","j","SpeechGestureMatch","../RequiredFiles/videos/NeinDaumenhoch_m.mp4","Ist der Ball in der grünen Box?","Blue","Green","J","affirmation","mismatch","gesture","no","ThumbUp","male","gesture-speech","1440","960","edge-chromium","30.17","Windows 10","21","female","right","Tue Oct 22 2024 21:07:06 GMT+0200 (Mitteleuropäische Sommerzeit)","1","89","0","1729626077327"
"1026","j","SpeechGestureMatch","../RequiredFiles/videos/NeinDaumenrunter_m.mp4","Ist der Ball in der blauen Box?","Blue","Green","J","negation","match","gesture","no","ThumbDown","male","gesture-speech","1440","960","edge-chromium","30.17","Windows 10","21","female","right","Tue Oct 22 2024 21:07:13 GMT+0200 (Mitteleuropäische Sommerzeit)","1","90","0","1729626077327"
"846","j","SpeechGestureMatch","../RequiredFiles/videos/JaDaumenhoch_m.mp4","Ist der Ball in der blauen Box?","Green","Blue","J","affirmation","match","gesture","yes","ThumbUp","male","gesture-speech","1440","960","edge-chromium","30.17","Windows 10","21","female","right","Tue Oct 22 2024 21:07:19 GMT+0200 (Mitteleuropäische Sommerzeit)","1","91","0","1729626077327"
"813","j","SpeechGestureMatch","../RequiredFiles/videos/JaDaumenrunter_m_no_sound.mp4","Ist der Ball in der blauen Box?","Blue","Green","J","negation","na","gesture","na","ThumbDown","male","gesture-speech","1440","960","edge-chromium","30.17","Windows 10","21","female","right","Tue Oct 22 2024 21:07:26 GMT+0200 (Mitteleuropäische Sommerzeit)","1","92","0","1729626077327"
"854","j","SpeechGestureMatch","../RequiredFiles/videos/NeinDaumenhoch_f_no_sound.mp4","Ist der Ball in der grünen Box?","Blue","Green","J","affirmation","na","gesture","na","ThumbUp","female","gesture-speech","1440","960","edge-chromium","30.17","Windows 10","21","female","right","Tue Oct 22 2024 21:07:32 GMT+0200 (Mitteleuropäische Sommerzeit)","1","93","0","1729626077327"
"1280","f","SpeechGestureMatch","../RequiredFiles/videos/NeinDaumenhoch_f.mp4","Ist der Ball in der blauen Box?","Blue","Green","F","affirmation","mismatch","gesture","no","ThumbUp","female","gesture-speech","1440","960","edge-chromium","30.17","Windows 10","21","female","right","Tue Oct 22 2024 21:07:39 GMT+0200 (Mitteleuropäische Sommerzeit)","1","94","0","1729626077327"
"793","f","SpeechGestureMatch","../RequiredFiles/videos/JaDaumenhoch_m_no_sound.mp4","Ist der Ball in der grünen Box?","Blue","Green","J","affirmation","na","gesture","na","ThumbUp","male","gesture-speech","1440","960","edge-chromium","30.17","Windows 10","21","female","right","Tue Oct 22 2024 21:07:45 GMT+0200 (Mitteleuropäische Sommerzeit)","1","95","1","1729626077327"
"820","f","SpeechGestureMatch","../RequiredFiles/videos/NeinDaumenrunter_f_no_sound.mp4","Ist der Ball in der blauen Box?","Green","Blue","F","negation","na","gesture","na","ThumbDown","female","gesture-speech","1440","960","edge-chromium","30.17","Windows 10","21","female","right","Tue Oct 22 2024 21:07:51 GMT+0200 (Mitteleuropäische Sommerzeit)","1","96","0","1729626077327"
"1701","f","SpeechGestureMatch","../RequiredFiles/videos/JaDaumenhoch_f.mp4","Ist der Ball in der blauen Box?","Blue","Green","F","affirmation","match","gesture","yes","ThumbUp","female","gesture-speech","1440","960","edge-chromium","30.17","Windows 10","21","female","right","Tue Oct 22 2024 21:08:14 GMT+0200 (Mitteleuropäische Sommerzeit)","2","1","0","1729626077327"
"970","f","SpeechGestureMatch","../RequiredFiles/videos/NeinDaumenrunter_f.mp4","Ist der Ball in der grünen Box?","Blue","Green","F","negation","match","gesture","no","ThumbDown","female","gesture-speech","1440","960","edge-chromium","30.17","Windows 10","21","female","right","Tue Oct 22 2024 21:08:20 GMT+0200 (Mitteleuropäische Sommerzeit)","2","2","0","1729626077327"
"877","f","SpeechGestureMatch","../RequiredFiles/videos/NeinDaumenhoch_m.mp4","Ist der Ball in der grünen Box?","Green","Blue","F","affirmation","mismatch","gesture","no","ThumbUp","male","gesture-speech","1440","960","edge-chromium","30.17","Windows 10","21","female","right","Tue Oct 22 2024 21:08:27 GMT+0200 (Mitteleuropäische Sommerzeit)","2","3","0","1729626077327"
"755","f","SpeechGestureMatch","../RequiredFiles/videos/JaDaumenhoch_f_no_sound.mp4","Ist der Ball in der blauen Box?","Blue","Green","F","affirmation","na","gesture","na","ThumbUp","female","gesture-speech","1440","960","edge-chromium","30.17","Windows 10","21","female","right","Tue Oct 22 2024 21:08:33 GMT+0200 (Mitteleuropäische Sommerzeit)","2","4","0","1729626077327"
"1127","j","SpeechGestureMatch","../RequiredFiles/videos/JaDaumenhoch_f.mp4","Ist der Ball in der blauen Box?","Green","Blue","J","affirmation","match","gesture","yes","ThumbUp","female","gesture-speech","1440","960","edge-chromium","30.17","Windows 10","21","female","right","Tue Oct 22 2024 21:08:40 GMT+0200 (Mitteleuropäische Sommerzeit)","2","5","0","1729626077327"
"1030","f","SpeechGestureMatch","../RequiredFiles/videos/NeinDaumenrunter_f.mp4","Ist der Ball in der blauen Box?","Green","Blue","F","negation","match","gesture","no","ThumbDown","female","gesture-speech","1440","960","edge-chromium","30.17","Windows 10","21","female","right","Tue Oct 22 2024 21:08:46 GMT+0200 (Mitteleuropäische Sommerzeit)","2","6","0","1729626077327"
"767","j","SpeechGestureMatch","../RequiredFiles/videos/JaDaumenhoch_m.mp4","Ist der Ball in der grünen Box?","Blue","Green","J","affirmation","match","gesture","yes","ThumbUp","male","gesture-speech","1440","960","edge-chromium","30.17","Windows 10","21","female","right","Tue Oct 22 2024 21:08:53 GMT+0200 (Mitteleuropäische Sommerzeit)","2","7","0","1729626077327"
"923","f","SpeechGestureMatch","../RequiredFiles/videos/JaDaumenrunter_f.mp4","Ist der Ball in der blauen Box?","Green","Blue","F","negation","mismatch","gesture","yes","ThumbDown","female","gesture-speech","1440","960","edge-chromium","30.17","Windows 10","21","female","right","Tue Oct 22 2024 21:08:59 GMT+0200 (Mitteleuropäische Sommerzeit)","2","8","0","1729626077327"
"909","f","SpeechGestureMatch","../RequiredFiles/videos/JaDaumenrunter_m.mp4","Ist der Ball in der grünen Box?","Blue","Green","F","negation","mismatch","gesture","yes","ThumbDown","male","gesture-speech","1440","960","edge-chromium","30.17","Windows 10","21","female","right","Tue Oct 22 2024 21:09:06 GMT+0200 (Mitteleuropäische Sommerzeit)","2","9","0","1729626077327"
"921","j","SpeechGestureMatch","../RequiredFiles/videos/NeinDaumenrunter_m.mp4","Ist der Ball in der blauen Box?","Blue","Green","J","negation","match","gesture","no","ThumbDown","male","gesture-speech","1440","960","edge-chromium","30.17","Windows 10","21","female","right","Tue Oct 22 2024 21:09:12 GMT+0200 (Mitteleuropäische Sommerzeit)","2","10","0","1729626077327"
"944","j","SpeechGestureMatch","../RequiredFiles/videos/JaDaumenrunter_m_no_sound.mp4","Ist der Ball in der blauen Box?","Blue","Green","J","negation","na","gesture","na","ThumbDown","male","gesture-speech","1440","960","edge-chromium","30.17","Windows 10","21","female","right","Tue Oct 22 2024 21:09:19 GMT+0200 (Mitteleuropäische Sommerzeit)","2","11","0","1729626077327"
"820","j","SpeechGestureMatch","../RequiredFiles/videos/JaDaumenhoch_m_no_sound.mp4","Ist der Ball in der blauen Box?","Green","Blue","J","affirmation","na","gesture","na","ThumbUp","male","gesture-speech","1440","960","edge-chromium","30.17","Windows 10","21","female","right","Tue Oct 22 2024 21:09:25 GMT+0200 (Mitteleuropäische Sommerzeit)","2","12","0","1729626077327"
"1264","f","SpeechGestureMatch","../RequiredFiles/videos/JaDaumenhoch_m.mp4","Ist der Ball in der grünen Box?","Green","Blue","F","affirmation","match","gesture","yes","ThumbUp","male","gesture-speech","1440","960","edge-chromium","30.17","Windows 10","21","female","right","Tue Oct 22 2024 21:09:32 GMT+0200 (Mitteleuropäische Sommerzeit)","2","13","0","1729626077327"
"900","f","SpeechGestureMatch","../RequiredFiles/videos/JaDaumenhoch_m_no_sound.mp4","Ist der Ball in der grünen Box?","Green","Blue","F","affirmation","na","gesture","na","ThumbUp","male","gesture-speech","1440","960","edge-chromium","30.17","Windows 10","21","female","right","Tue Oct 22 2024 21:09:38 GMT+0200 (Mitteleuropäische Sommerzeit)","2","14","0","1729626077327"
"1113","f","SpeechGestureMatch","../RequiredFiles/videos/JaDaumenrunter_m.mp4","Ist der Ball in der blauen Box?","Green","Blue","F","negation","mismatch","gesture","yes","ThumbDown","male","gesture-speech","1440","960","edge-chromium","30.17","Windows 10","21","female","right","Tue Oct 22 2024 21:09:45 GMT+0200 (Mitteleuropäische Sommerzeit)","2","15","0","1729626077327"
"1104","j","SpeechGestureMatch","../RequiredFiles/videos/NeinDaumenrunter_f.mp4","Ist der Ball in der grünen Box?","Green","Blue","J","negation","match","gesture","no","ThumbDown","female","gesture-speech","1440","960","edge-chromium","30.17","Windows 10","21","female","right","Tue Oct 22 2024 21:09:51 GMT+0200 (Mitteleuropäische Sommerzeit)","2","16","0","1729626077327"
"910","f","SpeechGestureMatch","../RequiredFiles/videos/JaDaumenhoch_m.mp4","Ist der Ball in der grünen Box?","Green","Blue","F","affirmation","match","gesture","yes","ThumbUp","male","gesture-speech","1440","960","edge-chromium","30.17","Windows 10","21","female","right","Tue Oct 22 2024 21:09:58 GMT+0200 (Mitteleuropäische Sommerzeit)","2","17","0","1729626077327"
"1211","j","SpeechGestureMatch","../RequiredFiles/videos/JaDaumenrunter_f.mp4","Ist der Ball in der blauen Box?","Blue","Green","J","negation","mismatch","gesture","yes","ThumbDown","female","gesture-speech","1440","960","edge-chromium","30.17","Windows 10","21","female","right","Tue Oct 22 2024 21:10:05 GMT+0200 (Mitteleuropäische Sommerzeit)","2","18","0","1729626077327"
"1028","j","SpeechGestureMatch","../RequiredFiles/videos/NeinDaumenhoch_m.mp4","Ist der Ball in der blauen Box?","Green","Blue","J","affirmation","mismatch","gesture","no","ThumbUp","male","gesture-speech","1440","960","edge-chromium","30.17","Windows 10","21","female","right","Tue Oct 22 2024 21:10:11 GMT+0200 (Mitteleuropäische Sommerzeit)","2","19","0","1729626077327"
"853","f","SpeechGestureMatch","../RequiredFiles/videos/JaDaumenrunter_m_no_sound.mp4","Ist der Ball in der blauen Box?","Green","Blue","F","negation","na","gesture","na","ThumbDown","male","gesture-speech","1440","960","edge-chromium","30.17","Windows 10","21","female","right","Tue Oct 22 2024 21:10:18 GMT+0200 (Mitteleuropäische Sommerzeit)","2","20","0","1729626077327"
"1624","f","SpeechGestureMatch","../RequiredFiles/videos/JaDaumenhoch_f.mp4","Ist der Ball in der grünen Box?","Green","Blue","F","affirmation","match","gesture","yes","ThumbUp","female","gesture-speech","1440","960","edge-chromium","30.17","Windows 10","21","female","right","Tue Oct 22 2024 21:10:25 GMT+0200 (Mitteleuropäische Sommerzeit)","2","21","0","1729626077327"
"890","j","SpeechGestureMatch","../RequiredFiles/videos/JaDaumenhoch_m.mp4","Ist der Ball in der blauen Box?","Green","Blue","J","affirmation","match","gesture","yes","ThumbUp","male","gesture-speech","1440","960","edge-chromium","30.17","Windows 10","21","female","right","Tue Oct 22 2024 21:10:31 GMT+0200 (Mitteleuropäische Sommerzeit)","2","22","0","1729626077327"
"836","j","SpeechGestureMatch","../RequiredFiles/videos/JaDaumenrunter_m_no_sound.mp4","Ist der Ball in der grünen Box?","Green","Blue","J","negation","na","gesture","na","ThumbDown","male","gesture-speech","1440","960","edge-chromium","30.17","Windows 10","21","female","right","Tue Oct 22 2024 21:10:38 GMT+0200 (Mitteleuropäische Sommerzeit)","2","23","0","1729626077327"
"1128","f","SpeechGestureMatch","../RequiredFiles/videos/NeinDaumenhoch_m.mp4","Ist der Ball in der grünen Box?","Green","Blue","F","affirmation","mismatch","gesture","no","ThumbUp","male","gesture-speech","1440","960","edge-chromium","30.17","Windows 10","21","female","right","Tue Oct 22 2024 21:10:44 GMT+0200 (Mitteleuropäische Sommerzeit)","2","24","0","1729626077327"
"1047","j","SpeechGestureMatch","../RequiredFiles/videos/NeinDaumenrunter_m.mp4","Ist der Ball in der blauen Box?","Green","Blue","F","negation","match","gesture","no","ThumbDown","male","gesture-speech","1440","960","edge-chromium","30.17","Windows 10","21","female","right","Tue Oct 22 2024 21:10:51 GMT+0200 (Mitteleuropäische Sommerzeit)","2","25","1","1729626077327"
"1051","j","SpeechGestureMatch","../RequiredFiles/videos/NeinDaumenrunter_m.mp4","Ist der Ball in der blauen Box?","Blue","Green","J","negation","match","gesture","no","ThumbDown","male","gesture-speech","1440","960","edge-chromium","30.17","Windows 10","21","female","right","Tue Oct 22 2024 21:10:58 GMT+0200 (Mitteleuropäische Sommerzeit)","2","26","0","1729626077327"
"800","j","SpeechGestureMatch","../RequiredFiles/videos/NeinDaumenrunter_m_no_sound.mp4","Ist der Ball in der grünen Box?","Green","Blue","J","negation","na","gesture","na","ThumbDown","male","gesture-speech","1440","960","edge-chromium","30.17","Windows 10","21","female","right","Tue Oct 22 2024 21:11:04 GMT+0200 (Mitteleuropäische Sommerzeit)","2","27","0","1729626077327"
"991","f","SpeechGestureMatch","../RequiredFiles/videos/NeinDaumenhoch_f.mp4","Ist der Ball in der blauen Box?","Blue","Green","F","affirmation","mismatch","gesture","no","ThumbUp","female","gesture-speech","1440","960","edge-chromium","30.17","Windows 10","21","female","right","Tue Oct 22 2024 21:11:10 GMT+0200 (Mitteleuropäische Sommerzeit)","2","28","0","1729626077327"
"857","j","SpeechGestureMatch","../RequiredFiles/videos/NeinDaumenhoch_m.mp4","Ist der Ball in der grünen Box?","Blue","Green","J","affirmation","mismatch","gesture","no","ThumbUp","male","gesture-speech","1440","960","edge-chromium","30.17","Windows 10","21","female","right","Tue Oct 22 2024 21:11:17 GMT+0200 (Mitteleuropäische Sommerzeit)","2","29","0","1729626077327"
"883","f","SpeechGestureMatch","../RequiredFiles/videos/JaDaumenhoch_m_no_sound.mp4","Ist der Ball in der blauen Box?","Blue","Green","F","affirmation","na","gesture","na","ThumbUp","male","gesture-speech","1440","960","edge-chromium","30.17","Windows 10","21","female","right","Tue Oct 22 2024 21:11:23 GMT+0200 (Mitteleuropäische Sommerzeit)","2","30","0","1729626077327"
"1002","j","SpeechGestureMatch","../RequiredFiles/videos/JaDaumenhoch_f.mp4","Ist der Ball in der grünen Box?","Blue","Green","J","affirmation","match","gesture","yes","ThumbUp","female","gesture-speech","1440","960","edge-chromium","30.17","Windows 10","21","female","right","Tue Oct 22 2024 21:11:30 GMT+0200 (Mitteleuropäische Sommerzeit)","2","31","0","1729626077327"
"1149","j","SpeechGestureMatch","../RequiredFiles/videos/JaDaumenhoch_f_no_sound.mp4","Ist der Ball in der grünen Box?","Blue","Green","J","affirmation","na","gesture","na","ThumbUp","female","gesture-speech","1440","960","edge-chromium","30.17","Windows 10","21","female","right","Tue Oct 22 2024 21:11:36 GMT+0200 (Mitteleuropäische Sommerzeit)","2","32","0","1729626077327"
"1351","j","SpeechGestureMatch","../RequiredFiles/videos/NeinDaumenrunter_f.mp4","Ist der Ball in der blauen Box?","Blue","Green","J","negation","match","gesture","no","ThumbDown","female","gesture-speech","1440","960","edge-chromium","30.17","Windows 10","21","female","right","Tue Oct 22 2024 21:11:43 GMT+0200 (Mitteleuropäische Sommerzeit)","2","33","0","1729626077327"
"827","j","SpeechGestureMatch","../RequiredFiles/videos/NeinDaumenrunter_m.mp4","Ist der Ball in der grünen Box?","Green","Blue","J","negation","match","gesture","no","ThumbDown","male","gesture-speech","1440","960","edge-chromium","30.17","Windows 10","21","female","right","Tue Oct 22 2024 21:11:50 GMT+0200 (Mitteleuropäische Sommerzeit)","2","34","0","1729626077327"
"1165","j","SpeechGestureMatch","../RequiredFiles/videos/JaDaumenrunter_f_no_sound.mp4","Ist der Ball in der grünen Box?","Blue","Green","F","negation","na","gesture","na","ThumbDown","female","gesture-speech","1440","960","edge-chromium","30.17","Windows 10","21","female","right","Tue Oct 22 2024 21:11:56 GMT+0200 (Mitteleuropäische Sommerzeit)","2","35","1","1729626077327"
"1133","j","SpeechGestureMatch","../RequiredFiles/videos/NeinDaumenrunter_m_no_sound.mp4","Ist der Ball in der blauen Box?","Blue","Green","J","negation","na","gesture","na","ThumbDown","male","gesture-speech","1440","960","edge-chromium","30.17","Windows 10","21","female","right","Tue Oct 22 2024 21:12:03 GMT+0200 (Mitteleuropäische Sommerzeit)","2","36","0","1729626077327"
"1445","j","SpeechGestureMatch","../RequiredFiles/videos/NeinDaumenhoch_f.mp4","Ist der Ball in der grünen Box?","Blue","Green","J","affirmation","mismatch","gesture","no","ThumbUp","female","gesture-speech","1440","960","edge-chromium","30.17","Windows 10","21","female","right","Tue Oct 22 2024 21:12:10 GMT+0200 (Mitteleuropäische Sommerzeit)","2","37","0","1729626077327"
"750","j","SpeechGestureMatch","../RequiredFiles/videos/JaDaumenhoch_m.mp4","Ist der Ball in der blauen Box?","Green","Blue","J","affirmation","match","gesture","yes","ThumbUp","male","gesture-speech","1440","960","edge-chromium","30.17","Windows 10","21","female","right","Tue Oct 22 2024 21:12:16 GMT+0200 (Mitteleuropäische Sommerzeit)","2","38","0","1729626077327"
"869","j","SpeechGestureMatch","../RequiredFiles/videos/NeinDaumenhoch_f.mp4","Ist der Ball in der blauen Box?","Green","Blue","J","affirmation","mismatch","gesture","no","ThumbUp","female","gesture-speech","1440","960","edge-chromium","30.17","Windows 10","21","female","right","Tue Oct 22 2024 21:12:23 GMT+0200 (Mitteleuropäische Sommerzeit)","2","39","0","1729626077327"
"1089","j","SpeechGestureMatch","../RequiredFiles/videos/JaDaumenrunter_f_no_sound.mp4","Ist der Ball in der blauen Box?","Blue","Green","J","negation","na","gesture","na","ThumbDown","female","gesture-speech","1440","960","edge-chromium","30.17","Windows 10","21","female","right","Tue Oct 22 2024 21:12:29 GMT+0200 (Mitteleuropäische Sommerzeit)","2","40","0","1729626077327"
"847","f","SpeechGestureMatch","../RequiredFiles/videos/NeinDaumenhoch_f.mp4","Ist der Ball in der blauen Box?","Blue","Green","F","affirmation","mismatch","gesture","no","ThumbUp","female","gesture-speech","1440","960","edge-chromium","30.17","Windows 10","21","female","right","Tue Oct 22 2024 21:12:36 GMT+0200 (Mitteleuropäische Sommerzeit)","2","41","0","1729626077327"
"1021","j","SpeechGestureMatch","../RequiredFiles/videos/NeinDaumenhoch_m.mp4","Ist der Ball in der blauen Box?","Green","Blue","J","affirmation","mismatch","gesture","no","ThumbUp","male","gesture-speech","1440","960","edge-chromium","30.17","Windows 10","21","female","right","Tue Oct 22 2024 21:12:42 GMT+0200 (Mitteleuropäische Sommerzeit)","2","42","0","1729626077327"
"877","f","SpeechGestureMatch","../RequiredFiles/videos/NeinDaumenrunter_m.mp4","Ist der Ball in der grünen Box?","Blue","Green","F","negation","match","gesture","no","ThumbDown","male","gesture-speech","1440","960","edge-chromium","30.17","Windows 10","21","female","right","Tue Oct 22 2024 21:12:49 GMT+0200 (Mitteleuropäische Sommerzeit)","2","43","0","1729626077327"
"1150","j","SpeechGestureMatch","../RequiredFiles/videos/JaDaumenrunter_m.mp4","Ist der Ball in der blauen Box?","Blue","Green","J","negation","mismatch","gesture","yes","ThumbDown","male","gesture-speech","1440","960","edge-chromium","30.17","Windows 10","21","female","right","Tue Oct 22 2024 21:12:55 GMT+0200 (Mitteleuropäische Sommerzeit)","2","44","0","1729626077327"
"1045","f","SpeechGestureMatch","../RequiredFiles/videos/JaDaumenrunter_f_no_sound.mp4","Ist der Ball in der blauen Box?","Green","Blue","F","negation","na","gesture","na","ThumbDown","female","gesture-speech","1440","960","edge-chromium","30.17","Windows 10","21","female","right","Tue Oct 22 2024 21:13:02 GMT+0200 (Mitteleuropäische Sommerzeit)","2","45","0","1729626077327"
"788","f","SpeechGestureMatch","../RequiredFiles/videos/NeinDaumenrunter_f_no_sound.mp4","Ist der Ball in der blauen Box?","Green","Blue","F","negation","na","gesture","na","ThumbDown","female","gesture-speech","1440","960","edge-chromium","30.17","Windows 10","21","female","right","Tue Oct 22 2024 21:13:08 GMT+0200 (Mitteleuropäische Sommerzeit)","2","46","0","1729626077327"
"773","f","SpeechGestureMatch","../RequiredFiles/videos/NeinDaumenrunter_m_no_sound.mp4","Ist der Ball in der grünen Box?","Blue","Green","F","negation","na","gesture","na","ThumbDown","male","gesture-speech","1440","960","edge-chromium","30.17","Windows 10","21","female","right","Tue Oct 22 2024 21:13:15 GMT+0200 (Mitteleuropäische Sommerzeit)","2","47","0","1729626077327"
"867","f","SpeechGestureMatch","../RequiredFiles/videos/NeinDaumenrunter_f_no_sound.mp4","Ist der Ball in der blauen Box?","Blue","Green","J","negation","na","gesture","na","ThumbDown","female","gesture-speech","1440","960","edge-chromium","30.17","Windows 10","21","female","right","Tue Oct 22 2024 21:13:21 GMT+0200 (Mitteleuropäische Sommerzeit)","2","48","1","1729626077327"
"1403","j","SpeechGestureMatch","../RequiredFiles/videos/NeinDaumenrunter_m.mp4","Ist der Ball in der grünen Box?","Green","Blue","J","negation","match","gesture","no","ThumbDown","male","gesture-speech","1440","960","edge-chromium","30.17","Windows 10","21","female","right","Tue Oct 22 2024 21:13:28 GMT+0200 (Mitteleuropäische Sommerzeit)","2","49","0","1729626077327"
"940","f","SpeechGestureMatch","../RequiredFiles/videos/JaDaumenrunter_f.mp4","Ist der Ball in der blauen Box?","Green","Blue","F","negation","mismatch","gesture","yes","ThumbDown","female","gesture-speech","1440","960","edge-chromium","30.17","Windows 10","21","female","right","Tue Oct 22 2024 21:13:35 GMT+0200 (Mitteleuropäische Sommerzeit)","2","50","0","1729626077327"
"746","f","SpeechGestureMatch","../RequiredFiles/videos/NeinDaumenrunter_f.mp4","Ist der Ball in der blauen Box?","Green","Blue","F","negation","match","gesture","no","ThumbDown","female","gesture-speech","1440","960","edge-chromium","30.17","Windows 10","21","female","right","Tue Oct 22 2024 21:13:41 GMT+0200 (Mitteleuropäische Sommerzeit)","2","51","0","1729626077327"
"1213","j","SpeechGestureMatch","../RequiredFiles/videos/NeinDaumenhoch_f.mp4","Ist der Ball in der grünen Box?","Blue","Green","J","affirmation","mismatch","gesture","no","ThumbUp","female","gesture-speech","1440","960","edge-chromium","30.17","Windows 10","21","female","right","Tue Oct 22 2024 21:13:48 GMT+0200 (Mitteleuropäische Sommerzeit)","2","52","0","1729626077327"
"1180","f","SpeechGestureMatch","../RequiredFiles/videos/JaDaumenrunter_m.mp4","Ist der Ball in der blauen Box?","Blue","Green","J","negation","mismatch","gesture","yes","ThumbDown","male","gesture-speech","1440","960","edge-chromium","30.17","Windows 10","21","female","right","Tue Oct 22 2024 21:13:54 GMT+0200 (Mitteleuropäische Sommerzeit)","2","53","1","1729626077327"
"881","f","SpeechGestureMatch","../RequiredFiles/videos/NeinDaumenhoch_m_no_sound.mp4","Ist der Ball in der blauen Box?","Blue","Green","F","affirmation","na","gesture","na","ThumbUp","male","gesture-speech","1440","960","edge-chromium","30.17","Windows 10","21","female","right","Tue Oct 22 2024 21:14:01 GMT+0200 (Mitteleuropäische Sommerzeit)","2","54","0","1729626077327"
"962","j","SpeechGestureMatch","../RequiredFiles/videos/NeinDaumenhoch_m_no_sound.mp4","Ist der Ball in der grünen Box?","Blue","Green","J","affirmation","na","gesture","na","ThumbUp","male","gesture-speech","1440","960","edge-chromium","30.17","Windows 10","21","female","right","Tue Oct 22 2024 21:14:07 GMT+0200 (Mitteleuropäische Sommerzeit)","2","55","0","1729626077327"
"868","j","SpeechGestureMatch","../RequiredFiles/videos/NeinDaumenhoch_m_no_sound.mp4","Ist der Ball in der blauen Box?","Green","Blue","J","affirmation","na","gesture","na","ThumbUp","male","gesture-speech","1440","960","edge-chromium","30.17","Windows 10","21","female","right","Tue Oct 22 2024 21:14:14 GMT+0200 (Mitteleuropäische Sommerzeit)","2","56","0","1729626077327"
"1430","j","SpeechGestureMatch","../RequiredFiles/videos/JaDaumenrunter_m.mp4","Ist der Ball in der grünen Box?","Green","Blue","J","negation","mismatch","gesture","yes","ThumbDown","male","gesture-speech","1440","960","edge-chromium","30.17","Windows 10","21","female","right","Tue Oct 22 2024 21:14:21 GMT+0200 (Mitteleuropäische Sommerzeit)","2","57","0","1729626077327"
"770","f","SpeechGestureMatch","../RequiredFiles/videos/NeinDaumenhoch_m_no_sound.mp4","Ist der Ball in der grünen Box?","Green","Blue","F","affirmation","na","gesture","na","ThumbUp","male","gesture-speech","1440","960","edge-chromium","30.17","Windows 10","21","female","right","Tue Oct 22 2024 21:14:27 GMT+0200 (Mitteleuropäische Sommerzeit)","2","58","0","1729626077327"
"1065","f","SpeechGestureMatch","../RequiredFiles/videos/NeinDaumenhoch_f.mp4","Ist der Ball in der grünen Box?","Green","Blue","F","affirmation","mismatch","gesture","no","ThumbUp","female","gesture-speech","1440","960","edge-chromium","30.17","Windows 10","21","female","right","Tue Oct 22 2024 21:14:34 GMT+0200 (Mitteleuropäische Sommerzeit)","2","59","0","1729626077327"
"854","j","SpeechGestureMatch","../RequiredFiles/videos/JaDaumenhoch_f_no_sound.mp4","Ist der Ball in der blauen Box?","Green","Blue","J","affirmation","na","gesture","na","ThumbUp","female","gesture-speech","1440","960","edge-chromium","30.17","Windows 10","21","female","right","Tue Oct 22 2024 21:14:40 GMT+0200 (Mitteleuropäische Sommerzeit)","2","60","0","1729626077327"
"1118","f","SpeechGestureMatch","../RequiredFiles/videos/NeinDaumenrunter_m.mp4","Ist der Ball in der grünen Box?","Blue","Green","F","negation","match","gesture","no","ThumbDown","male","gesture-speech","1440","960","edge-chromium","30.17","Windows 10","21","female","right","Tue Oct 22 2024 21:14:47 GMT+0200 (Mitteleuropäische Sommerzeit)","2","61","0","1729626077327"
"1011","f","SpeechGestureMatch","../RequiredFiles/videos/JaDaumenrunter_m_no_sound.mp4","Ist der Ball in der grünen Box?","Blue","Green","F","negation","na","gesture","na","ThumbDown","male","gesture-speech","1440","960","edge-chromium","30.17","Windows 10","21","female","right","Tue Oct 22 2024 21:14:53 GMT+0200 (Mitteleuropäische Sommerzeit)","2","62","0","1729626077327"
"1113","j","SpeechGestureMatch","../RequiredFiles/videos/NeinDaumenrunter_f.mp4","Ist der Ball in der blauen Box?","Blue","Green","J","negation","match","gesture","no","ThumbDown","female","gesture-speech","1440","960","edge-chromium","30.17","Windows 10","21","female","right","Tue Oct 22 2024 21:15:00 GMT+0200 (Mitteleuropäische Sommerzeit)","2","63","0","1729626077327"
"990","f","SpeechGestureMatch","../RequiredFiles/videos/JaDaumenrunter_f.mp4","Ist der Ball in der grünen Box?","Blue","Green","F","negation","mismatch","gesture","yes","ThumbDown","female","gesture-speech","1440","960","edge-chromium","30.17","Windows 10","21","female","right","Tue Oct 22 2024 21:15:06 GMT+0200 (Mitteleuropäische Sommerzeit)","2","64","0","1729626077327"
"863","f","SpeechGestureMatch","../RequiredFiles/videos/JaDaumenhoch_f_no_sound.mp4","Ist der Ball in der grünen Box?","Green","Blue","F","affirmation","na","gesture","na","ThumbUp","female","gesture-speech","1440","960","edge-chromium","30.17","Windows 10","21","female","right","Tue Oct 22 2024 21:15:13 GMT+0200 (Mitteleuropäische Sommerzeit)","2","65","0","1729626077327"
"1103","f","SpeechGestureMatch","../RequiredFiles/videos/JaDaumenrunter_m.mp4","Ist der Ball in der grünen Box?","Blue","Green","F","negation","mismatch","gesture","yes","ThumbDown","male","gesture-speech","1440","960","edge-chromium","30.17","Windows 10","21","female","right","Tue Oct 22 2024 21:15:19 GMT+0200 (Mitteleuropäische Sommerzeit)","2","66","0","1729626077327"
"1481","j","SpeechGestureMatch","../RequiredFiles/videos/NeinDaumenhoch_f_no_sound.mp4","Ist der Ball in der blauen Box?","Green","Blue","J","affirmation","na","gesture","na","ThumbUp","female","gesture-speech","1440","960","edge-chromium","30.17","Windows 10","21","female","right","Tue Oct 22 2024 21:15:26 GMT+0200 (Mitteleuropäische Sommerzeit)","2","67","0","1729626077327"
"934","j","SpeechGestureMatch","../RequiredFiles/videos/NeinDaumenrunter_f_no_sound.mp4","Ist der Ball in der grünen Box?","Green","Blue","J","negation","na","gesture","na","ThumbDown","female","gesture-speech","1440","960","edge-chromium","30.17","Windows 10","21","female","right","Tue Oct 22 2024 21:15:33 GMT+0200 (Mitteleuropäische Sommerzeit)","2","68","0","1729626077327"
"816","f","SpeechGestureMatch","../RequiredFiles/videos/NeinDaumenhoch_f_no_sound.mp4","Ist der Ball in der grünen Box?","Green","Blue","F","affirmation","na","gesture","na","ThumbUp","female","gesture-speech","1440","960","edge-chromium","30.17","Windows 10","21","female","right","Tue Oct 22 2024 21:15:39 GMT+0200 (Mitteleuropäische Sommerzeit)","2","69","0","1729626077327"
"1158","f","SpeechGestureMatch","../RequiredFiles/videos/JaDaumenhoch_m.mp4","Ist der Ball in der blauen Box?","Blue","Green","F","affirmation","match","gesture","yes","ThumbUp","male","gesture-speech","1440","960","edge-chromium","30.17","Windows 10","21","female","right","Tue Oct 22 2024 21:15:46 GMT+0200 (Mitteleuropäische Sommerzeit)","2","70","0","1729626077327"
"988","j","SpeechGestureMatch","../RequiredFiles/videos/NeinDaumenrunter_f.mp4","Ist der Ball in der grünen Box?","Green","Blue","J","negation","match","gesture","no","ThumbDown","female","gesture-speech","1440","960","edge-chromium","30.17","Windows 10","21","female","right","Tue Oct 22 2024 21:15:53 GMT+0200 (Mitteleuropäische Sommerzeit)","2","71","0","1729626077327"
"1023","j","SpeechGestureMatch","../RequiredFiles/videos/JaDaumenrunter_f.mp4","Ist der Ball in der grünen Box?","Green","Blue","J","negation","mismatch","gesture","yes","ThumbDown","female","gesture-speech","1440","960","edge-chromium","30.17","Windows 10","21","female","right","Tue Oct 22 2024 21:15:59 GMT+0200 (Mitteleuropäische Sommerzeit)","2","72","0","1729626077327"
"1067","f","SpeechGestureMatch","../RequiredFiles/videos/NeinDaumenhoch_f.mp4","Ist der Ball in der grünen Box?","Green","Blue","F","affirmation","mismatch","gesture","no","ThumbUp","female","gesture-speech","1440","960","edge-chromium","30.17","Windows 10","21","female","right","Tue Oct 22 2024 21:16:06 GMT+0200 (Mitteleuropäische Sommerzeit)","2","73","0","1729626077327"
"1021","f","SpeechGestureMatch","../RequiredFiles/videos/NeinDaumenrunter_f_no_sound.mp4","Ist der Ball in der grünen Box?","Blue","Green","F","negation","na","gesture","na","ThumbDown","female","gesture-speech","1440","960","edge-chromium","30.17","Windows 10","21","female","right","Tue Oct 22 2024 21:16:12 GMT+0200 (Mitteleuropäische Sommerzeit)","2","74","0","1729626077327"
"943","j","SpeechGestureMatch","../RequiredFiles/videos/JaDaumenhoch_m_no_sound.mp4","Ist der Ball in der grünen Box?","Blue","Green","J","affirmation","na","gesture","na","ThumbUp","male","gesture-speech","1440","960","edge-chromium","30.17","Windows 10","21","female","right","Tue Oct 22 2024 21:16:19 GMT+0200 (Mitteleuropäische Sommerzeit)","2","75","0","1729626077327"
"1321","f","SpeechGestureMatch","../RequiredFiles/videos/JaDaumenhoch_m.mp4","Ist der Ball in der blauen Box?","Blue","Green","F","affirmation","match","gesture","yes","ThumbUp","male","gesture-speech","1440","960","edge-chromium","30.17","Windows 10","21","female","right","Tue Oct 22 2024 21:16:26 GMT+0200 (Mitteleuropäische Sommerzeit)","2","76","0","1729626077327"
"1075","f","SpeechGestureMatch","../RequiredFiles/videos/JaDaumenrunter_f.mp4","Ist der Ball in der grünen Box?","Blue","Green","F","negation","mismatch","gesture","yes","ThumbDown","female","gesture-speech","1440","960","edge-chromium","30.17","Windows 10","21","female","right","Tue Oct 22 2024 21:16:32 GMT+0200 (Mitteleuropäische Sommerzeit)","2","77","0","1729626077327"
"1286","j","SpeechGestureMatch","../RequiredFiles/videos/NeinDaumenhoch_m.mp4","Ist der Ball in der grünen Box?","Blue","Green","J","affirmation","mismatch","gesture","no","ThumbUp","male","gesture-speech","1440","960","edge-chromium","30.17","Windows 10","21","female","right","Tue Oct 22 2024 21:16:39 GMT+0200 (Mitteleuropäische Sommerzeit)","2","78","0","1729626077327"
"1021","f","SpeechGestureMatch","../RequiredFiles/videos/NeinDaumenhoch_f_no_sound.mp4","Ist der Ball in der blauen Box?","Blue","Green","F","affirmation","na","gesture","na","ThumbUp","female","gesture-speech","1440","960","edge-chromium","30.17","Windows 10","21","female","right","Tue Oct 22 2024 21:16:46 GMT+0200 (Mitteleuropäische Sommerzeit)","2","79","0","1729626077327"
"1017","f","SpeechGestureMatch","../RequiredFiles/videos/NeinDaumenhoch_m.mp4","Ist der Ball in der blauen Box?","Blue","Green","F","affirmation","mismatch","gesture","no","ThumbUp","male","gesture-speech","1440","960","edge-chromium","30.17","Windows 10","21","female","right","Tue Oct 22 2024 21:16:52 GMT+0200 (Mitteleuropäische Sommerzeit)","2","80","0","1729626077327"
"897","j","SpeechGestureMatch","../RequiredFiles/videos/NeinDaumenhoch_f_no_sound.mp4","Ist der Ball in der grünen Box?","Blue","Green","J","affirmation","na","gesture","na","ThumbUp","female","gesture-speech","1440","960","edge-chromium","30.17","Windows 10","21","female","right","Tue Oct 22 2024 21:16:59 GMT+0200 (Mitteleuropäische Sommerzeit)","2","81","0","1729626077327"
"1066","f","SpeechGestureMatch","../RequiredFiles/videos/JaDaumenhoch_f.mp4","Ist der Ball in der blauen Box?","Blue","Green","F","affirmation","match","gesture","yes","ThumbUp","female","gesture-speech","1440","960","edge-chromium","30.17","Windows 10","21","female","right","Tue Oct 22 2024 21:17:05 GMT+0200 (Mitteleuropäische Sommerzeit)","2","82","0","1729626077327"
"956","f","SpeechGestureMatch","../RequiredFiles/videos/NeinDaumenrunter_m.mp4","Ist der Ball in der blauen Box?","Green","Blue","F","negation","match","gesture","no","ThumbDown","male","gesture-speech","1440","960","edge-chromium","30.17","Windows 10","21","female","right","Tue Oct 22 2024 21:17:12 GMT+0200 (Mitteleuropäische Sommerzeit)","2","83","0","1729626077327"
"1052","j","SpeechGestureMatch","../RequiredFiles/videos/JaDaumenrunter_f_no_sound.mp4","Ist der Ball in der grünen Box?","Green","Blue","J","negation","na","gesture","na","ThumbDown","female","gesture-speech","1440","960","edge-chromium","30.17","Windows 10","21","female","right","Tue Oct 22 2024 21:17:18 GMT+0200 (Mitteleuropäische Sommerzeit)","2","84","0","1729626077327"
"1777","f","SpeechGestureMatch","../RequiredFiles/videos/NeinDaumenhoch_m.mp4","Ist der Ball in der blauen Box?","Blue","Green","F","affirmation","mismatch","gesture","no","ThumbUp","male","gesture-speech","1440","960","edge-chromium","30.17","Windows 10","21","female","right","Tue Oct 22 2024 21:17:26 GMT+0200 (Mitteleuropäische Sommerzeit)","2","85","0","1729626077327"
"973","j","SpeechGestureMatch","../RequiredFiles/videos/JaDaumenrunter_f.mp4","Ist der Ball in der grünen Box?","Green","Blue","J","negation","mismatch","gesture","yes","ThumbDown","female","gesture-speech","1440","960","edge-chromium","30.17","Windows 10","21","female","right","Tue Oct 22 2024 21:17:32 GMT+0200 (Mitteleuropäische Sommerzeit)","2","86","0","1729626077327"
"1194","j","SpeechGestureMatch","../RequiredFiles/videos/JaDaumenrunter_f.mp4","Ist der Ball in der blauen Box?","Blue","Green","J","negation","mismatch","gesture","yes","ThumbDown","female","gesture-speech","1440","960","edge-chromium","30.17","Windows 10","21","female","right","Tue Oct 22 2024 21:17:39 GMT+0200 (Mitteleuropäische Sommerzeit)","2","87","0","1729626077327"
"879","f","SpeechGestureMatch","../RequiredFiles/videos/JaDaumenhoch_m.mp4","Ist der Ball in der grünen Box?","Blue","Green","J","affirmation","match","gesture","yes","ThumbUp","male","gesture-speech","1440","960","edge-chromium","30.17","Windows 10","21","female","right","Tue Oct 22 2024 21:17:45 GMT+0200 (Mitteleuropäische Sommerzeit)","2","88","1","1729626077327"
"1267","j","SpeechGestureMatch","../RequiredFiles/videos/NeinDaumenrunter_m_no_sound.mp4","Ist der Ball in der blauen Box?","Green","Blue","F","negation","na","gesture","na","ThumbDown","male","gesture-speech","1440","960","edge-chromium","30.17","Windows 10","21","female","right","Tue Oct 22 2024 21:17:52 GMT+0200 (Mitteleuropäische Sommerzeit)","2","89","1","1729626077327"
"1211","f","SpeechGestureMatch","../RequiredFiles/videos/JaDaumenrunter_m.mp4","Ist der Ball in der blauen Box?","Green","Blue","F","negation","mismatch","gesture","yes","ThumbDown","male","gesture-speech","1440","960","edge-chromium","30.17","Windows 10","21","female","right","Tue Oct 22 2024 21:17:59 GMT+0200 (Mitteleuropäische Sommerzeit)","2","90","0","1729626077327"
"985","j","SpeechGestureMatch","../RequiredFiles/videos/JaDaumenhoch_f.mp4","Ist der Ball in der blauen Box?","Green","Blue","J","affirmation","match","gesture","yes","ThumbUp","female","gesture-speech","1440","960","edge-chromium","30.17","Windows 10","21","female","right","Tue Oct 22 2024 21:18:05 GMT+0200 (Mitteleuropäische Sommerzeit)","2","91","0","1729626077327"
"1336","j","SpeechGestureMatch","../RequiredFiles/videos/NeinDaumenhoch_f.mp4","Ist der Ball in der blauen Box?","Green","Blue","J","affirmation","mismatch","gesture","no","ThumbUp","female","gesture-speech","1440","960","edge-chromium","30.17","Windows 10","21","female","right","Tue Oct 22 2024 21:18:12 GMT+0200 (Mitteleuropäische Sommerzeit)","2","92","0","1729626077327"
"1218","f","SpeechGestureMatch","../RequiredFiles/videos/NeinDaumenrunter_f.mp4","Ist der Ball in der grünen Box?","Blue","Green","F","negation","match","gesture","no","ThumbDown","female","gesture-speech","1440","960","edge-chromium","30.17","Windows 10","21","female","right","Tue Oct 22 2024 21:18:19 GMT+0200 (Mitteleuropäische Sommerzeit)","2","93","0","1729626077327"
"960","f","SpeechGestureMatch","../RequiredFiles/videos/JaDaumenhoch_f.mp4","Ist der Ball in der grünen Box?","Green","Blue","F","affirmation","match","gesture","yes","ThumbUp","female","gesture-speech","1440","960","edge-chromium","30.17","Windows 10","21","female","right","Tue Oct 22 2024 21:18:26 GMT+0200 (Mitteleuropäische Sommerzeit)","2","94","0","1729626077327"
"976","j","SpeechGestureMatch","../RequiredFiles/videos/JaDaumenhoch_f.mp4","Ist der Ball in der grünen Box?","Blue","Green","J","affirmation","match","gesture","yes","ThumbUp","female","gesture-speech","1440","960","edge-chromium","30.17","Windows 10","21","female","right","Tue Oct 22 2024 21:18:32 GMT+0200 (Mitteleuropäische Sommerzeit)","2","95","0","1729626077327"
"1200","j","SpeechGestureMatch","../RequiredFiles/videos/JaDaumenrunter_m.mp4","Ist der Ball in der grünen Box?","Green","Blue","J","negation","mismatch","gesture","yes","ThumbDown","male","gesture-speech","1440","960","edge-chromium","30.17","Windows 10","21","female","right","Tue Oct 22 2024 21:18:39 GMT+0200 (Mitteleuropäische Sommerzeit)","2","96","0","1729626077327"
"717","f","SpeechGestureMatch","../RequiredFiles/videos/JaDaumenrunter_m.mp4","Ist der Ball in der grünen Box?","Green","Blue","F","affirmation","mismatch","speech","yes","ThumbDown","male","gesture-speech","1440","960","edge-chromium","30.17","Windows 10","21","female","right","Tue Oct 22 2024 21:20:20 GMT+0200 (Mitteleuropäische Sommerzeit)","3","1","0","1729626077327"
"671","j","SpeechGestureMatch","../RequiredFiles/videos/NeinDaumenrunter_m.mp4","Ist der Ball in der blauen Box?","Blue","Green","J","negation","match","speech","no","ThumbDown","male","gesture-speech","1440","960","edge-chromium","30.17","Windows 10","21","female","right","Tue Oct 22 2024 21:20:26 GMT+0200 (Mitteleuropäische Sommerzeit)","3","2","0","1729626077327"
"733","f","SpeechGestureMatch","../RequiredFiles/videos/JaDaumenhoch_f_no_gesture.mp4","Ist der Ball in der blauen Box?","Blue","Green","F","affirmation","na","speech","yes","na","female","gesture-speech","1440","960","edge-chromium","30.17","Windows 10","21","female","right","Tue Oct 22 2024 21:20:32 GMT+0200 (Mitteleuropäische Sommerzeit)","3","3","0","1729626077327"
"833","j","SpeechGestureMatch","../RequiredFiles/videos/NeinDaumenrunter_m.mp4","Ist der Ball in der blauen Box?","Blue","Green","J","negation","match","speech","no","ThumbDown","male","gesture-speech","1440","960","edge-chromium","30.17","Windows 10","21","female","right","Tue Oct 22 2024 21:20:38 GMT+0200 (Mitteleuropäische Sommerzeit)","3","4","0","1729626077327"
"810","j","SpeechGestureMatch","../RequiredFiles/videos/JaDaumenhoch_m.mp4","Ist der Ball in der grünen Box?","Blue","Green","J","affirmation","match","speech","yes","ThumbUp","male","gesture-speech","1440","960","edge-chromium","30.17","Windows 10","21","female","right","Tue Oct 22 2024 21:20:45 GMT+0200 (Mitteleuropäische Sommerzeit)","3","5","0","1729626077327"
"1095","f","SpeechGestureMatch","../RequiredFiles/videos/JaDaumenrunter_m.mp4","Ist der Ball in der blauen Box?","Blue","Green","F","affirmation","mismatch","speech","yes","ThumbDown","male","gesture-speech","1440","960","edge-chromium","30.17","Windows 10","21","female","right","Tue Oct 22 2024 21:20:51 GMT+0200 (Mitteleuropäische Sommerzeit)","3","6","0","1729626077327"
"895","f","SpeechGestureMatch","../RequiredFiles/videos/NeinDaumenhoch_m.mp4","Ist der Ball in der grünen Box?","Blue","Green","F","negation","mismatch","speech","no","ThumbUp","male","gesture-speech","1440","960","edge-chromium","30.17","Windows 10","21","female","right","Tue Oct 22 2024 21:20:58 GMT+0200 (Mitteleuropäische Sommerzeit)","3","7","0","1729626077327"
"750","j","SpeechGestureMatch","../RequiredFiles/videos/JaDaumenhoch_m.mp4","Ist der Ball in der grünen Box?","Blue","Green","J","affirmation","match","speech","yes","ThumbUp","male","gesture-speech","1440","960","edge-chromium","30.17","Windows 10","21","female","right","Tue Oct 22 2024 21:21:04 GMT+0200 (Mitteleuropäische Sommerzeit)","3","8","0","1729626077327"
"876","f","SpeechGestureMatch","../RequiredFiles/videos/NeinDaumenrunter_m_no_gesture.mp4","Ist der Ball in der grünen Box?","Blue","Green","F","negation","na","speech","no","na","male","gesture-speech","1440","960","edge-chromium","30.17","Windows 10","21","female","right","Tue Oct 22 2024 21:21:11 GMT+0200 (Mitteleuropäische Sommerzeit)","3","9","0","1729626077327"
"802","j","SpeechGestureMatch","../RequiredFiles/videos/JaDaumenhoch_f.mp4","Ist der Ball in der blauen Box?","Green","Blue","J","affirmation","match","speech","yes","ThumbUp","female","gesture-speech","1440","960","edge-chromium","30.17","Windows 10","21","female","right","Tue Oct 22 2024 21:21:17 GMT+0200 (Mitteleuropäische Sommerzeit)","3","10","0","1729626077327"
"859","j","SpeechGestureMatch","../RequiredFiles/videos/JaDaumenhoch_m.mp4","Ist der Ball in der blauen Box?","Green","Blue","J","affirmation","match","speech","yes","ThumbUp","male","gesture-speech","1440","960","edge-chromium","30.17","Windows 10","21","female","right","Tue Oct 22 2024 21:21:23 GMT+0200 (Mitteleuropäische Sommerzeit)","3","11","0","1729626077327"
"1247","f","SpeechGestureMatch","../RequiredFiles/videos/NeinDaumenrunter_f.mp4","Ist der Ball in der grünen Box?","Blue","Green","F","negation","match","speech","no","ThumbDown","female","gesture-speech","1440","960","edge-chromium","30.17","Windows 10","21","female","right","Tue Oct 22 2024 21:21:30 GMT+0200 (Mitteleuropäische Sommerzeit)","3","12","0","1729626077327"
"1002","f","SpeechGestureMatch","../RequiredFiles/videos/JaDaumenrunter_f.mp4","Ist der Ball in der blauen Box?","Blue","Green","F","affirmation","mismatch","speech","yes","ThumbDown","female","gesture-speech","1440","960","edge-chromium","30.17","Windows 10","21","female","right","Tue Oct 22 2024 21:21:37 GMT+0200 (Mitteleuropäische Sommerzeit)","3","13","0","1729626077327"
"1145","f","SpeechGestureMatch","../RequiredFiles/videos/JaDaumenrunter_m.mp4","Ist der Ball in der blauen Box?","Green","Blue","J","affirmation","mismatch","speech","yes","ThumbDown","male","gesture-speech","1440","960","edge-chromium","30.17","Windows 10","21","female","right","Tue Oct 22 2024 21:21:43 GMT+0200 (Mitteleuropäische Sommerzeit)","3","14","1","1729626077327"
"1123","j","SpeechGestureMatch","../RequiredFiles/videos/NeinDaumenhoch_m_no_gesture.mp4","Ist der Ball in der blauen Box?","Blue","Green","J","negation","na","speech","no","na","male","gesture-speech","1440","960","edge-chromium","30.17","Windows 10","21","female","right","Tue Oct 22 2024 21:21:50 GMT+0200 (Mitteleuropäische Sommerzeit)","3","15","0","1729626077327"
"909","f","SpeechGestureMatch","../RequiredFiles/videos/JaDaumenhoch_m.mp4","Ist der Ball in der grünen Box?","Green","Blue","F","affirmation","match","speech","yes","ThumbUp","male","gesture-speech","1440","960","edge-chromium","30.17","Windows 10","21","female","right","Tue Oct 22 2024 21:21:56 GMT+0200 (Mitteleuropäische Sommerzeit)","3","16","0","1729626077327"
"765","j","SpeechGestureMatch","../RequiredFiles/videos/NeinDaumenrunter_m.mp4","Ist der Ball in der blauen Box?","Green","Blue","F","negation","match","speech","no","ThumbDown","male","gesture-speech","1440","960","edge-chromium","30.17","Windows 10","21","female","right","Tue Oct 22 2024 21:22:03 GMT+0200 (Mitteleuropäische Sommerzeit)","3","17","1","1729626077327"
"907","j","SpeechGestureMatch","../RequiredFiles/videos/JaDaumenhoch_f.mp4","Ist der Ball in der blauen Box?","Green","Blue","J","affirmation","match","speech","yes","ThumbUp","female","gesture-speech","1440","960","edge-chromium","30.17","Windows 10","21","female","right","Tue Oct 22 2024 21:22:09 GMT+0200 (Mitteleuropäische Sommerzeit)","3","18","0","1729626077327"
"803","f","SpeechGestureMatch","../RequiredFiles/videos/NeinDaumenhoch_m.mp4","Ist der Ball in der grünen Box?","Blue","Green","F","negation","mismatch","speech","no","ThumbUp","male","gesture-speech","1440","960","edge-chromium","30.17","Windows 10","21","female","right","Tue Oct 22 2024 21:22:16 GMT+0200 (Mitteleuropäische Sommerzeit)","3","19","0","1729626077327"
"863","f","SpeechGestureMatch","../RequiredFiles/videos/JaDaumenhoch_f.mp4","Ist der Ball in der blauen Box?","Blue","Green","F","affirmation","match","speech","yes","ThumbUp","female","gesture-speech","1440","960","edge-chromium","30.17","Windows 10","21","female","right","Tue Oct 22 2024 21:22:22 GMT+0200 (Mitteleuropäische Sommerzeit)","3","20","0","1729626077327"
"829","j","SpeechGestureMatch","../RequiredFiles/videos/NeinDaumenhoch_f_no_gesture.mp4","Ist der Ball in der grünen Box?","Green","Blue","J","negation","na","speech","no","na","female","gesture-speech","1440","960","edge-chromium","30.17","Windows 10","21","female","right","Tue Oct 22 2024 21:22:28 GMT+0200 (Mitteleuropäische Sommerzeit)","3","21","0","1729626077327"
"800","f","SpeechGestureMatch","../RequiredFiles/videos/JaDaumenhoch_f_no_gesture.mp4","Ist der Ball in der grünen Box?","Green","Blue","F","affirmation","na","speech","yes","na","female","gesture-speech","1440","960","edge-chromium","30.17","Windows 10","21","female","right","Tue Oct 22 2024 21:22:35 GMT+0200 (Mitteleuropäische Sommerzeit)","3","22","0","1729626077327"
"1360","j","SpeechGestureMatch","../RequiredFiles/videos/JaDaumenrunter_f.mp4","Ist der Ball in der blauen Box?","Green","Blue","J","affirmation","mismatch","speech","yes","ThumbDown","female","gesture-speech","1440","960","edge-chromium","30.17","Windows 10","21","female","right","Tue Oct 22 2024 21:22:42 GMT+0200 (Mitteleuropäische Sommerzeit)","3","23","0","1729626077327"
"781","f","SpeechGestureMatch","../RequiredFiles/videos/JaDaumenhoch_m.mp4","Ist der Ball in der grünen Box?","Green","Blue","F","affirmation","match","speech","yes","ThumbUp","male","gesture-speech","1440","960","edge-chromium","30.17","Windows 10","21","female","right","Tue Oct 22 2024 21:22:48 GMT+0200 (Mitteleuropäische Sommerzeit)","3","24","0","1729626077327"
"920","j","SpeechGestureMatch","../RequiredFiles/videos/NeinDaumenrunter_m_no_gesture.mp4","Ist der Ball in der grünen Box?","Green","Blue","J","negation","na","speech","no","na","male","gesture-speech","1440","960","edge-chromium","30.17","Windows 10","21","female","right","Tue Oct 22 2024 21:22:54 GMT+0200 (Mitteleuropäische Sommerzeit)","3","25","0","1729626077327"
"848","j","SpeechGestureMatch","../RequiredFiles/videos/NeinDaumenrunter_m.mp4","Ist der Ball in der grünen Box?","Green","Blue","J","negation","match","speech","no","ThumbDown","male","gesture-speech","1440","960","edge-chromium","30.17","Windows 10","21","female","right","Tue Oct 22 2024 21:23:01 GMT+0200 (Mitteleuropäische Sommerzeit)","3","26","0","1729626077327"
"1080","j","SpeechGestureMatch","../RequiredFiles/videos/JaDaumenhoch_f.mp4","Ist der Ball in der grünen Box?","Blue","Green","J","affirmation","match","speech","yes","ThumbUp","female","gesture-speech","1440","960","edge-chromium","30.17","Windows 10","21","female","right","Tue Oct 22 2024 21:23:07 GMT+0200 (Mitteleuropäische Sommerzeit)","3","27","0","1729626077327"
"1224","j","SpeechGestureMatch","../RequiredFiles/videos/NeinDaumenrunter_f.mp4","Ist der Ball in der blauen Box?","Blue","Green","J","negation","match","speech","no","ThumbDown","female","gesture-speech","1440","960","edge-chromium","30.17","Windows 10","21","female","right","Tue Oct 22 2024 21:23:14 GMT+0200 (Mitteleuropäische Sommerzeit)","3","28","0","1729626077327"
"920","j","SpeechGestureMatch","../RequiredFiles/videos/JaDaumenrunter_f.mp4","Ist der Ball in der blauen Box?","Green","Blue","J","affirmation","mismatch","speech","yes","ThumbDown","female","gesture-speech","1440","960","edge-chromium","30.17","Windows 10","21","female","right","Tue Oct 22 2024 21:23:21 GMT+0200 (Mitteleuropäische Sommerzeit)","3","29","0","1729626077327"
"927","f","SpeechGestureMatch","../RequiredFiles/videos/JaDaumenrunter_m_no_gesture.mp4","Ist der Ball in der blauen Box?","Blue","Green","F","affirmation","na","speech","yes","na","male","gesture-speech","1440","960","edge-chromium","30.17","Windows 10","21","female","right","Tue Oct 22 2024 21:23:27 GMT+0200 (Mitteleuropäische Sommerzeit)","3","30","0","1729626077327"
"859","f","SpeechGestureMatch","../RequiredFiles/videos/JaDaumenhoch_m.mp4","Ist der Ball in der blauen Box?","Blue","Green","F","affirmation","match","speech","yes","ThumbUp","male","gesture-speech","1440","960","edge-chromium","30.17","Windows 10","21","female","right","Tue Oct 22 2024 21:23:33 GMT+0200 (Mitteleuropäische Sommerzeit)","3","31","0","1729626077327"
"783","j","SpeechGestureMatch","../RequiredFiles/videos/JaDaumenrunter_m_no_gesture.mp4","Ist der Ball in der blauen Box?","Green","Blue","J","affirmation","na","speech","yes","na","male","gesture-speech","1440","960","edge-chromium","30.17","Windows 10","21","female","right","Tue Oct 22 2024 21:23:40 GMT+0200 (Mitteleuropäische Sommerzeit)","3","32","0","1729626077327"
"803","f","SpeechGestureMatch","../RequiredFiles/videos/JaDaumenhoch_f.mp4","Ist der Ball in der grünen Box?","Green","Blue","F","affirmation","match","speech","yes","ThumbUp","female","gesture-speech","1440","960","edge-chromium","30.17","Windows 10","21","female","right","Tue Oct 22 2024 21:23:46 GMT+0200 (Mitteleuropäische Sommerzeit)","3","33","0","1729626077327"
"1052","f","SpeechGestureMatch","../RequiredFiles/videos/NeinDaumenhoch_m.mp4","Ist der Ball in der blauen Box?","Green","Blue","F","negation","mismatch","speech","no","ThumbUp","male","gesture-speech","1440","960","edge-chromium","30.17","Windows 10","21","female","right","Tue Oct 22 2024 21:23:53 GMT+0200 (Mitteleuropäische Sommerzeit)","3","34","0","1729626077327"
"1435","j","SpeechGestureMatch","../RequiredFiles/videos/JaDaumenrunter_m.mp4","Ist der Ball in der grünen Box?","Blue","Green","J","affirmation","mismatch","speech","yes","ThumbDown","male","gesture-speech","1440","960","edge-chromium","30.17","Windows 10","21","female","right","Tue Oct 22 2024 21:24:00 GMT+0200 (Mitteleuropäische Sommerzeit)","3","35","0","1729626077327"
"850","f","SpeechGestureMatch","../RequiredFiles/videos/JaDaumenhoch_m_no_gesture.mp4","Ist der Ball in der grünen Box?","Green","Blue","F","affirmation","na","speech","yes","na","male","gesture-speech","1440","960","edge-chromium","30.17","Windows 10","21","female","right","Tue Oct 22 2024 21:24:06 GMT+0200 (Mitteleuropäische Sommerzeit)","3","36","0","1729626077327"
"1003","f","SpeechGestureMatch","../RequiredFiles/videos/NeinDaumenhoch_m_no_gesture.mp4","Ist der Ball in der blauen Box?","Green","Blue","F","negation","na","speech","no","na","male","gesture-speech","1440","960","edge-chromium","30.17","Windows 10","21","female","right","Tue Oct 22 2024 21:24:13 GMT+0200 (Mitteleuropäische Sommerzeit)","3","37","0","1729626077327"
"877","f","SpeechGestureMatch","../RequiredFiles/videos/NeinDaumenhoch_f.mp4","Ist der Ball in der blauen Box?","Green","Blue","F","negation","mismatch","speech","no","ThumbUp","female","gesture-speech","1440","960","edge-chromium","30.17","Windows 10","21","female","right","Tue Oct 22 2024 21:24:19 GMT+0200 (Mitteleuropäische Sommerzeit)","3","38","0","1729626077327"
"1016","j","SpeechGestureMatch","../RequiredFiles/videos/NeinDaumenrunter_f_no_gesture.mp4","Ist der Ball in der grünen Box?","Green","Blue","J","negation","na","speech","no","na","female","gesture-speech","1440","960","edge-chromium","30.17","Windows 10","21","female","right","Tue Oct 22 2024 21:24:26 GMT+0200 (Mitteleuropäische Sommerzeit)","3","39","0","1729626077327"
"828","f","SpeechGestureMatch","../RequiredFiles/videos/JaDaumenrunter_f.mp4","Ist der Ball in der grünen Box?","Green","Blue","F","affirmation","mismatch","speech","yes","ThumbDown","female","gesture-speech","1440","960","edge-chromium","30.17","Windows 10","21","female","right","Tue Oct 22 2024 21:24:32 GMT+0200 (Mitteleuropäische Sommerzeit)","3","40","0","1729626077327"
"1069","f","SpeechGestureMatch","../RequiredFiles/videos/NeinDaumenhoch_f_no_gesture.mp4","Ist der Ball in der blauen Box?","Green","Blue","F","negation","na","speech","no","na","female","gesture-speech","1440","960","edge-chromium","30.17","Windows 10","21","female","right","Tue Oct 22 2024 21:24:39 GMT+0200 (Mitteleuropäische Sommerzeit)","3","41","0","1729626077327"
"1008","j","SpeechGestureMatch","../RequiredFiles/videos/NeinDaumenrunter_m_no_gesture.mp4","Ist der Ball in der blauen Box?","Green","Blue","F","negation","na","speech","no","na","male","gesture-speech","1440","960","edge-chromium","30.17","Windows 10","21","female","right","Tue Oct 22 2024 21:24:45 GMT+0200 (Mitteleuropäische Sommerzeit)","3","42","1","1729626077327"
"1050","j","SpeechGestureMatch","../RequiredFiles/videos/JaDaumenhoch_f_no_gesture.mp4","Ist der Ball in der blauen Box?","Green","Blue","J","affirmation","na","speech","yes","na","female","gesture-speech","1440","960","edge-chromium","30.17","Windows 10","21","female","right","Tue Oct 22 2024 21:24:52 GMT+0200 (Mitteleuropäische Sommerzeit)","3","43","0","1729626077327"
"791","j","SpeechGestureMatch","../RequiredFiles/videos/JaDaumenrunter_f_no_gesture.mp4","Ist der Ball in der blauen Box?","Green","Blue","J","affirmation","na","speech","yes","na","female","gesture-speech","1440","960","edge-chromium","30.17","Windows 10","21","female","right","Tue Oct 22 2024 21:24:58 GMT+0200 (Mitteleuropäische Sommerzeit)","3","44","0","1729626077327"
"1008","j","SpeechGestureMatch","../RequiredFiles/videos/NeinDaumenrunter_m.mp4","Ist der Ball in der grünen Box?","Green","Blue","J","negation","match","speech","no","ThumbDown","male","gesture-speech","1440","960","edge-chromium","30.17","Windows 10","21","female","right","Tue Oct 22 2024 21:25:05 GMT+0200 (Mitteleuropäische Sommerzeit)","3","45","0","1729626077327"
"1114","f","SpeechGestureMatch","../RequiredFiles/videos/NeinDaumenrunter_f.mp4","Ist der Ball in der blauen Box?","Green","Blue","F","negation","match","speech","no","ThumbDown","female","gesture-speech","1440","960","edge-chromium","30.17","Windows 10","21","female","right","Tue Oct 22 2024 21:25:11 GMT+0200 (Mitteleuropäische Sommerzeit)","3","46","0","1729626077327"
"1050","f","SpeechGestureMatch","../RequiredFiles/videos/NeinDaumenrunter_m.mp4","Ist der Ball in der grünen Box?","Blue","Green","F","negation","match","speech","no","ThumbDown","male","gesture-speech","1440","960","edge-chromium","30.17","Windows 10","21","female","right","Tue Oct 22 2024 21:25:18 GMT+0200 (Mitteleuropäische Sommerzeit)","3","47","0","1729626077327"
"1325","f","SpeechGestureMatch","../RequiredFiles/videos/JaDaumenrunter_m_no_gesture.mp4","Ist der Ball in der grünen Box?","Green","Blue","F","affirmation","na","speech","yes","na","male","gesture-speech","1440","960","edge-chromium","30.17","Windows 10","21","female","right","Tue Oct 22 2024 21:25:25 GMT+0200 (Mitteleuropäische Sommerzeit)","3","48","0","1729626077327"
"1159","f","SpeechGestureMatch","../RequiredFiles/videos/NeinDaumenhoch_m.mp4","Ist der Ball in der blauen Box?","Blue","Green","J","negation","mismatch","speech","no","ThumbUp","male","gesture-speech","1440","960","edge-chromium","30.17","Windows 10","21","female","right","Tue Oct 22 2024 21:25:32 GMT+0200 (Mitteleuropäische Sommerzeit)","3","49","1","1729626077327"
"927","j","SpeechGestureMatch","../RequiredFiles/videos/NeinDaumenhoch_m_no_gesture.mp4","Ist der Ball in der grünen Box?","Green","Blue","J","negation","na","speech","no","na","male","gesture-speech","1440","960","edge-chromium","30.17","Windows 10","21","female","right","Tue Oct 22 2024 21:25:38 GMT+0200 (Mitteleuropäische Sommerzeit)","3","50","0","1729626077327"
"936","j","SpeechGestureMatch","../RequiredFiles/videos/JaDaumenhoch_f.mp4","Ist der Ball in der grünen Box?","Blue","Green","J","affirmation","match","speech","yes","ThumbUp","female","gesture-speech","1440","960","edge-chromium","30.17","Windows 10","21","female","right","Tue Oct 22 2024 21:25:44 GMT+0200 (Mitteleuropäische Sommerzeit)","3","51","0","1729626077327"
"1140","j","SpeechGestureMatch","../RequiredFiles/videos/JaDaumenrunter_m.mp4","Ist der Ball in der blauen Box?","Green","Blue","J","affirmation","mismatch","speech","yes","ThumbDown","male","gesture-speech","1440","960","edge-chromium","30.17","Windows 10","21","female","right","Tue Oct 22 2024 21:25:51 GMT+0200 (Mitteleuropäische Sommerzeit)","3","52","0","1729626077327"
"895","j","SpeechGestureMatch","../RequiredFiles/videos/NeinDaumenhoch_f.mp4","Ist der Ball in der blauen Box?","Green","Blue","F","negation","mismatch","speech","no","ThumbUp","female","gesture-speech","1440","960","edge-chromium","30.17","Windows 10","21","female","right","Tue Oct 22 2024 21:25:58 GMT+0200 (Mitteleuropäische Sommerzeit)","3","53","1","1729626077327"
"817","j","SpeechGestureMatch","../RequiredFiles/videos/JaDaumenhoch_m.mp4","Ist der Ball in der blauen Box?","Green","Blue","J","affirmation","match","speech","yes","ThumbUp","male","gesture-speech","1440","960","edge-chromium","30.17","Windows 10","21","female","right","Tue Oct 22 2024 21:26:04 GMT+0200 (Mitteleuropäische Sommerzeit)","3","54","0","1729626077327"
"913","j","SpeechGestureMatch","../RequiredFiles/videos/JaDaumenrunter_m_no_gesture.mp4","Ist der Ball in der grünen Box?","Blue","Green","J","affirmation","na","speech","yes","na","male","gesture-speech","1440","960","edge-chromium","30.17","Windows 10","21","female","right","Tue Oct 22 2024 21:26:10 GMT+0200 (Mitteleuropäische Sommerzeit)","3","55","0","1729626077327"
"959","f","SpeechGestureMatch","../RequiredFiles/videos/JaDaumenrunter_f_no_gesture.mp4","Ist der Ball in der blauen Box?","Blue","Green","F","affirmation","na","speech","yes","na","female","gesture-speech","1440","960","edge-chromium","30.17","Windows 10","21","female","right","Tue Oct 22 2024 21:26:17 GMT+0200 (Mitteleuropäische Sommerzeit)","3","56","0","1729626077327"
"771","j","SpeechGestureMatch","../RequiredFiles/videos/JaDaumenrunter_f.mp4","Ist der Ball in der grünen Box?","Blue","Green","J","affirmation","mismatch","speech","yes","ThumbDown","female","gesture-speech","1440","960","edge-chromium","30.17","Windows 10","21","female","right","Tue Oct 22 2024 21:26:23 GMT+0200 (Mitteleuropäische Sommerzeit)","3","57","0","1729626077327"
"890","f","SpeechGestureMatch","../RequiredFiles/videos/JaDaumenrunter_f.mp4","Ist der Ball in der grünen Box?","Green","Blue","F","affirmation","mismatch","speech","yes","ThumbDown","female","gesture-speech","1440","960","edge-chromium","30.17","Windows 10","21","female","right","Tue Oct 22 2024 21:26:30 GMT+0200 (Mitteleuropäische Sommerzeit)","3","58","0","1729626077327"
"748","j","SpeechGestureMatch","../RequiredFiles/videos/JaDaumenrunter_m.mp4","Ist der Ball in der grünen Box?","Blue","Green","J","affirmation","mismatch","speech","yes","ThumbDown","male","gesture-speech","1440","960","edge-chromium","30.17","Windows 10","21","female","right","Tue Oct 22 2024 21:26:36 GMT+0200 (Mitteleuropäische Sommerzeit)","3","59","0","1729626077327"
"991","j","SpeechGestureMatch","../RequiredFiles/videos/NeinDaumenrunter_f_no_gesture.mp4","Ist der Ball in der blauen Box?","Blue","Green","J","negation","na","speech","no","na","female","gesture-speech","1440","960","edge-chromium","30.17","Windows 10","21","female","right","Tue Oct 22 2024 21:26:43 GMT+0200 (Mitteleuropäische Sommerzeit)","3","60","0","1729626077327"
"1067","f","SpeechGestureMatch","../RequiredFiles/videos/NeinDaumenrunter_m.mp4","Ist der Ball in der blauen Box?","Green","Blue","F","negation","match","speech","no","ThumbDown","male","gesture-speech","1440","960","edge-chromium","30.17","Windows 10","21","female","right","Tue Oct 22 2024 21:26:49 GMT+0200 (Mitteleuropäische Sommerzeit)","3","61","0","1729626077327"
"943","f","SpeechGestureMatch","../RequiredFiles/videos/NeinDaumenhoch_f.mp4","Ist der Ball in der grünen Box?","Blue","Green","F","negation","mismatch","speech","no","ThumbUp","female","gesture-speech","1440","960","edge-chromium","30.17","Windows 10","21","female","right","Tue Oct 22 2024 21:26:56 GMT+0200 (Mitteleuropäische Sommerzeit)","3","62","0","1729626077327"
"859","f","SpeechGestureMatch","../RequiredFiles/videos/JaDaumenhoch_f.mp4","Ist der Ball in der blauen Box?","Blue","Green","F","affirmation","match","speech","yes","ThumbUp","female","gesture-speech","1440","960","edge-chromium","30.17","Windows 10","21","female","right","Tue Oct 22 2024 21:27:02 GMT+0200 (Mitteleuropäische Sommerzeit)","3","63","0","1729626077327"
"1624","f","SpeechGestureMatch","../RequiredFiles/videos/NeinDaumenhoch_f.mp4","Ist der Ball in der grünen Box?","Blue","Green","F","negation","mismatch","speech","no","ThumbUp","female","gesture-speech","1440","960","edge-chromium","30.17","Windows 10","21","female","right","Tue Oct 22 2024 21:27:09 GMT+0200 (Mitteleuropäische Sommerzeit)","3","64","0","1729626077327"
"749","j","SpeechGestureMatch","../RequiredFiles/videos/NeinDaumenrunter_f.mp4","Ist der Ball in der grünen Box?","Green","Blue","J","negation","match","speech","no","ThumbDown","female","gesture-speech","1440","960","edge-chromium","30.17","Windows 10","21","female","right","Tue Oct 22 2024 21:27:15 GMT+0200 (Mitteleuropäische Sommerzeit)","3","65","0","1729626077327"
"1097","j","SpeechGestureMatch","../RequiredFiles/videos/JaDaumenrunter_f.mp4","Ist der Ball in der grünen Box?","Blue","Green","J","affirmation","mismatch","speech","yes","ThumbDown","female","gesture-speech","1440","960","edge-chromium","30.17","Windows 10","21","female","right","Tue Oct 22 2024 21:27:22 GMT+0200 (Mitteleuropäische Sommerzeit)","3","66","0","1729626077327"
"829","j","SpeechGestureMatch","../RequiredFiles/videos/JaDaumenhoch_m_no_gesture.mp4","Ist der Ball in der blauen Box?","Green","Blue","J","affirmation","na","speech","yes","na","male","gesture-speech","1440","960","edge-chromium","30.17","Windows 10","21","female","right","Tue Oct 22 2024 21:27:28 GMT+0200 (Mitteleuropäische Sommerzeit)","3","67","0","1729626077327"
"1156","f","SpeechGestureMatch","../RequiredFiles/videos/NeinDaumenhoch_m_no_gesture.mp4","Ist der Ball in der grünen Box?","Blue","Green","F","negation","na","speech","no","na","male","gesture-speech","1440","960","edge-chromium","30.17","Windows 10","21","female","right","Tue Oct 22 2024 21:27:35 GMT+0200 (Mitteleuropäische Sommerzeit)","3","68","0","1729626077327"
"945","j","SpeechGestureMatch","../RequiredFiles/videos/NeinDaumenhoch_m.mp4","Ist der Ball in der blauen Box?","Blue","Green","J","negation","mismatch","speech","no","ThumbUp","male","gesture-speech","1440","960","edge-chromium","30.17","Windows 10","21","female","right","Tue Oct 22 2024 21:27:42 GMT+0200 (Mitteleuropäische Sommerzeit)","3","69","0","1729626077327"
"886","f","SpeechGestureMatch","../RequiredFiles/videos/NeinDaumenrunter_f_no_gesture.mp4","Ist der Ball in der blauen Box?","Green","Blue","F","negation","na","speech","no","na","female","gesture-speech","1440","960","edge-chromium","30.17","Windows 10","21","female","right","Tue Oct 22 2024 21:27:48 GMT+0200 (Mitteleuropäische Sommerzeit)","3","70","0","1729626077327"
"782","f","SpeechGestureMatch","../RequiredFiles/videos/JaDaumenhoch_m_no_gesture.mp4","Ist der Ball in der blauen Box?","Blue","Green","F","affirmation","na","speech","yes","na","male","gesture-speech","1440","960","edge-chromium","30.17","Windows 10","21","female","right","Tue Oct 22 2024 21:27:54 GMT+0200 (Mitteleuropäische Sommerzeit)","3","71","0","1729626077327"
"1119","j","SpeechGestureMatch","../RequiredFiles/videos/JaDaumenhoch_f_no_gesture.mp4","Ist der Ball in der grünen Box?","Blue","Green","J","affirmation","na","speech","yes","na","female","gesture-speech","1440","960","edge-chromium","30.17","Windows 10","21","female","right","Tue Oct 22 2024 21:28:01 GMT+0200 (Mitteleuropäische Sommerzeit)","3","72","0","1729626077327"
"937","j","SpeechGestureMatch","../RequiredFiles/videos/NeinDaumenrunter_m_no_gesture.mp4","Ist der Ball in der blauen Box?","Blue","Green","J","negation","na","speech","no","na","male","gesture-speech","1440","960","edge-chromium","30.17","Windows 10","21","female","right","Tue Oct 22 2024 21:28:08 GMT+0200 (Mitteleuropäische Sommerzeit)","3","73","0","1729626077327"
"796","f","SpeechGestureMatch","../RequiredFiles/videos/JaDaumenhoch_m.mp4","Ist der Ball in der blauen Box?","Blue","Green","F","affirmation","match","speech","yes","ThumbUp","male","gesture-speech","1440","960","edge-chromium","30.17","Windows 10","21","female","right","Tue Oct 22 2024 21:28:14 GMT+0200 (Mitteleuropäische Sommerzeit)","3","74","0","1729626077327"
