"rt","response","stim","video","question","box_colour_left","box_colour_right","correct_key","polarity","matching","modality","verbal","gesture","speaker","order","width","height","browser","vsync_rate","os","age","gender","handedness","date","blockNum","trialNum","error","vpNum"
"957","f","SpeechGestureMatch","../RequiredFiles/videos/NeinDaumenhoch_f_no_sound.mp4","Ist der Ball in der grünen Box?","Green","Blue","F","affirmation","na","gesture","na","ThumbUp","female","gesture-speech","1422","889","chrome","60.33","Mac OS","28","female","right","Tue Oct 22 2024 21:57:40 GMT+0200 (Central European Summer Time)","1","1","0","1729629877408"
"1697","f","SpeechGestureMatch","../RequiredFiles/videos/NeinDaumenrunter_m.mp4","Ist der Ball in der grünen Box?","Blue","Green","F","negation","match","gesture","no","ThumbDown","male","gesture-speech","1422","889","chrome","60.33","Mac OS","28","female","right","Tue Oct 22 2024 21:57:48 GMT+0200 (Central European Summer Time)","1","2","0","1729629877408"
"1073","f","SpeechGestureMatch","../RequiredFiles/videos/NeinDaumenhoch_m.mp4","Ist der Ball in der blauen Box?","Blue","Green","F","affirmation","mismatch","gesture","no","ThumbUp","male","gesture-speech","1422","889","chrome","60.33","Mac OS","28","female","right","Tue Oct 22 2024 21:57:54 GMT+0200 (Central European Summer Time)","1","3","0","1729629877408"
"1283","f","SpeechGestureMatch","../RequiredFiles/videos/NeinDaumenrunter_f.mp4","Ist der Ball in der grünen Box?","Blue","Green","F","negation","match","gesture","no","ThumbDown","female","gesture-speech","1422","889","chrome","60.33","Mac OS","28","female","right","Tue Oct 22 2024 21:58:01 GMT+0200 (Central European Summer Time)","1","4","0","1729629877408"
"1223","j","SpeechGestureMatch","../RequiredFiles/videos/JaDaumenhoch_m.mp4","Ist der Ball in der grünen Box?","Blue","Green","J","affirmation","match","gesture","yes","ThumbUp","male","gesture-speech","1422","889","chrome","60.33","Mac OS","28","female","right","Tue Oct 22 2024 21:58:08 GMT+0200 (Central European Summer Time)","1","5","0","1729629877408"
"1293","f","SpeechGestureMatch","../RequiredFiles/videos/JaDaumenrunter_m.mp4","Ist der Ball in der blauen Box?","Green","Blue","F","negation","mismatch","gesture","yes","ThumbDown","male","gesture-speech","1422","889","chrome","60.33","Mac OS","28","female","right","Tue Oct 22 2024 21:58:14 GMT+0200 (Central European Summer Time)","1","6","0","1729629877408"
"795","j","SpeechGestureMatch","../RequiredFiles/videos/NeinDaumenhoch_m_no_sound.mp4","Ist der Ball in der blauen Box?","Green","Blue","J","affirmation","na","gesture","na","ThumbUp","male","gesture-speech","1422","889","chrome","60.33","Mac OS","28","female","right","Tue Oct 22 2024 21:58:21 GMT+0200 (Central European Summer Time)","1","7","0","1729629877408"
"1382","j","SpeechGestureMatch","../RequiredFiles/videos/NeinDaumenhoch_m.mp4","Ist der Ball in der blauen Box?","Green","Blue","J","affirmation","mismatch","gesture","no","ThumbUp","male","gesture-speech","1422","889","chrome","60.33","Mac OS","28","female","right","Tue Oct 22 2024 21:58:28 GMT+0200 (Central European Summer Time)","1","8","0","1729629877408"
"1250","f","SpeechGestureMatch","../RequiredFiles/videos/JaDaumenhoch_m.mp4","Ist der Ball in der grünen Box?","Green","Blue","F","affirmation","match","gesture","yes","ThumbUp","male","gesture-speech","1422","889","chrome","60.33","Mac OS","28","female","right","Tue Oct 22 2024 21:58:34 GMT+0200 (Central European Summer Time)","1","9","0","1729629877408"
"1379","f","SpeechGestureMatch","../RequiredFiles/videos/NeinDaumenhoch_f.mp4","Ist der Ball in der blauen Box?","Blue","Green","F","affirmation","mismatch","gesture","no","ThumbUp","female","gesture-speech","1422","889","chrome","60.33","Mac OS","28","female","right","Tue Oct 22 2024 21:58:41 GMT+0200 (Central European Summer Time)","1","10","0","1729629877408"
"1226","f","SpeechGestureMatch","../RequiredFiles/videos/JaDaumenhoch_f.mp4","Ist der Ball in der blauen Box?","Blue","Green","F","affirmation","match","gesture","yes","ThumbUp","female","gesture-speech","1422","889","chrome","60.33","Mac OS","28","female","right","Tue Oct 22 2024 21:58:48 GMT+0200 (Central European Summer Time)","1","11","0","1729629877408"
"950","f","SpeechGestureMatch","../RequiredFiles/videos/JaDaumenrunter_f_no_sound.mp4","Ist der Ball in der blauen Box?","Green","Blue","F","negation","na","gesture","na","ThumbDown","female","gesture-speech","1422","889","chrome","60.33","Mac OS","28","female","right","Tue Oct 22 2024 21:58:55 GMT+0200 (Central European Summer Time)","1","12","0","1729629877408"
"6997","f","SpeechGestureMatch","../RequiredFiles/videos/JaDaumenrunter_f.mp4","Ist der Ball in der blauen Box?","Green","Blue","F","negation","mismatch","gesture","yes","ThumbDown","female","gesture-speech","1422","889","chrome","60.33","Mac OS","28","female","right","Tue Oct 22 2024 21:59:07 GMT+0200 (Central European Summer Time)","1","13","0","1729629877408"
"1617","f","SpeechGestureMatch","../RequiredFiles/videos/JaDaumenrunter_m.mp4","Ist der Ball in der grünen Box?","Blue","Green","F","negation","mismatch","gesture","yes","ThumbDown","male","gesture-speech","1422","889","chrome","60.33","Mac OS","28","female","right","Tue Oct 22 2024 21:59:14 GMT+0200 (Central European Summer Time)","1","14","0","1729629877408"
"1097","j","SpeechGestureMatch","../RequiredFiles/videos/NeinDaumenrunter_m.mp4","Ist der Ball in der blauen Box?","Blue","Green","J","negation","match","gesture","no","ThumbDown","male","gesture-speech","1422","889","chrome","60.33","Mac OS","28","female","right","Tue Oct 22 2024 21:59:21 GMT+0200 (Central European Summer Time)","1","15","0","1729629877408"
"789","f","SpeechGestureMatch","../RequiredFiles/videos/JaDaumenhoch_f_no_sound.mp4","Ist der Ball in der grünen Box?","Green","Blue","F","affirmation","na","gesture","na","ThumbUp","female","gesture-speech","1422","889","chrome","60.33","Mac OS","28","female","right","Tue Oct 22 2024 21:59:27 GMT+0200 (Central European Summer Time)","1","16","0","1729629877408"
"1664","f","SpeechGestureMatch","../RequiredFiles/videos/NeinDaumenhoch_f.mp4","Ist der Ball in der grünen Box?","Green","Blue","F","affirmation","mismatch","gesture","no","ThumbUp","female","gesture-speech","1422","889","chrome","60.33","Mac OS","28","female","right","Tue Oct 22 2024 21:59:34 GMT+0200 (Central European Summer Time)","1","17","0","1729629877408"
"1306","f","SpeechGestureMatch","../RequiredFiles/videos/NeinDaumenrunter_f.mp4","Ist der Ball in der blauen Box?","Green","Blue","F","negation","match","gesture","no","ThumbDown","female","gesture-speech","1422","889","chrome","60.33","Mac OS","28","female","right","Tue Oct 22 2024 21:59:41 GMT+0200 (Central European Summer Time)","1","18","0","1729629877408"
"1146","j","SpeechGestureMatch","../RequiredFiles/videos/NeinDaumenrunter_m_no_sound.mp4","Ist der Ball in der blauen Box?","Blue","Green","J","negation","na","gesture","na","ThumbDown","male","gesture-speech","1422","889","chrome","60.33","Mac OS","28","female","right","Tue Oct 22 2024 21:59:48 GMT+0200 (Central European Summer Time)","1","19","0","1729629877408"
"778","j","SpeechGestureMatch","../RequiredFiles/videos/NeinDaumenrunter_f_no_sound.mp4","Ist der Ball in der grünen Box?","Green","Blue","J","negation","na","gesture","na","ThumbDown","female","gesture-speech","1422","889","chrome","60.33","Mac OS","28","female","right","Tue Oct 22 2024 21:59:54 GMT+0200 (Central European Summer Time)","1","20","0","1729629877408"
"706","j","SpeechGestureMatch","../RequiredFiles/videos/NeinDaumenhoch_f_no_sound.mp4","Ist der Ball in der blauen Box?","Green","Blue","J","affirmation","na","gesture","na","ThumbUp","female","gesture-speech","1422","889","chrome","60.33","Mac OS","28","female","right","Tue Oct 22 2024 22:00:00 GMT+0200 (Central European Summer Time)","1","21","0","1729629877408"
"777","j","SpeechGestureMatch","../RequiredFiles/videos/JaDaumenrunter_f_no_sound.mp4","Ist der Ball in der grünen Box?","Green","Blue","J","negation","na","gesture","na","ThumbDown","female","gesture-speech","1422","889","chrome","60.33","Mac OS","28","female","right","Tue Oct 22 2024 22:00:07 GMT+0200 (Central European Summer Time)","1","22","0","1729629877408"
"866","f","SpeechGestureMatch","../RequiredFiles/videos/NeinDaumenhoch_m_no_sound.mp4","Ist der Ball in der blauen Box?","Blue","Green","F","affirmation","na","gesture","na","ThumbUp","male","gesture-speech","1422","889","chrome","60.33","Mac OS","28","female","right","Tue Oct 22 2024 22:00:13 GMT+0200 (Central European Summer Time)","1","23","0","1729629877408"
"1790","j","SpeechGestureMatch","../RequiredFiles/videos/JaDaumenhoch_f.mp4","Ist der Ball in der grünen Box?","Blue","Green","J","affirmation","match","gesture","yes","ThumbUp","female","gesture-speech","1422","889","chrome","60.33","Mac OS","28","female","right","Tue Oct 22 2024 22:00:20 GMT+0200 (Central European Summer Time)","1","24","0","1729629877408"
"1431","f","SpeechGestureMatch","../RequiredFiles/videos/JaDaumenrunter_f.mp4","Ist der Ball in der grünen Box?","Blue","Green","F","negation","mismatch","gesture","yes","ThumbDown","female","gesture-speech","1422","889","chrome","60.33","Mac OS","28","female","right","Tue Oct 22 2024 22:00:27 GMT+0200 (Central European Summer Time)","1","25","0","1729629877408"
"1532","j","SpeechGestureMatch","../RequiredFiles/videos/NeinDaumenrunter_f.mp4","Ist der Ball in der blauen Box?","Blue","Green","J","negation","match","gesture","no","ThumbDown","female","gesture-speech","1422","889","chrome","60.33","Mac OS","28","female","right","Tue Oct 22 2024 22:00:34 GMT+0200 (Central European Summer Time)","1","26","0","1729629877408"
"1117","j","SpeechGestureMatch","../RequiredFiles/videos/NeinDaumenrunter_f.mp4","Ist der Ball in der grünen Box?","Green","Blue","J","negation","match","gesture","no","ThumbDown","female","gesture-speech","1422","889","chrome","60.33","Mac OS","28","female","right","Tue Oct 22 2024 22:00:41 GMT+0200 (Central European Summer Time)","1","27","0","1729629877408"
"1404","f","SpeechGestureMatch","../RequiredFiles/videos/JaDaumenrunter_m.mp4","Ist der Ball in der blauen Box?","Green","Blue","F","negation","mismatch","gesture","yes","ThumbDown","male","gesture-speech","1422","889","chrome","60.33","Mac OS","28","female","right","Tue Oct 22 2024 22:00:48 GMT+0200 (Central European Summer Time)","1","28","0","1729629877408"
"1235","j","SpeechGestureMatch","../RequiredFiles/videos/JaDaumenhoch_f.mp4","Ist der Ball in der blauen Box?","Green","Blue","J","affirmation","match","gesture","yes","ThumbUp","female","gesture-speech","1422","889","chrome","60.33","Mac OS","28","female","right","Tue Oct 22 2024 22:00:54 GMT+0200 (Central European Summer Time)","1","29","0","1729629877408"
"1209","f","SpeechGestureMatch","../RequiredFiles/videos/NeinDaumenhoch_m.mp4","Ist der Ball in der blauen Box?","Blue","Green","F","affirmation","mismatch","gesture","no","ThumbUp","male","gesture-speech","1422","889","chrome","60.33","Mac OS","28","female","right","Tue Oct 22 2024 22:01:01 GMT+0200 (Central European Summer Time)","1","30","0","1729629877408"
"851","j","SpeechGestureMatch","../RequiredFiles/videos/NeinDaumenhoch_m_no_sound.mp4","Ist der Ball in der grünen Box?","Blue","Green","J","affirmation","na","gesture","na","ThumbUp","male","gesture-speech","1422","889","chrome","60.33","Mac OS","28","female","right","Tue Oct 22 2024 22:01:08 GMT+0200 (Central European Summer Time)","1","31","0","1729629877408"
"1610","j","SpeechGestureMatch","../RequiredFiles/videos/JaDaumenhoch_f.mp4","Ist der Ball in der grünen Box?","Blue","Green","J","affirmation","match","gesture","yes","ThumbUp","female","gesture-speech","1422","889","chrome","60.33","Mac OS","28","female","right","Tue Oct 22 2024 22:01:15 GMT+0200 (Central European Summer Time)","1","32","0","1729629877408"
"828","f","SpeechGestureMatch","../RequiredFiles/videos/NeinDaumenrunter_f_no_sound.mp4","Ist der Ball in der blauen Box?","Blue","Green","J","negation","na","gesture","na","ThumbDown","female","gesture-speech","1422","889","chrome","60.33","Mac OS","28","female","right","Tue Oct 22 2024 22:01:21 GMT+0200 (Central European Summer Time)","1","33","1","1729629877408"
"762","f","SpeechGestureMatch","../RequiredFiles/videos/JaDaumenhoch_m_no_sound.mp4","Ist der Ball in der grünen Box?","Green","Blue","F","affirmation","na","gesture","na","ThumbUp","male","gesture-speech","1422","889","chrome","60.33","Mac OS","28","female","right","Tue Oct 22 2024 22:01:27 GMT+0200 (Central European Summer Time)","1","34","0","1729629877408"
"1469","j","SpeechGestureMatch","../RequiredFiles/videos/NeinDaumenrunter_m.mp4","Ist der Ball in der blauen Box?","Blue","Green","J","negation","match","gesture","no","ThumbDown","male","gesture-speech","1422","889","chrome","60.33","Mac OS","28","female","right","Tue Oct 22 2024 22:01:34 GMT+0200 (Central European Summer Time)","1","35","0","1729629877408"
"1412","j","SpeechGestureMatch","../RequiredFiles/videos/NeinDaumenrunter_m.mp4","Ist der Ball in der grünen Box?","Green","Blue","J","negation","match","gesture","no","ThumbDown","male","gesture-speech","1422","889","chrome","60.33","Mac OS","28","female","right","Tue Oct 22 2024 22:01:41 GMT+0200 (Central European Summer Time)","1","36","0","1729629877408"
"763","j","SpeechGestureMatch","../RequiredFiles/videos/JaDaumenhoch_f_no_sound.mp4","Ist der Ball in der blauen Box?","Green","Blue","J","affirmation","na","gesture","na","ThumbUp","female","gesture-speech","1422","889","chrome","60.33","Mac OS","28","female","right","Tue Oct 22 2024 22:01:47 GMT+0200 (Central European Summer Time)","1","37","0","1729629877408"
"710","f","SpeechGestureMatch","../RequiredFiles/videos/NeinDaumenhoch_m_no_sound.mp4","Ist der Ball in der grünen Box?","Green","Blue","F","affirmation","na","gesture","na","ThumbUp","male","gesture-speech","1422","889","chrome","60.33","Mac OS","28","female","right","Tue Oct 22 2024 22:01:54 GMT+0200 (Central European Summer Time)","1","38","0","1729629877408"
"687","j","SpeechGestureMatch","../RequiredFiles/videos/JaDaumenrunter_f_no_sound.mp4","Ist der Ball in der blauen Box?","Blue","Green","J","negation","na","gesture","na","ThumbDown","female","gesture-speech","1422","889","chrome","60.33","Mac OS","28","female","right","Tue Oct 22 2024 22:02:00 GMT+0200 (Central European Summer Time)","1","39","0","1729629877408"
"1330","j","SpeechGestureMatch","../RequiredFiles/videos/JaDaumenrunter_m.mp4","Ist der Ball in der grünen Box?","Green","Blue","J","negation","mismatch","gesture","yes","ThumbDown","male","gesture-speech","1422","889","chrome","60.33","Mac OS","28","female","right","Tue Oct 22 2024 22:02:07 GMT+0200 (Central European Summer Time)","1","40","0","1729629877408"
"844","j","SpeechGestureMatch","../RequiredFiles/videos/NeinDaumenrunter_m_no_sound.mp4","Ist der Ball in der grünen Box?","Green","Blue","J","negation","na","gesture","na","ThumbDown","male","gesture-speech","1422","889","chrome","60.33","Mac OS","28","female","right","Tue Oct 22 2024 22:02:13 GMT+0200 (Central European Summer Time)","1","41","0","1729629877408"
"725","f","SpeechGestureMatch","../RequiredFiles/videos/NeinDaumenrunter_m_no_sound.mp4","Ist der Ball in der grünen Box?","Blue","Green","F","negation","na","gesture","na","ThumbDown","male","gesture-speech","1422","889","chrome","60.33","Mac OS","28","female","right","Tue Oct 22 2024 22:02:19 GMT+0200 (Central European Summer Time)","1","42","0","1729629877408"
"1638","f","SpeechGestureMatch","../RequiredFiles/videos/JaDaumenhoch_m.mp4","Ist der Ball in der blauen Box?","Blue","Green","F","affirmation","match","gesture","yes","ThumbUp","male","gesture-speech","1422","889","chrome","60.33","Mac OS","28","female","right","Tue Oct 22 2024 22:02:27 GMT+0200 (Central European Summer Time)","1","43","0","1729629877408"
"1163","j","SpeechGestureMatch","../RequiredFiles/videos/JaDaumenhoch_m.mp4","Ist der Ball in der grünen Box?","Blue","Green","J","affirmation","match","gesture","yes","ThumbUp","male","gesture-speech","1422","889","chrome","60.33","Mac OS","28","female","right","Tue Oct 22 2024 22:02:33 GMT+0200 (Central European Summer Time)","1","44","0","1729629877408"
"768","f","SpeechGestureMatch","../RequiredFiles/videos/JaDaumenrunter_m_no_sound.mp4","Ist der Ball in der blauen Box?","Green","Blue","F","negation","na","gesture","na","ThumbDown","male","gesture-speech","1422","889","chrome","60.33","Mac OS","28","female","right","Tue Oct 22 2024 22:02:40 GMT+0200 (Central European Summer Time)","1","45","0","1729629877408"
"1325","f","SpeechGestureMatch","../RequiredFiles/videos/NeinDaumenrunter_f.mp4","Ist der Ball in der blauen Box?","Green","Blue","F","negation","match","gesture","no","ThumbDown","female","gesture-speech","1422","889","chrome","60.33","Mac OS","28","female","right","Tue Oct 22 2024 22:02:46 GMT+0200 (Central European Summer Time)","1","46","0","1729629877408"
"1229","f","SpeechGestureMatch","../RequiredFiles/videos/JaDaumenrunter_f.mp4","Ist der Ball in der grünen Box?","Blue","Green","F","negation","mismatch","gesture","yes","ThumbDown","female","gesture-speech","1422","889","chrome","60.33","Mac OS","28","female","right","Tue Oct 22 2024 22:02:53 GMT+0200 (Central European Summer Time)","1","47","0","1729629877408"
"748","j","SpeechGestureMatch","../RequiredFiles/videos/JaDaumenhoch_m_no_sound.mp4","Ist der Ball in der blauen Box?","Green","Blue","J","affirmation","na","gesture","na","ThumbUp","male","gesture-speech","1422","889","chrome","60.33","Mac OS","28","female","right","Tue Oct 22 2024 22:02:59 GMT+0200 (Central European Summer Time)","1","48","0","1729629877408"
"1711","j","SpeechGestureMatch","../RequiredFiles/videos/NeinDaumenrunter_m.mp4","Ist der Ball in der grünen Box?","Green","Blue","J","negation","match","gesture","no","ThumbDown","male","gesture-speech","1422","889","chrome","60.33","Mac OS","28","female","right","Tue Oct 22 2024 22:03:07 GMT+0200 (Central European Summer Time)","1","49","0","1729629877408"
"1329","j","SpeechGestureMatch","../RequiredFiles/videos/NeinDaumenhoch_f.mp4","Ist der Ball in der blauen Box?","Green","Blue","J","affirmation","mismatch","gesture","no","ThumbUp","female","gesture-speech","1422","889","chrome","60.33","Mac OS","28","female","right","Tue Oct 22 2024 22:03:13 GMT+0200 (Central European Summer Time)","1","50","0","1729629877408"
"1112","f","SpeechGestureMatch","../RequiredFiles/videos/JaDaumenrunter_f_no_sound.mp4","Ist der Ball in der grünen Box?","Blue","Green","F","negation","na","gesture","na","ThumbDown","female","gesture-speech","1422","889","chrome","60.33","Mac OS","28","female","right","Tue Oct 22 2024 22:03:20 GMT+0200 (Central European Summer Time)","1","51","0","1729629877408"
"984","j","SpeechGestureMatch","../RequiredFiles/videos/JaDaumenrunter_m_no_sound.mp4","Ist der Ball in der grünen Box?","Green","Blue","J","negation","na","gesture","na","ThumbDown","male","gesture-speech","1422","889","chrome","60.33","Mac OS","28","female","right","Tue Oct 22 2024 22:03:27 GMT+0200 (Central European Summer Time)","1","52","0","1729629877408"
"1352","j","SpeechGestureMatch","../RequiredFiles/videos/JaDaumenrunter_f.mp4","Ist der Ball in der grünen Box?","Green","Blue","J","negation","mismatch","gesture","yes","ThumbDown","female","gesture-speech","1422","889","chrome","60.33","Mac OS","28","female","right","Tue Oct 22 2024 22:03:33 GMT+0200 (Central European Summer Time)","1","53","0","1729629877408"
"810","j","SpeechGestureMatch","../RequiredFiles/videos/NeinDaumenrunter_f_no_sound.mp4","Ist der Ball in der grünen Box?","Blue","Green","F","negation","na","gesture","na","ThumbDown","female","gesture-speech","1422","889","chrome","60.33","Mac OS","28","female","right","Tue Oct 22 2024 22:03:40 GMT+0200 (Central European Summer Time)","1","54","1","1729629877408"
"1523","j","SpeechGestureMatch","../RequiredFiles/videos/JaDaumenhoch_m.mp4","Ist der Ball in der blauen Box?","Green","Blue","J","affirmation","match","gesture","yes","ThumbUp","male","gesture-speech","1422","889","chrome","60.33","Mac OS","28","female","right","Tue Oct 22 2024 22:03:47 GMT+0200 (Central European Summer Time)","1","55","0","1729629877408"
"1148","f","SpeechGestureMatch","../RequiredFiles/videos/JaDaumenhoch_f.mp4","Ist der Ball in der grünen Box?","Green","Blue","F","affirmation","match","gesture","yes","ThumbUp","female","gesture-speech","1422","889","chrome","60.33","Mac OS","28","female","right","Tue Oct 22 2024 22:03:53 GMT+0200 (Central European Summer Time)","1","56","0","1729629877408"
"772","f","SpeechGestureMatch","../RequiredFiles/videos/JaDaumenhoch_f_no_sound.mp4","Ist der Ball in der blauen Box?","Blue","Green","F","affirmation","na","gesture","na","ThumbUp","female","gesture-speech","1422","889","chrome","60.33","Mac OS","28","female","right","Tue Oct 22 2024 22:04:00 GMT+0200 (Central European Summer Time)","1","57","0","1729629877408"
"1612","j","SpeechGestureMatch","../RequiredFiles/videos/NeinDaumenrunter_m.mp4","Ist der Ball in der blauen Box?","Green","Blue","F","negation","match","gesture","no","ThumbDown","male","gesture-speech","1422","889","chrome","60.33","Mac OS","28","female","right","Tue Oct 22 2024 22:04:07 GMT+0200 (Central European Summer Time)","1","58","1","1729629877408"
"1215","j","SpeechGestureMatch","../RequiredFiles/videos/JaDaumenrunter_f.mp4","Ist der Ball in der grünen Box?","Green","Blue","J","negation","mismatch","gesture","yes","ThumbDown","female","gesture-speech","1422","889","chrome","60.33","Mac OS","28","female","right","Tue Oct 22 2024 22:04:14 GMT+0200 (Central European Summer Time)","1","59","0","1729629877408"
"761","f","SpeechGestureMatch","../RequiredFiles/videos/NeinDaumenrunter_f_no_sound.mp4","Ist der Ball in der blauen Box?","Green","Blue","F","negation","na","gesture","na","ThumbDown","female","gesture-speech","1422","889","chrome","60.33","Mac OS","28","female","right","Tue Oct 22 2024 22:04:20 GMT+0200 (Central European Summer Time)","1","60","0","1729629877408"
"784","j","SpeechGestureMatch","../RequiredFiles/videos/JaDaumenhoch_m_no_sound.mp4","Ist der Ball in der grünen Box?","Blue","Green","J","affirmation","na","gesture","na","ThumbUp","male","gesture-speech","1422","889","chrome","60.33","Mac OS","28","female","right","Tue Oct 22 2024 22:04:26 GMT+0200 (Central European Summer Time)","1","61","0","1729629877408"
"1380","f","SpeechGestureMatch","../RequiredFiles/videos/JaDaumenhoch_m.mp4","Ist der Ball in der grünen Box?","Green","Blue","F","affirmation","match","gesture","yes","ThumbUp","male","gesture-speech","1422","889","chrome","60.33","Mac OS","28","female","right","Tue Oct 22 2024 22:04:33 GMT+0200 (Central European Summer Time)","1","62","0","1729629877408"
"1144","j","SpeechGestureMatch","../RequiredFiles/videos/NeinDaumenhoch_m.mp4","Ist der Ball in der grünen Box?","Blue","Green","J","affirmation","mismatch","gesture","no","ThumbUp","male","gesture-speech","1422","889","chrome","60.33","Mac OS","28","female","right","Tue Oct 22 2024 22:04:40 GMT+0200 (Central European Summer Time)","1","63","0","1729629877408"
"917","j","SpeechGestureMatch","../RequiredFiles/videos/JaDaumenhoch_m_no_sound.mp4","Ist der Ball in der blauen Box?","Blue","Green","F","affirmation","na","gesture","na","ThumbUp","male","gesture-speech","1422","889","chrome","60.33","Mac OS","28","female","right","Tue Oct 22 2024 22:04:46 GMT+0200 (Central European Summer Time)","1","64","1","1729629877408"
"759","f","SpeechGestureMatch","../RequiredFiles/videos/NeinDaumenrunter_m_no_sound.mp4","Ist der Ball in der blauen Box?","Green","Blue","F","negation","na","gesture","na","ThumbDown","male","gesture-speech","1422","889","chrome","60.33","Mac OS","28","female","right","Tue Oct 22 2024 22:04:52 GMT+0200 (Central European Summer Time)","1","65","0","1729629877408"
"1647","j","SpeechGestureMatch","../RequiredFiles/videos/NeinDaumenhoch_m.mp4","Ist der Ball in der grünen Box?","Blue","Green","J","affirmation","mismatch","gesture","no","ThumbUp","male","gesture-speech","1422","889","chrome","60.33","Mac OS","28","female","right","Tue Oct 22 2024 22:05:00 GMT+0200 (Central European Summer Time)","1","66","0","1729629877408"
"1178","j","SpeechGestureMatch","../RequiredFiles/videos/JaDaumenhoch_m.mp4","Ist der Ball in der blauen Box?","Green","Blue","J","affirmation","match","gesture","yes","ThumbUp","male","gesture-speech","1422","889","chrome","60.33","Mac OS","28","female","right","Tue Oct 22 2024 22:05:06 GMT+0200 (Central European Summer Time)","1","67","0","1729629877408"
"1253","f","SpeechGestureMatch","../RequiredFiles/videos/NeinDaumenrunter_f.mp4","Ist der Ball in der grünen Box?","Blue","Green","F","negation","match","gesture","no","ThumbDown","female","gesture-speech","1422","889","chrome","60.33","Mac OS","28","female","right","Tue Oct 22 2024 22:05:13 GMT+0200 (Central European Summer Time)","1","68","0","1729629877408"
"1709","j","SpeechGestureMatch","../RequiredFiles/videos/NeinDaumenrunter_f.mp4","Ist der Ball in der blauen Box?","Blue","Green","J","negation","match","gesture","no","ThumbDown","female","gesture-speech","1422","889","chrome","60.33","Mac OS","28","female","right","Tue Oct 22 2024 22:05:20 GMT+0200 (Central European Summer Time)","1","69","0","1729629877408"
"842","f","SpeechGestureMatch","../RequiredFiles/videos/JaDaumenrunter_m_no_sound.mp4","Ist der Ball in der grünen Box?","Blue","Green","F","negation","na","gesture","na","ThumbDown","male","gesture-speech","1422","889","chrome","60.33","Mac OS","28","female","right","Tue Oct 22 2024 22:05:27 GMT+0200 (Central European Summer Time)","1","70","0","1729629877408"
"1172","f","SpeechGestureMatch","../RequiredFiles/videos/JaDaumenhoch_f.mp4","Ist der Ball in der blauen Box?","Blue","Green","F","affirmation","match","gesture","yes","ThumbUp","female","gesture-speech","1422","889","chrome","60.33","Mac OS","28","female","right","Tue Oct 22 2024 22:05:33 GMT+0200 (Central European Summer Time)","1","71","0","1729629877408"
"1076","f","SpeechGestureMatch","../RequiredFiles/videos/JaDaumenrunter_m.mp4","Ist der Ball in der grünen Box?","Blue","Green","F","negation","mismatch","gesture","yes","ThumbDown","male","gesture-speech","1422","889","chrome","60.33","Mac OS","28","female","right","Tue Oct 22 2024 22:05:40 GMT+0200 (Central European Summer Time)","1","72","0","1729629877408"
"1597","j","SpeechGestureMatch","../RequiredFiles/videos/NeinDaumenhoch_m.mp4","Ist der Ball in der grünen Box?","Green","Blue","F","affirmation","mismatch","gesture","no","ThumbUp","male","gesture-speech","1422","889","chrome","60.33","Mac OS","28","female","right","Tue Oct 22 2024 22:05:47 GMT+0200 (Central European Summer Time)","1","73","1","1729629877408"
"979","f","SpeechGestureMatch","../RequiredFiles/videos/NeinDaumenrunter_m.mp4","Ist der Ball in der blauen Box?","Green","Blue","F","negation","match","gesture","no","ThumbDown","male","gesture-speech","1422","889","chrome","60.33","Mac OS","28","female","right","Tue Oct 22 2024 22:05:53 GMT+0200 (Central European Summer Time)","1","74","0","1729629877408"
"821","j","SpeechGestureMatch","../RequiredFiles/videos/JaDaumenhoch_f_no_sound.mp4","Ist der Ball in der grünen Box?","Blue","Green","J","affirmation","na","gesture","na","ThumbUp","female","gesture-speech","1422","889","chrome","60.33","Mac OS","28","female","right","Tue Oct 22 2024 22:06:00 GMT+0200 (Central European Summer Time)","1","75","0","1729629877408"
"1787","j","SpeechGestureMatch","../RequiredFiles/videos/JaDaumenrunter_m.mp4","Ist der Ball in der blauen Box?","Blue","Green","J","negation","mismatch","gesture","yes","ThumbDown","male","gesture-speech","1422","889","chrome","60.33","Mac OS","28","female","right","Tue Oct 22 2024 22:06:07 GMT+0200 (Central European Summer Time)","1","76","0","1729629877408"
"1268","j","SpeechGestureMatch","../RequiredFiles/videos/JaDaumenrunter_f.mp4","Ist der Ball in der blauen Box?","Blue","Green","J","negation","mismatch","gesture","yes","ThumbDown","female","gesture-speech","1422","889","chrome","60.33","Mac OS","28","female","right","Tue Oct 22 2024 22:06:14 GMT+0200 (Central European Summer Time)","1","77","0","1729629877408"
"1221","j","SpeechGestureMatch","../RequiredFiles/videos/NeinDaumenhoch_m.mp4","Ist der Ball in der blauen Box?","Green","Blue","J","affirmation","mismatch","gesture","no","ThumbUp","male","gesture-speech","1422","889","chrome","60.33","Mac OS","28","female","right","Tue Oct 22 2024 22:06:21 GMT+0200 (Central European Summer Time)","1","78","0","1729629877408"
"1277","j","SpeechGestureMatch","../RequiredFiles/videos/JaDaumenrunter_f.mp4","Ist der Ball in der blauen Box?","Blue","Green","J","negation","mismatch","gesture","yes","ThumbDown","female","gesture-speech","1422","889","chrome","60.33","Mac OS","28","female","right","Tue Oct 22 2024 22:06:27 GMT+0200 (Central European Summer Time)","1","79","0","1729629877408"
"1374","j","SpeechGestureMatch","../RequiredFiles/videos/JaDaumenrunter_m.mp4","Ist der Ball in der grünen Box?","Green","Blue","J","negation","mismatch","gesture","yes","ThumbDown","male","gesture-speech","1422","889","chrome","60.33","Mac OS","28","female","right","Tue Oct 22 2024 22:06:34 GMT+0200 (Central European Summer Time)","1","80","0","1729629877408"
"1237","j","SpeechGestureMatch","../RequiredFiles/videos/NeinDaumenhoch_f.mp4","Ist der Ball in der grünen Box?","Blue","Green","J","affirmation","mismatch","gesture","no","ThumbUp","female","gesture-speech","1422","889","chrome","60.33","Mac OS","28","female","right","Tue Oct 22 2024 22:06:41 GMT+0200 (Central European Summer Time)","1","81","0","1729629877408"
"1206","j","SpeechGestureMatch","../RequiredFiles/videos/NeinDaumenhoch_f.mp4","Ist der Ball in der grünen Box?","Blue","Green","J","affirmation","mismatch","gesture","no","ThumbUp","female","gesture-speech","1422","889","chrome","60.33","Mac OS","28","female","right","Tue Oct 22 2024 22:06:48 GMT+0200 (Central European Summer Time)","1","82","0","1729629877408"
"803","f","SpeechGestureMatch","../RequiredFiles/videos/NeinDaumenhoch_f_no_sound.mp4","Ist der Ball in der blauen Box?","Blue","Green","F","affirmation","na","gesture","na","ThumbUp","female","gesture-speech","1422","889","chrome","60.33","Mac OS","28","female","right","Tue Oct 22 2024 22:06:54 GMT+0200 (Central European Summer Time)","1","83","0","1729629877408"
"1586","f","SpeechGestureMatch","../RequiredFiles/videos/NeinDaumenrunter_m.mp4","Ist der Ball in der grünen Box?","Blue","Green","F","negation","match","gesture","no","ThumbDown","male","gesture-speech","1422","889","chrome","60.33","Mac OS","28","female","right","Tue Oct 22 2024 22:07:01 GMT+0200 (Central European Summer Time)","1","84","0","1729629877408"
"1211","f","SpeechGestureMatch","../RequiredFiles/videos/NeinDaumenhoch_f.mp4","Ist der Ball in der blauen Box?","Blue","Green","F","affirmation","mismatch","gesture","no","ThumbUp","female","gesture-speech","1422","889","chrome","60.33","Mac OS","28","female","right","Tue Oct 22 2024 22:07:08 GMT+0200 (Central European Summer Time)","1","85","0","1729629877408"
"870","j","SpeechGestureMatch","../RequiredFiles/videos/NeinDaumenhoch_f_no_sound.mp4","Ist der Ball in der grünen Box?","Blue","Green","J","affirmation","na","gesture","na","ThumbUp","female","gesture-speech","1422","889","chrome","60.33","Mac OS","28","female","right","Tue Oct 22 2024 22:07:14 GMT+0200 (Central European Summer Time)","1","86","0","1729629877408"
"1528","j","SpeechGestureMatch","../RequiredFiles/videos/JaDaumenhoch_f.mp4","Ist der Ball in der blauen Box?","Green","Blue","J","affirmation","match","gesture","yes","ThumbUp","female","gesture-speech","1422","889","chrome","60.33","Mac OS","28","female","right","Tue Oct 22 2024 22:07:21 GMT+0200 (Central European Summer Time)","1","87","0","1729629877408"
"1206","f","SpeechGestureMatch","../RequiredFiles/videos/NeinDaumenhoch_f.mp4","Ist der Ball in der grünen Box?","Green","Blue","F","affirmation","mismatch","gesture","no","ThumbUp","female","gesture-speech","1422","889","chrome","60.33","Mac OS","28","female","right","Tue Oct 22 2024 22:07:28 GMT+0200 (Central European Summer Time)","1","88","0","1729629877408"
"1357","j","SpeechGestureMatch","../RequiredFiles/videos/JaDaumenrunter_m.mp4","Ist der Ball in der blauen Box?","Blue","Green","J","negation","mismatch","gesture","yes","ThumbDown","male","gesture-speech","1422","889","chrome","60.33","Mac OS","28","female","right","Tue Oct 22 2024 22:07:35 GMT+0200 (Central European Summer Time)","1","89","0","1729629877408"
"1212","f","SpeechGestureMatch","../RequiredFiles/videos/NeinDaumenhoch_m.mp4","Ist der Ball in der grünen Box?","Green","Blue","F","affirmation","mismatch","gesture","no","ThumbUp","male","gesture-speech","1422","889","chrome","60.33","Mac OS","28","female","right","Tue Oct 22 2024 22:07:42 GMT+0200 (Central European Summer Time)","1","90","0","1729629877408"
"1325","f","SpeechGestureMatch","../RequiredFiles/videos/JaDaumenhoch_f.mp4","Ist der Ball in der grünen Box?","Green","Blue","F","affirmation","match","gesture","yes","ThumbUp","female","gesture-speech","1422","889","chrome","60.33","Mac OS","28","female","right","Tue Oct 22 2024 22:07:49 GMT+0200 (Central European Summer Time)","1","91","0","1729629877408"
"930","j","SpeechGestureMatch","../RequiredFiles/videos/JaDaumenrunter_m_no_sound.mp4","Ist der Ball in der blauen Box?","Blue","Green","J","negation","na","gesture","na","ThumbDown","male","gesture-speech","1422","889","chrome","60.33","Mac OS","28","female","right","Tue Oct 22 2024 22:07:55 GMT+0200 (Central European Summer Time)","1","92","0","1729629877408"
"1833","j","SpeechGestureMatch","../RequiredFiles/videos/JaDaumenhoch_m.mp4","Ist der Ball in der blauen Box?","Blue","Green","F","affirmation","match","gesture","yes","ThumbUp","male","gesture-speech","1422","889","chrome","60.33","Mac OS","28","female","right","Tue Oct 22 2024 22:08:02 GMT+0200 (Central European Summer Time)","1","93","1","1729629877408"
"1215","f","SpeechGestureMatch","../RequiredFiles/videos/JaDaumenrunter_f.mp4","Ist der Ball in der blauen Box?","Green","Blue","F","negation","mismatch","gesture","yes","ThumbDown","female","gesture-speech","1422","889","chrome","60.33","Mac OS","28","female","right","Tue Oct 22 2024 22:08:09 GMT+0200 (Central European Summer Time)","1","94","0","1729629877408"
"1252","j","SpeechGestureMatch","../RequiredFiles/videos/NeinDaumenrunter_f.mp4","Ist der Ball in der grünen Box?","Green","Blue","J","negation","match","gesture","no","ThumbDown","female","gesture-speech","1422","889","chrome","60.33","Mac OS","28","female","right","Tue Oct 22 2024 22:08:16 GMT+0200 (Central European Summer Time)","1","95","0","1729629877408"
"1339","j","SpeechGestureMatch","../RequiredFiles/videos/NeinDaumenhoch_f.mp4","Ist der Ball in der blauen Box?","Green","Blue","J","affirmation","mismatch","gesture","no","ThumbUp","female","gesture-speech","1422","889","chrome","60.33","Mac OS","28","female","right","Tue Oct 22 2024 22:08:23 GMT+0200 (Central European Summer Time)","1","96","0","1729629877408"
"1362","j","SpeechGestureMatch","../RequiredFiles/videos/NeinDaumenhoch_f.mp4","Ist der Ball in der blauen Box?","Green","Blue","J","affirmation","mismatch","gesture","no","ThumbUp","female","gesture-speech","1422","889","chrome","60.33","Mac OS","28","female","right","Tue Oct 22 2024 22:09:49 GMT+0200 (Central European Summer Time)","2","1","0","1729629877408"
"1151","j","SpeechGestureMatch","../RequiredFiles/videos/JaDaumenhoch_f.mp4","Ist der Ball in der grünen Box?","Blue","Green","J","affirmation","match","gesture","yes","ThumbUp","female","gesture-speech","1422","889","chrome","60.33","Mac OS","28","female","right","Tue Oct 22 2024 22:09:56 GMT+0200 (Central European Summer Time)","2","2","0","1729629877408"
"793","f","SpeechGestureMatch","../RequiredFiles/videos/JaDaumenhoch_m_no_sound.mp4","Ist der Ball in der blauen Box?","Blue","Green","F","affirmation","na","gesture","na","ThumbUp","male","gesture-speech","1422","889","chrome","60.33","Mac OS","28","female","right","Tue Oct 22 2024 22:10:02 GMT+0200 (Central European Summer Time)","2","3","0","1729629877408"
"720","j","SpeechGestureMatch","../RequiredFiles/videos/JaDaumenhoch_f_no_sound.mp4","Ist der Ball in der grünen Box?","Blue","Green","J","affirmation","na","gesture","na","ThumbUp","female","gesture-speech","1422","889","chrome","60.33","Mac OS","28","female","right","Tue Oct 22 2024 22:10:08 GMT+0200 (Central European Summer Time)","2","4","0","1729629877408"
"1813","f","SpeechGestureMatch","../RequiredFiles/videos/JaDaumenrunter_m.mp4","Ist der Ball in der grünen Box?","Blue","Green","F","negation","mismatch","gesture","yes","ThumbDown","male","gesture-speech","1422","889","chrome","60.33","Mac OS","28","female","right","Tue Oct 22 2024 22:10:16 GMT+0200 (Central European Summer Time)","2","5","0","1729629877408"
"1234","f","SpeechGestureMatch","../RequiredFiles/videos/NeinDaumenhoch_m.mp4","Ist der Ball in der grünen Box?","Green","Blue","F","affirmation","mismatch","gesture","no","ThumbUp","male","gesture-speech","1422","889","chrome","60.33","Mac OS","28","female","right","Tue Oct 22 2024 22:10:22 GMT+0200 (Central European Summer Time)","2","6","0","1729629877408"
"1260","f","SpeechGestureMatch","../RequiredFiles/videos/JaDaumenhoch_m.mp4","Ist der Ball in der blauen Box?","Blue","Green","F","affirmation","match","gesture","yes","ThumbUp","male","gesture-speech","1422","889","chrome","60.33","Mac OS","28","female","right","Tue Oct 22 2024 22:10:29 GMT+0200 (Central European Summer Time)","2","7","0","1729629877408"
"1173","f","SpeechGestureMatch","../RequiredFiles/videos/NeinDaumenhoch_m.mp4","Ist der Ball in der blauen Box?","Blue","Green","F","affirmation","mismatch","gesture","no","ThumbUp","male","gesture-speech","1422","889","chrome","60.33","Mac OS","28","female","right","Tue Oct 22 2024 22:10:36 GMT+0200 (Central European Summer Time)","2","8","0","1729629877408"
"1345","f","SpeechGestureMatch","../RequiredFiles/videos/NeinDaumenhoch_m.mp4","Ist der Ball in der grünen Box?","Green","Blue","F","affirmation","mismatch","gesture","no","ThumbUp","male","gesture-speech","1422","889","chrome","60.33","Mac OS","28","female","right","Tue Oct 22 2024 22:10:43 GMT+0200 (Central European Summer Time)","2","9","0","1729629877408"
"1277","f","SpeechGestureMatch","../RequiredFiles/videos/JaDaumenhoch_m.mp4","Ist der Ball in der blauen Box?","Blue","Green","F","affirmation","match","gesture","yes","ThumbUp","male","gesture-speech","1422","889","chrome","60.33","Mac OS","28","female","right","Tue Oct 22 2024 22:10:49 GMT+0200 (Central European Summer Time)","2","10","0","1729629877408"
"1144","f","SpeechGestureMatch","../RequiredFiles/videos/JaDaumenrunter_f.mp4","Ist der Ball in der blauen Box?","Green","Blue","F","negation","mismatch","gesture","yes","ThumbDown","female","gesture-speech","1422","889","chrome","60.33","Mac OS","28","female","right","Tue Oct 22 2024 22:10:56 GMT+0200 (Central European Summer Time)","2","11","0","1729629877408"
"1579","j","SpeechGestureMatch","../RequiredFiles/videos/JaDaumenhoch_f.mp4","Ist der Ball in der blauen Box?","Green","Blue","J","affirmation","match","gesture","yes","ThumbUp","female","gesture-speech","1422","889","chrome","60.33","Mac OS","28","female","right","Tue Oct 22 2024 22:11:03 GMT+0200 (Central European Summer Time)","2","12","0","1729629877408"
"1260","f","SpeechGestureMatch","../RequiredFiles/videos/NeinDaumenhoch_f.mp4","Ist der Ball in der blauen Box?","Blue","Green","F","affirmation","mismatch","gesture","no","ThumbUp","female","gesture-speech","1422","889","chrome","60.33","Mac OS","28","female","right","Tue Oct 22 2024 22:11:10 GMT+0200 (Central European Summer Time)","2","13","0","1729629877408"
"1313","f","SpeechGestureMatch","../RequiredFiles/videos/NeinDaumenhoch_f.mp4","Ist der Ball in der blauen Box?","Blue","Green","F","affirmation","mismatch","gesture","no","ThumbUp","female","gesture-speech","1422","889","chrome","60.33","Mac OS","28","female","right","Tue Oct 22 2024 22:11:17 GMT+0200 (Central European Summer Time)","2","14","0","1729629877408"
"675","j","SpeechGestureMatch","../RequiredFiles/videos/NeinDaumenhoch_m_no_sound.mp4","Ist der Ball in der grünen Box?","Blue","Green","J","affirmation","na","gesture","na","ThumbUp","male","gesture-speech","1422","889","chrome","60.33","Mac OS","28","female","right","Tue Oct 22 2024 22:11:23 GMT+0200 (Central European Summer Time)","2","15","0","1729629877408"
"1594","j","SpeechGestureMatch","../RequiredFiles/videos/JaDaumenhoch_f.mp4","Ist der Ball in der blauen Box?","Green","Blue","J","affirmation","match","gesture","yes","ThumbUp","female","gesture-speech","1422","889","chrome","60.33","Mac OS","28","female","right","Tue Oct 22 2024 22:11:30 GMT+0200 (Central European Summer Time)","2","16","0","1729629877408"
"1233","f","SpeechGestureMatch","../RequiredFiles/videos/JaDaumenrunter_m.mp4","Ist der Ball in der blauen Box?","Green","Blue","F","negation","mismatch","gesture","yes","ThumbDown","male","gesture-speech","1422","889","chrome","60.33","Mac OS","28","female","right","Tue Oct 22 2024 22:11:37 GMT+0200 (Central European Summer Time)","2","17","0","1729629877408"
"983","f","SpeechGestureMatch","../RequiredFiles/videos/JaDaumenrunter_m_no_sound.mp4","Ist der Ball in der grünen Box?","Green","Blue","J","negation","na","gesture","na","ThumbDown","male","gesture-speech","1422","889","chrome","60.33","Mac OS","28","female","right","Tue Oct 22 2024 22:11:43 GMT+0200 (Central European Summer Time)","2","18","1","1729629877408"
"800","f","SpeechGestureMatch","../RequiredFiles/videos/JaDaumenrunter_m_no_sound.mp4","Ist der Ball in der grünen Box?","Blue","Green","F","negation","na","gesture","na","ThumbDown","male","gesture-speech","1422","889","chrome","60.33","Mac OS","28","female","right","Tue Oct 22 2024 22:11:50 GMT+0200 (Central European Summer Time)","2","19","0","1729629877408"
"729","j","SpeechGestureMatch","../RequiredFiles/videos/NeinDaumenhoch_f_no_sound.mp4","Ist der Ball in der blauen Box?","Green","Blue","J","affirmation","na","gesture","na","ThumbUp","female","gesture-speech","1422","889","chrome","60.33","Mac OS","28","female","right","Tue Oct 22 2024 22:11:56 GMT+0200 (Central European Summer Time)","2","20","0","1729629877408"
"735","f","SpeechGestureMatch","../RequiredFiles/videos/NeinDaumenhoch_m_no_sound.mp4","Ist der Ball in der grünen Box?","Green","Blue","F","affirmation","na","gesture","na","ThumbUp","male","gesture-speech","1422","889","chrome","60.33","Mac OS","28","female","right","Tue Oct 22 2024 22:12:02 GMT+0200 (Central European Summer Time)","2","21","0","1729629877408"
"1361","j","SpeechGestureMatch","../RequiredFiles/videos/NeinDaumenrunter_f.mp4","Ist der Ball in der blauen Box?","Blue","Green","J","negation","match","gesture","no","ThumbDown","female","gesture-speech","1422","889","chrome","60.33","Mac OS","28","female","right","Tue Oct 22 2024 22:12:09 GMT+0200 (Central European Summer Time)","2","22","0","1729629877408"
"1284","f","SpeechGestureMatch","../RequiredFiles/videos/JaDaumenhoch_f.mp4","Ist der Ball in der grünen Box?","Green","Blue","F","affirmation","match","gesture","yes","ThumbUp","female","gesture-speech","1422","889","chrome","60.33","Mac OS","28","female","right","Tue Oct 22 2024 22:12:16 GMT+0200 (Central European Summer Time)","2","23","0","1729629877408"
"1022","f","SpeechGestureMatch","../RequiredFiles/videos/NeinDaumenrunter_f_no_sound.mp4","Ist der Ball in der grünen Box?","Blue","Green","F","negation","na","gesture","na","ThumbDown","female","gesture-speech","1422","889","chrome","60.33","Mac OS","28","female","right","Tue Oct 22 2024 22:12:22 GMT+0200 (Central European Summer Time)","2","24","0","1729629877408"
"1449","f","SpeechGestureMatch","../RequiredFiles/videos/NeinDaumenhoch_f.mp4","Ist der Ball in der grünen Box?","Green","Blue","F","affirmation","mismatch","gesture","no","ThumbUp","female","gesture-speech","1422","889","chrome","60.33","Mac OS","28","female","right","Tue Oct 22 2024 22:12:29 GMT+0200 (Central European Summer Time)","2","25","0","1729629877408"
"1128","f","SpeechGestureMatch","../RequiredFiles/videos/JaDaumenrunter_f.mp4","Ist der Ball in der grünen Box?","Blue","Green","F","negation","mismatch","gesture","yes","ThumbDown","female","gesture-speech","1422","889","chrome","60.33","Mac OS","28","female","right","Tue Oct 22 2024 22:12:36 GMT+0200 (Central European Summer Time)","2","26","0","1729629877408"
"1338","j","SpeechGestureMatch","../RequiredFiles/videos/NeinDaumenhoch_f.mp4","Ist der Ball in der grünen Box?","Blue","Green","J","affirmation","mismatch","gesture","no","ThumbUp","female","gesture-speech","1422","889","chrome","60.33","Mac OS","28","female","right","Tue Oct 22 2024 22:12:43 GMT+0200 (Central European Summer Time)","2","27","0","1729629877408"
"1084","j","SpeechGestureMatch","../RequiredFiles/videos/JaDaumenhoch_m.mp4","Ist der Ball in der grünen Box?","Blue","Green","J","affirmation","match","gesture","yes","ThumbUp","male","gesture-speech","1422","889","chrome","60.33","Mac OS","28","female","right","Tue Oct 22 2024 22:12:49 GMT+0200 (Central European Summer Time)","2","28","0","1729629877408"
"1238","j","SpeechGestureMatch","../RequiredFiles/videos/JaDaumenrunter_f.mp4","Ist der Ball in der blauen Box?","Blue","Green","J","negation","mismatch","gesture","yes","ThumbDown","female","gesture-speech","1422","889","chrome","60.33","Mac OS","28","female","right","Tue Oct 22 2024 22:12:56 GMT+0200 (Central European Summer Time)","2","29","0","1729629877408"
"899","f","SpeechGestureMatch","../RequiredFiles/videos/JaDaumenhoch_f_no_sound.mp4","Ist der Ball in der blauen Box?","Blue","Green","F","affirmation","na","gesture","na","ThumbUp","female","gesture-speech","1422","889","chrome","60.33","Mac OS","28","female","right","Tue Oct 22 2024 22:13:03 GMT+0200 (Central European Summer Time)","2","30","0","1729629877408"
"678","j","SpeechGestureMatch","../RequiredFiles/videos/JaDaumenhoch_m_no_sound.mp4","Ist der Ball in der grünen Box?","Blue","Green","J","affirmation","na","gesture","na","ThumbUp","male","gesture-speech","1422","889","chrome","60.33","Mac OS","28","female","right","Tue Oct 22 2024 22:13:09 GMT+0200 (Central European Summer Time)","2","31","0","1729629877408"
"1666","f","SpeechGestureMatch","../RequiredFiles/videos/JaDaumenrunter_f.mp4","Ist der Ball in der blauen Box?","Green","Blue","F","negation","mismatch","gesture","yes","ThumbDown","female","gesture-speech","1422","889","chrome","60.33","Mac OS","28","female","right","Tue Oct 22 2024 22:13:16 GMT+0200 (Central European Summer Time)","2","32","0","1729629877408"
"678","j","SpeechGestureMatch","../RequiredFiles/videos/JaDaumenhoch_m_no_sound.mp4","Ist der Ball in der blauen Box?","Green","Blue","J","affirmation","na","gesture","na","ThumbUp","male","gesture-speech","1422","889","chrome","60.33","Mac OS","28","female","right","Tue Oct 22 2024 22:13:22 GMT+0200 (Central European Summer Time)","2","33","0","1729629877408"
"1456","f","SpeechGestureMatch","../RequiredFiles/videos/NeinDaumenrunter_f.mp4","Ist der Ball in der grünen Box?","Blue","Green","F","negation","match","gesture","no","ThumbDown","female","gesture-speech","1422","889","chrome","60.33","Mac OS","28","female","right","Tue Oct 22 2024 22:13:29 GMT+0200 (Central European Summer Time)","2","34","0","1729629877408"
"964","j","SpeechGestureMatch","../RequiredFiles/videos/NeinDaumenrunter_f.mp4","Ist der Ball in der grünen Box?","Green","Blue","J","negation","match","gesture","no","ThumbDown","female","gesture-speech","1422","889","chrome","60.33","Mac OS","28","female","right","Tue Oct 22 2024 22:13:36 GMT+0200 (Central European Summer Time)","2","35","0","1729629877408"
"1237","j","SpeechGestureMatch","../RequiredFiles/videos/NeinDaumenrunter_f.mp4","Ist der Ball in der grünen Box?","Green","Blue","J","negation","match","gesture","no","ThumbDown","female","gesture-speech","1422","889","chrome","60.33","Mac OS","28","female","right","Tue Oct 22 2024 22:13:42 GMT+0200 (Central European Summer Time)","2","36","0","1729629877408"
"1310","j","SpeechGestureMatch","../RequiredFiles/videos/NeinDaumenhoch_f.mp4","Ist der Ball in der grünen Box?","Blue","Green","J","affirmation","mismatch","gesture","no","ThumbUp","female","gesture-speech","1422","889","chrome","60.33","Mac OS","28","female","right","Tue Oct 22 2024 22:13:49 GMT+0200 (Central European Summer Time)","2","37","0","1729629877408"
"1187","f","SpeechGestureMatch","../RequiredFiles/videos/NeinDaumenrunter_m.mp4","Ist der Ball in der grünen Box?","Blue","Green","F","negation","match","gesture","no","ThumbDown","male","gesture-speech","1422","889","chrome","60.33","Mac OS","28","female","right","Tue Oct 22 2024 22:13:56 GMT+0200 (Central European Summer Time)","2","38","0","1729629877408"
"1234","j","SpeechGestureMatch","../RequiredFiles/videos/JaDaumenrunter_f.mp4","Ist der Ball in der grünen Box?","Green","Blue","J","negation","mismatch","gesture","yes","ThumbDown","female","gesture-speech","1422","889","chrome","60.33","Mac OS","28","female","right","Tue Oct 22 2024 22:14:03 GMT+0200 (Central European Summer Time)","2","39","0","1729629877408"
"1917","f","SpeechGestureMatch","../RequiredFiles/videos/JaDaumenhoch_f.mp4","Ist der Ball in der grünen Box?","Green","Blue","F","affirmation","match","gesture","yes","ThumbUp","female","gesture-speech","1422","889","chrome","60.33","Mac OS","28","female","right","Tue Oct 22 2024 22:14:10 GMT+0200 (Central European Summer Time)","2","40","0","1729629877408"
"1151","j","SpeechGestureMatch","../RequiredFiles/videos/JaDaumenrunter_f.mp4","Ist der Ball in der blauen Box?","Blue","Green","J","negation","mismatch","gesture","yes","ThumbDown","female","gesture-speech","1422","889","chrome","60.33","Mac OS","28","female","right","Tue Oct 22 2024 22:14:17 GMT+0200 (Central European Summer Time)","2","41","0","1729629877408"
"1123","j","SpeechGestureMatch","../RequiredFiles/videos/NeinDaumenrunter_m.mp4","Ist der Ball in der grünen Box?","Green","Blue","J","negation","match","gesture","no","ThumbDown","male","gesture-speech","1422","889","chrome","60.33","Mac OS","28","female","right","Tue Oct 22 2024 22:14:23 GMT+0200 (Central European Summer Time)","2","42","0","1729629877408"
"1429","f","SpeechGestureMatch","../RequiredFiles/videos/JaDaumenhoch_m.mp4","Ist der Ball in der grünen Box?","Green","Blue","F","affirmation","match","gesture","yes","ThumbUp","male","gesture-speech","1422","889","chrome","60.33","Mac OS","28","female","right","Tue Oct 22 2024 22:14:30 GMT+0200 (Central European Summer Time)","2","43","0","1729629877408"
"698","j","SpeechGestureMatch","../RequiredFiles/videos/NeinDaumenhoch_f_no_sound.mp4","Ist der Ball in der grünen Box?","Blue","Green","J","affirmation","na","gesture","na","ThumbUp","female","gesture-speech","1422","889","chrome","60.33","Mac OS","28","female","right","Tue Oct 22 2024 22:14:36 GMT+0200 (Central European Summer Time)","2","44","0","1729629877408"
"789","f","SpeechGestureMatch","../RequiredFiles/videos/JaDaumenrunter_m_no_sound.mp4","Ist der Ball in der blauen Box?","Green","Blue","F","negation","na","gesture","na","ThumbDown","male","gesture-speech","1422","889","chrome","60.33","Mac OS","28","female","right","Tue Oct 22 2024 22:14:43 GMT+0200 (Central European Summer Time)","2","45","0","1729629877408"
"1443","j","SpeechGestureMatch","../RequiredFiles/videos/NeinDaumenhoch_m.mp4","Ist der Ball in der grünen Box?","Blue","Green","J","affirmation","mismatch","gesture","no","ThumbUp","male","gesture-speech","1422","889","chrome","60.33","Mac OS","28","female","right","Tue Oct 22 2024 22:14:50 GMT+0200 (Central European Summer Time)","2","46","0","1729629877408"
"909","j","SpeechGestureMatch","../RequiredFiles/videos/JaDaumenhoch_m_no_sound.mp4","Ist der Ball in der grünen Box?","Green","Blue","F","affirmation","na","gesture","na","ThumbUp","male","gesture-speech","1422","889","chrome","60.33","Mac OS","28","female","right","Tue Oct 22 2024 22:14:56 GMT+0200 (Central European Summer Time)","2","47","1","1729629877408"
"1446","j","SpeechGestureMatch","../RequiredFiles/videos/JaDaumenrunter_f.mp4","Ist der Ball in der grünen Box?","Green","Blue","J","negation","mismatch","gesture","yes","ThumbDown","female","gesture-speech","1422","889","chrome","60.33","Mac OS","28","female","right","Tue Oct 22 2024 22:15:03 GMT+0200 (Central European Summer Time)","2","48","0","1729629877408"
"766","f","SpeechGestureMatch","../RequiredFiles/videos/NeinDaumenhoch_f_no_sound.mp4","Ist der Ball in der blauen Box?","Blue","Green","F","affirmation","na","gesture","na","ThumbUp","female","gesture-speech","1422","889","chrome","60.33","Mac OS","28","female","right","Tue Oct 22 2024 22:15:09 GMT+0200 (Central European Summer Time)","2","49","0","1729629877408"
"1808","f","SpeechGestureMatch","../RequiredFiles/videos/NeinDaumenrunter_m.mp4","Ist der Ball in der blauen Box?","Green","Blue","F","negation","match","gesture","no","ThumbDown","male","gesture-speech","1422","889","chrome","60.33","Mac OS","28","female","right","Tue Oct 22 2024 22:15:17 GMT+0200 (Central European Summer Time)","2","50","0","1729629877408"
"1315","j","SpeechGestureMatch","../RequiredFiles/videos/NeinDaumenrunter_f.mp4","Ist der Ball in der blauen Box?","Blue","Green","J","negation","match","gesture","no","ThumbDown","female","gesture-speech","1422","889","chrome","60.33","Mac OS","28","female","right","Tue Oct 22 2024 22:15:24 GMT+0200 (Central European Summer Time)","2","51","0","1729629877408"
"1635","j","SpeechGestureMatch","../RequiredFiles/videos/NeinDaumenrunter_m.mp4","Ist der Ball in der grünen Box?","Green","Blue","J","negation","match","gesture","no","ThumbDown","male","gesture-speech","1422","889","chrome","60.33","Mac OS","28","female","right","Tue Oct 22 2024 22:15:31 GMT+0200 (Central European Summer Time)","2","52","0","1729629877408"
"803","j","SpeechGestureMatch","../RequiredFiles/videos/NeinDaumenrunter_m_no_sound.mp4","Ist der Ball in der blauen Box?","Blue","Green","J","negation","na","gesture","na","ThumbDown","male","gesture-speech","1422","889","chrome","60.33","Mac OS","28","female","right","Tue Oct 22 2024 22:15:37 GMT+0200 (Central European Summer Time)","2","53","0","1729629877408"
"1368","f","SpeechGestureMatch","../RequiredFiles/videos/NeinDaumenrunter_m.mp4","Ist der Ball in der grünen Box?","Blue","Green","F","negation","match","gesture","no","ThumbDown","male","gesture-speech","1422","889","chrome","60.33","Mac OS","28","female","right","Tue Oct 22 2024 22:15:44 GMT+0200 (Central European Summer Time)","2","54","0","1729629877408"
"1131","f","SpeechGestureMatch","../RequiredFiles/videos/NeinDaumenrunter_m.mp4","Ist der Ball in der blauen Box?","Green","Blue","F","negation","match","gesture","no","ThumbDown","male","gesture-speech","1422","889","chrome","60.33","Mac OS","28","female","right","Tue Oct 22 2024 22:15:50 GMT+0200 (Central European Summer Time)","2","55","0","1729629877408"
"1198","j","SpeechGestureMatch","../RequiredFiles/videos/JaDaumenrunter_m.mp4","Ist der Ball in der grünen Box?","Green","Blue","J","negation","mismatch","gesture","yes","ThumbDown","male","gesture-speech","1422","889","chrome","60.33","Mac OS","28","female","right","Tue Oct 22 2024 22:15:57 GMT+0200 (Central European Summer Time)","2","56","0","1729629877408"
"741","f","SpeechGestureMatch","../RequiredFiles/videos/NeinDaumenhoch_m_no_sound.mp4","Ist der Ball in der blauen Box?","Blue","Green","F","affirmation","na","gesture","na","ThumbUp","male","gesture-speech","1422","889","chrome","60.33","Mac OS","28","female","right","Tue Oct 22 2024 22:16:03 GMT+0200 (Central European Summer Time)","2","57","0","1729629877408"
"1510","f","SpeechGestureMatch","../RequiredFiles/videos/JaDaumenhoch_f.mp4","Ist der Ball in der blauen Box?","Blue","Green","F","affirmation","match","gesture","yes","ThumbUp","female","gesture-speech","1422","889","chrome","60.33","Mac OS","28","female","right","Tue Oct 22 2024 22:16:10 GMT+0200 (Central European Summer Time)","2","58","0","1729629877408"
"867","f","SpeechGestureMatch","../RequiredFiles/videos/NeinDaumenrunter_m_no_sound.mp4","Ist der Ball in der blauen Box?","Green","Blue","F","negation","na","gesture","na","ThumbDown","male","gesture-speech","1422","889","chrome","60.33","Mac OS","28","female","right","Tue Oct 22 2024 22:16:17 GMT+0200 (Central European Summer Time)","2","59","0","1729629877408"
"1455","j","SpeechGestureMatch","../RequiredFiles/videos/NeinDaumenhoch_m.mp4","Ist der Ball in der grünen Box?","Blue","Green","J","affirmation","mismatch","gesture","no","ThumbUp","male","gesture-speech","1422","889","chrome","60.33","Mac OS","28","female","right","Tue Oct 22 2024 22:16:24 GMT+0200 (Central European Summer Time)","2","60","0","1729629877408"
"1262","f","SpeechGestureMatch","../RequiredFiles/videos/NeinDaumenrunter_f.mp4","Ist der Ball in der grünen Box?","Blue","Green","F","negation","match","gesture","no","ThumbDown","female","gesture-speech","1422","889","chrome","60.33","Mac OS","28","female","right","Tue Oct 22 2024 22:16:31 GMT+0200 (Central European Summer Time)","2","61","0","1729629877408"
"908","j","SpeechGestureMatch","../RequiredFiles/videos/JaDaumenrunter_m_no_sound.mp4","Ist der Ball in der blauen Box?","Blue","Green","J","negation","na","gesture","na","ThumbDown","male","gesture-speech","1422","889","chrome","60.33","Mac OS","28","female","right","Tue Oct 22 2024 22:16:37 GMT+0200 (Central European Summer Time)","2","62","0","1729629877408"
"792","f","SpeechGestureMatch","../RequiredFiles/videos/JaDaumenrunter_f_no_sound.mp4","Ist der Ball in der grünen Box?","Blue","Green","F","negation","na","gesture","na","ThumbDown","female","gesture-speech","1422","889","chrome","60.33","Mac OS","28","female","right","Tue Oct 22 2024 22:16:43 GMT+0200 (Central European Summer Time)","2","63","0","1729629877408"
"729","j","SpeechGestureMatch","../RequiredFiles/videos/JaDaumenrunter_f_no_sound.mp4","Ist der Ball in der grünen Box?","Green","Blue","J","negation","na","gesture","na","ThumbDown","female","gesture-speech","1422","889","chrome","60.33","Mac OS","28","female","right","Tue Oct 22 2024 22:16:50 GMT+0200 (Central European Summer Time)","2","64","0","1729629877408"
"1538","j","SpeechGestureMatch","../RequiredFiles/videos/JaDaumenhoch_m.mp4","Ist der Ball in der grünen Box?","Blue","Green","J","affirmation","match","gesture","yes","ThumbUp","male","gesture-speech","1422","889","chrome","60.33","Mac OS","28","female","right","Tue Oct 22 2024 22:16:57 GMT+0200 (Central European Summer Time)","2","65","0","1729629877408"
"1208","j","SpeechGestureMatch","../RequiredFiles/videos/NeinDaumenhoch_f.mp4","Ist der Ball in der blauen Box?","Green","Blue","J","affirmation","mismatch","gesture","no","ThumbUp","female","gesture-speech","1422","889","chrome","60.33","Mac OS","28","female","right","Tue Oct 22 2024 22:17:03 GMT+0200 (Central European Summer Time)","2","66","0","1729629877408"
"1115","f","SpeechGestureMatch","../RequiredFiles/videos/JaDaumenrunter_f.mp4","Ist der Ball in der grünen Box?","Blue","Green","F","negation","mismatch","gesture","yes","ThumbDown","female","gesture-speech","1422","889","chrome","60.33","Mac OS","28","female","right","Tue Oct 22 2024 22:17:10 GMT+0200 (Central European Summer Time)","2","67","0","1729629877408"
"1165","j","SpeechGestureMatch","../RequiredFiles/videos/JaDaumenhoch_f.mp4","Ist der Ball in der grünen Box?","Blue","Green","J","affirmation","match","gesture","yes","ThumbUp","female","gesture-speech","1422","889","chrome","60.33","Mac OS","28","female","right","Tue Oct 22 2024 22:17:17 GMT+0200 (Central European Summer Time)","2","68","0","1729629877408"
"1410","j","SpeechGestureMatch","../RequiredFiles/videos/JaDaumenrunter_m.mp4","Ist der Ball in der blauen Box?","Blue","Green","J","negation","mismatch","gesture","yes","ThumbDown","male","gesture-speech","1422","889","chrome","60.33","Mac OS","28","female","right","Tue Oct 22 2024 22:17:24 GMT+0200 (Central European Summer Time)","2","69","0","1729629877408"
"989","f","SpeechGestureMatch","../RequiredFiles/videos/NeinDaumenrunter_f.mp4","Ist der Ball in der blauen Box?","Green","Blue","F","negation","match","gesture","no","ThumbDown","female","gesture-speech","1422","889","chrome","60.33","Mac OS","28","female","right","Tue Oct 22 2024 22:17:30 GMT+0200 (Central European Summer Time)","2","70","0","1729629877408"
"1291","f","SpeechGestureMatch","../RequiredFiles/videos/JaDaumenhoch_m.mp4","Ist der Ball in der grünen Box?","Green","Blue","F","affirmation","match","gesture","yes","ThumbUp","male","gesture-speech","1422","889","chrome","60.33","Mac OS","28","female","right","Tue Oct 22 2024 22:17:37 GMT+0200 (Central European Summer Time)","2","71","0","1729629877408"
"1249","j","SpeechGestureMatch","../RequiredFiles/videos/JaDaumenrunter_m.mp4","Ist der Ball in der blauen Box?","Blue","Green","J","negation","mismatch","gesture","yes","ThumbDown","male","gesture-speech","1422","889","chrome","60.33","Mac OS","28","female","right","Tue Oct 22 2024 22:17:44 GMT+0200 (Central European Summer Time)","2","72","0","1729629877408"
"1219","f","SpeechGestureMatch","../RequiredFiles/videos/JaDaumenrunter_m.mp4","Ist der Ball in der grünen Box?","Blue","Green","F","negation","mismatch","gesture","yes","ThumbDown","male","gesture-speech","1422","889","chrome","60.33","Mac OS","28","female","right","Tue Oct 22 2024 22:17:50 GMT+0200 (Central European Summer Time)","2","73","0","1729629877408"
"688","j","SpeechGestureMatch","../RequiredFiles/videos/NeinDaumenhoch_m_no_sound.mp4","Ist der Ball in der blauen Box?","Green","Blue","J","affirmation","na","gesture","na","ThumbUp","male","gesture-speech","1422","889","chrome","60.33","Mac OS","28","female","right","Tue Oct 22 2024 22:17:57 GMT+0200 (Central European Summer Time)","2","74","0","1729629877408"
"716","f","SpeechGestureMatch","../RequiredFiles/videos/JaDaumenhoch_f_no_sound.mp4","Ist der Ball in der grünen Box?","Green","Blue","F","affirmation","na","gesture","na","ThumbUp","female","gesture-speech","1422","889","chrome","60.33","Mac OS","28","female","right","Tue Oct 22 2024 22:18:03 GMT+0200 (Central European Summer Time)","2","75","0","1729629877408"
"1484","f","SpeechGestureMatch","../RequiredFiles/videos/NeinDaumenrunter_f.mp4","Ist der Ball in der blauen Box?","Green","Blue","F","negation","match","gesture","no","ThumbDown","female","gesture-speech","1422","889","chrome","60.33","Mac OS","28","female","right","Tue Oct 22 2024 22:18:10 GMT+0200 (Central European Summer Time)","2","76","0","1729629877408"
"1165","j","SpeechGestureMatch","../RequiredFiles/videos/NeinDaumenrunter_m.mp4","Ist der Ball in der blauen Box?","Blue","Green","J","negation","match","gesture","no","ThumbDown","male","gesture-speech","1422","889","chrome","60.33","Mac OS","28","female","right","Tue Oct 22 2024 22:18:16 GMT+0200 (Central European Summer Time)","2","77","0","1729629877408"
"654","f","SpeechGestureMatch","../RequiredFiles/videos/NeinDaumenrunter_m_no_sound.mp4","Ist der Ball in der grünen Box?","Blue","Green","F","negation","na","gesture","na","ThumbDown","male","gesture-speech","1422","889","chrome","60.33","Mac OS","28","female","right","Tue Oct 22 2024 22:18:23 GMT+0200 (Central European Summer Time)","2","78","0","1729629877408"
"1474","f","SpeechGestureMatch","../RequiredFiles/videos/JaDaumenrunter_m.mp4","Ist der Ball in der blauen Box?","Green","Blue","F","negation","mismatch","gesture","yes","ThumbDown","male","gesture-speech","1422","889","chrome","60.33","Mac OS","28","female","right","Tue Oct 22 2024 22:18:30 GMT+0200 (Central European Summer Time)","2","79","0","1729629877408"
"773","j","SpeechGestureMatch","../RequiredFiles/videos/JaDaumenhoch_f_no_sound.mp4","Ist der Ball in der blauen Box?","Green","Blue","J","affirmation","na","gesture","na","ThumbUp","female","gesture-speech","1422","889","chrome","60.33","Mac OS","28","female","right","Tue Oct 22 2024 22:18:36 GMT+0200 (Central European Summer Time)","2","80","0","1729629877408"
"760","j","SpeechGestureMatch","../RequiredFiles/videos/NeinDaumenrunter_f_no_sound.mp4","Ist der Ball in der blauen Box?","Blue","Green","J","negation","na","gesture","na","ThumbDown","female","gesture-speech","1422","889","chrome","60.33","Mac OS","28","female","right","Tue Oct 22 2024 22:18:42 GMT+0200 (Central European Summer Time)","2","81","0","1729629877408"
"1503","j","SpeechGestureMatch","../RequiredFiles/videos/NeinDaumenhoch_m.mp4","Ist der Ball in der blauen Box?","Green","Blue","J","affirmation","mismatch","gesture","no","ThumbUp","male","gesture-speech","1422","889","chrome","60.33","Mac OS","28","female","right","Tue Oct 22 2024 22:18:49 GMT+0200 (Central European Summer Time)","2","82","0","1729629877408"
"1288","f","SpeechGestureMatch","../RequiredFiles/videos/NeinDaumenrunter_m.mp4","Ist der Ball in der blauen Box?","Blue","Green","J","negation","match","gesture","no","ThumbDown","male","gesture-speech","1422","889","chrome","60.33","Mac OS","28","female","right","Tue Oct 22 2024 22:18:56 GMT+0200 (Central European Summer Time)","2","83","1","1729629877408"
"1148","j","SpeechGestureMatch","../RequiredFiles/videos/JaDaumenrunter_m.mp4","Ist der Ball in der grünen Box?","Green","Blue","J","negation","mismatch","gesture","yes","ThumbDown","male","gesture-speech","1422","889","chrome","60.33","Mac OS","28","female","right","Tue Oct 22 2024 22:19:03 GMT+0200 (Central European Summer Time)","2","84","0","1729629877408"
"1753","f","SpeechGestureMatch","../RequiredFiles/videos/NeinDaumenhoch_f.mp4","Ist der Ball in der grünen Box?","Green","Blue","F","affirmation","mismatch","gesture","no","ThumbUp","female","gesture-speech","1422","889","chrome","60.33","Mac OS","28","female","right","Tue Oct 22 2024 22:19:10 GMT+0200 (Central European Summer Time)","2","85","0","1729629877408"
"984","j","SpeechGestureMatch","../RequiredFiles/videos/NeinDaumenrunter_m_no_sound.mp4","Ist der Ball in der grünen Box?","Green","Blue","J","negation","na","gesture","na","ThumbDown","male","gesture-speech","1422","889","chrome","60.33","Mac OS","28","female","right","Tue Oct 22 2024 22:19:16 GMT+0200 (Central European Summer Time)","2","86","0","1729629877408"
"1553","f","SpeechGestureMatch","../RequiredFiles/videos/JaDaumenhoch_f.mp4","Ist der Ball in der blauen Box?","Blue","Green","F","affirmation","match","gesture","yes","ThumbUp","female","gesture-speech","1422","889","chrome","60.33","Mac OS","28","female","right","Tue Oct 22 2024 22:19:23 GMT+0200 (Central European Summer Time)","2","87","0","1729629877408"
"1097","j","SpeechGestureMatch","../RequiredFiles/videos/NeinDaumenhoch_m.mp4","Ist der Ball in der blauen Box?","Green","Blue","J","affirmation","mismatch","gesture","no","ThumbUp","male","gesture-speech","1422","889","chrome","60.33","Mac OS","28","female","right","Tue Oct 22 2024 22:19:30 GMT+0200 (Central European Summer Time)","2","88","0","1729629877408"
"944","j","SpeechGestureMatch","../RequiredFiles/videos/JaDaumenrunter_f_no_sound.mp4","Ist der Ball in der blauen Box?","Blue","Green","J","negation","na","gesture","na","ThumbDown","female","gesture-speech","1422","889","chrome","60.33","Mac OS","28","female","right","Tue Oct 22 2024 22:19:37 GMT+0200 (Central European Summer Time)","2","89","0","1729629877408"
"1593","f","SpeechGestureMatch","../RequiredFiles/videos/NeinDaumenhoch_m.mp4","Ist der Ball in der blauen Box?","Blue","Green","F","affirmation","mismatch","gesture","no","ThumbUp","male","gesture-speech","1422","889","chrome","60.33","Mac OS","28","female","right","Tue Oct 22 2024 22:19:44 GMT+0200 (Central European Summer Time)","2","90","0","1729629877408"
"1113","j","SpeechGestureMatch","../RequiredFiles/videos/JaDaumenhoch_m.mp4","Ist der Ball in der blauen Box?","Green","Blue","J","affirmation","match","gesture","yes","ThumbUp","male","gesture-speech","1422","889","chrome","60.33","Mac OS","28","female","right","Tue Oct 22 2024 22:19:50 GMT+0200 (Central European Summer Time)","2","91","0","1729629877408"
"947","j","SpeechGestureMatch","../RequiredFiles/videos/NeinDaumenhoch_f_no_sound.mp4","Ist der Ball in der grünen Box?","Green","Blue","F","affirmation","na","gesture","na","ThumbUp","female","gesture-speech","1422","889","chrome","60.33","Mac OS","28","female","right","Tue Oct 22 2024 22:19:57 GMT+0200 (Central European Summer Time)","2","92","1","1729629877408"
"1450","j","SpeechGestureMatch","../RequiredFiles/videos/JaDaumenhoch_m.mp4","Ist der Ball in der blauen Box?","Green","Blue","J","affirmation","match","gesture","yes","ThumbUp","male","gesture-speech","1422","889","chrome","60.33","Mac OS","28","female","right","Tue Oct 22 2024 22:20:04 GMT+0200 (Central European Summer Time)","2","93","0","1729629877408"
"958","f","SpeechGestureMatch","../RequiredFiles/videos/JaDaumenrunter_f_no_sound.mp4","Ist der Ball in der blauen Box?","Green","Blue","F","negation","na","gesture","na","ThumbDown","female","gesture-speech","1422","889","chrome","60.33","Mac OS","28","female","right","Tue Oct 22 2024 22:20:10 GMT+0200 (Central European Summer Time)","2","94","0","1729629877408"
"792","f","SpeechGestureMatch","../RequiredFiles/videos/NeinDaumenrunter_f_no_sound.mp4","Ist der Ball in der blauen Box?","Green","Blue","F","negation","na","gesture","na","ThumbDown","female","gesture-speech","1422","889","chrome","60.33","Mac OS","28","female","right","Tue Oct 22 2024 22:20:16 GMT+0200 (Central European Summer Time)","2","95","0","1729629877408"
"780","j","SpeechGestureMatch","../RequiredFiles/videos/NeinDaumenrunter_f_no_sound.mp4","Ist der Ball in der grünen Box?","Green","Blue","J","negation","na","gesture","na","ThumbDown","female","gesture-speech","1422","889","chrome","60.33","Mac OS","28","female","right","Tue Oct 22 2024 22:20:23 GMT+0200 (Central European Summer Time)","2","96","0","1729629877408"
"1176","f","SpeechGestureMatch","../RequiredFiles/videos/JaDaumenrunter_m.mp4","Ist der Ball in der blauen Box?","Blue","Green","F","affirmation","mismatch","speech","yes","ThumbDown","male","gesture-speech","1422","889","chrome","60.33","Mac OS","28","female","right","Tue Oct 22 2024 22:22:21 GMT+0200 (Central European Summer Time)","3","1","0","1729629877408"
"1349","j","SpeechGestureMatch","../RequiredFiles/videos/NeinDaumenrunter_f.mp4","Ist der Ball in der blauen Box?","Blue","Green","J","negation","match","speech","no","ThumbDown","female","gesture-speech","1422","889","chrome","60.33","Mac OS","28","female","right","Tue Oct 22 2024 22:22:27 GMT+0200 (Central European Summer Time)","3","2","0","1729629877408"
"1482","f","SpeechGestureMatch","../RequiredFiles/videos/NeinDaumenrunter_m_no_gesture.mp4","Ist der Ball in der grünen Box?","Blue","Green","F","negation","na","speech","no","na","male","gesture-speech","1422","889","chrome","60.33","Mac OS","28","female","right","Tue Oct 22 2024 22:22:34 GMT+0200 (Central European Summer Time)","3","3","0","1729629877408"
"1214","j","SpeechGestureMatch","../RequiredFiles/videos/NeinDaumenrunter_f_no_gesture.mp4","Ist der Ball in der blauen Box?","Blue","Green","J","negation","na","speech","no","na","female","gesture-speech","1422","889","chrome","60.33","Mac OS","28","female","right","Tue Oct 22 2024 22:22:41 GMT+0200 (Central European Summer Time)","3","4","0","1729629877408"
"1226","j","SpeechGestureMatch","../RequiredFiles/videos/NeinDaumenrunter_m.mp4","Ist der Ball in der grünen Box?","Green","Blue","J","negation","match","speech","no","ThumbDown","male","gesture-speech","1422","889","chrome","60.33","Mac OS","28","female","right","Tue Oct 22 2024 22:22:48 GMT+0200 (Central European Summer Time)","3","5","0","1729629877408"
"1286","j","SpeechGestureMatch","../RequiredFiles/videos/JaDaumenhoch_m_no_gesture.mp4","Ist der Ball in der grünen Box?","Blue","Green","J","affirmation","na","speech","yes","na","male","gesture-speech","1422","889","chrome","60.33","Mac OS","28","female","right","Tue Oct 22 2024 22:22:55 GMT+0200 (Central European Summer Time)","3","6","0","1729629877408"
"1282","f","SpeechGestureMatch","../RequiredFiles/videos/JaDaumenrunter_f.mp4","Ist der Ball in der blauen Box?","Blue","Green","F","affirmation","mismatch","speech","yes","ThumbDown","female","gesture-speech","1422","889","chrome","60.33","Mac OS","28","female","right","Tue Oct 22 2024 22:23:01 GMT+0200 (Central European Summer Time)","3","7","0","1729629877408"
"954","f","SpeechGestureMatch","../RequiredFiles/videos/NeinDaumenhoch_f.mp4","Ist der Ball in der blauen Box?","Green","Blue","F","negation","mismatch","speech","no","ThumbUp","female","gesture-speech","1422","889","chrome","60.33","Mac OS","28","female","right","Tue Oct 22 2024 22:23:08 GMT+0200 (Central European Summer Time)","3","8","0","1729629877408"
"1285","f","SpeechGestureMatch","../RequiredFiles/videos/NeinDaumenhoch_f_no_gesture.mp4","Ist der Ball in der grünen Box?","Blue","Green","F","negation","na","speech","no","na","female","gesture-speech","1422","889","chrome","60.33","Mac OS","28","female","right","Tue Oct 22 2024 22:23:15 GMT+0200 (Central European Summer Time)","3","9","0","1729629877408"
"1286","f","SpeechGestureMatch","../RequiredFiles/videos/NeinDaumenrunter_f.mp4","Ist der Ball in der blauen Box?","Green","Blue","F","negation","match","speech","no","ThumbDown","female","gesture-speech","1422","889","chrome","60.33","Mac OS","28","female","right","Tue Oct 22 2024 22:23:22 GMT+0200 (Central European Summer Time)","3","10","0","1729629877408"
"1177","j","SpeechGestureMatch","../RequiredFiles/videos/JaDaumenhoch_m.mp4","Ist der Ball in der blauen Box?","Green","Blue","J","affirmation","match","speech","yes","ThumbUp","male","gesture-speech","1422","889","chrome","60.33","Mac OS","28","female","right","Tue Oct 22 2024 22:23:28 GMT+0200 (Central European Summer Time)","3","11","0","1729629877408"
"1045","j","SpeechGestureMatch","../RequiredFiles/videos/NeinDaumenrunter_m.mp4","Ist der Ball in der blauen Box?","Blue","Green","J","negation","match","speech","no","ThumbDown","male","gesture-speech","1422","889","chrome","60.33","Mac OS","28","female","right","Tue Oct 22 2024 22:23:35 GMT+0200 (Central European Summer Time)","3","12","0","1729629877408"
"1141","j","SpeechGestureMatch","../RequiredFiles/videos/JaDaumenhoch_m_no_gesture.mp4","Ist der Ball in der blauen Box?","Green","Blue","J","affirmation","na","speech","yes","na","male","gesture-speech","1422","889","chrome","60.33","Mac OS","28","female","right","Tue Oct 22 2024 22:23:41 GMT+0200 (Central European Summer Time)","3","13","0","1729629877408"
"1253","j","SpeechGestureMatch","../RequiredFiles/videos/NeinDaumenhoch_f.mp4","Ist der Ball in der grünen Box?","Green","Blue","J","negation","mismatch","speech","no","ThumbUp","female","gesture-speech","1422","889","chrome","60.33","Mac OS","28","female","right","Tue Oct 22 2024 22:23:48 GMT+0200 (Central European Summer Time)","3","14","0","1729629877408"
"1194","j","SpeechGestureMatch","../RequiredFiles/videos/NeinDaumenrunter_f.mp4","Ist der Ball in der blauen Box?","Blue","Green","J","negation","match","speech","no","ThumbDown","female","gesture-speech","1422","889","chrome","60.33","Mac OS","28","female","right","Tue Oct 22 2024 22:23:55 GMT+0200 (Central European Summer Time)","3","15","0","1729629877408"
"1122","j","SpeechGestureMatch","../RequiredFiles/videos/JaDaumenhoch_m.mp4","Ist der Ball in der grünen Box?","Green","Blue","F","affirmation","match","speech","yes","ThumbUp","male","gesture-speech","1422","889","chrome","60.33","Mac OS","28","female","right","Tue Oct 22 2024 22:24:02 GMT+0200 (Central European Summer Time)","3","16","1","1729629877408"
"1428","f","SpeechGestureMatch","../RequiredFiles/videos/JaDaumenrunter_f.mp4","Ist der Ball in der grünen Box?","Green","Blue","F","affirmation","mismatch","speech","yes","ThumbDown","female","gesture-speech","1422","889","chrome","60.33","Mac OS","28","female","right","Tue Oct 22 2024 22:24:08 GMT+0200 (Central European Summer Time)","3","17","0","1729629877408"
"1325","f","SpeechGestureMatch","../RequiredFiles/videos/JaDaumenrunter_m.mp4","Ist der Ball in der blauen Box?","Blue","Green","F","affirmation","mismatch","speech","yes","ThumbDown","male","gesture-speech","1422","889","chrome","60.33","Mac OS","28","female","right","Tue Oct 22 2024 22:24:15 GMT+0200 (Central European Summer Time)","3","18","0","1729629877408"
"1442","j","SpeechGestureMatch","../RequiredFiles/videos/NeinDaumenhoch_f.mp4","Ist der Ball in der blauen Box?","Green","Blue","F","negation","mismatch","speech","no","ThumbUp","female","gesture-speech","1422","889","chrome","60.33","Mac OS","28","female","right","Tue Oct 22 2024 22:24:22 GMT+0200 (Central European Summer Time)","3","19","1","1729629877408"
"1295","f","SpeechGestureMatch","../RequiredFiles/videos/JaDaumenhoch_f.mp4","Ist der Ball in der grünen Box?","Green","Blue","F","affirmation","match","speech","yes","ThumbUp","female","gesture-speech","1422","889","chrome","60.33","Mac OS","28","female","right","Tue Oct 22 2024 22:24:29 GMT+0200 (Central European Summer Time)","3","20","0","1729629877408"
"1354","j","SpeechGestureMatch","../RequiredFiles/videos/NeinDaumenhoch_m_no_gesture.mp4","Ist der Ball in der grünen Box?","Green","Blue","J","negation","na","speech","no","na","male","gesture-speech","1422","889","chrome","60.33","Mac OS","28","female","right","Tue Oct 22 2024 22:24:36 GMT+0200 (Central European Summer Time)","3","21","0","1729629877408"
"1163","f","SpeechGestureMatch","../RequiredFiles/videos/JaDaumenhoch_m.mp4","Ist der Ball in der grünen Box?","Green","Blue","F","affirmation","match","speech","yes","ThumbUp","male","gesture-speech","1422","889","chrome","60.33","Mac OS","28","female","right","Tue Oct 22 2024 22:24:43 GMT+0200 (Central European Summer Time)","3","22","0","1729629877408"
"1191","f","SpeechGestureMatch","../RequiredFiles/videos/NeinDaumenrunter_f.mp4","Ist der Ball in der grünen Box?","Blue","Green","F","negation","match","speech","no","ThumbDown","female","gesture-speech","1422","889","chrome","60.33","Mac OS","28","female","right","Tue Oct 22 2024 22:24:49 GMT+0200 (Central European Summer Time)","3","23","0","1729629877408"
"1277","j","SpeechGestureMatch","../RequiredFiles/videos/JaDaumenrunter_f_no_gesture.mp4","Ist der Ball in der grünen Box?","Blue","Green","J","affirmation","na","speech","yes","na","female","gesture-speech","1422","889","chrome","60.33","Mac OS","28","female","right","Tue Oct 22 2024 22:24:56 GMT+0200 (Central European Summer Time)","3","24","0","1729629877408"
"1251","j","SpeechGestureMatch","../RequiredFiles/videos/JaDaumenrunter_m_no_gesture.mp4","Ist der Ball in der grünen Box?","Blue","Green","J","affirmation","na","speech","yes","na","male","gesture-speech","1422","889","chrome","60.33","Mac OS","28","female","right","Tue Oct 22 2024 22:25:03 GMT+0200 (Central European Summer Time)","3","25","0","1729629877408"
"1147","f","SpeechGestureMatch","../RequiredFiles/videos/JaDaumenhoch_m.mp4","Ist der Ball in der blauen Box?","Blue","Green","F","affirmation","match","speech","yes","ThumbUp","male","gesture-speech","1422","889","chrome","60.33","Mac OS","28","female","right","Tue Oct 22 2024 22:25:10 GMT+0200 (Central European Summer Time)","3","26","0","1729629877408"
"1049","j","SpeechGestureMatch","../RequiredFiles/videos/JaDaumenhoch_m.mp4","Ist der Ball in der blauen Box?","Green","Blue","J","affirmation","match","speech","yes","ThumbUp","male","gesture-speech","1422","889","chrome","60.33","Mac OS","28","female","right","Tue Oct 22 2024 22:25:16 GMT+0200 (Central European Summer Time)","3","27","0","1729629877408"
"1171","j","SpeechGestureMatch","../RequiredFiles/videos/JaDaumenrunter_m.mp4","Ist der Ball in der grünen Box?","Blue","Green","J","affirmation","mismatch","speech","yes","ThumbDown","male","gesture-speech","1422","889","chrome","60.33","Mac OS","28","female","right","Tue Oct 22 2024 22:25:23 GMT+0200 (Central European Summer Time)","3","28","0","1729629877408"
"1251","j","SpeechGestureMatch","../RequiredFiles/videos/NeinDaumenhoch_m_no_gesture.mp4","Ist der Ball in der blauen Box?","Blue","Green","J","negation","na","speech","no","na","male","gesture-speech","1422","889","chrome","60.33","Mac OS","28","female","right","Tue Oct 22 2024 22:25:30 GMT+0200 (Central European Summer Time)","3","29","0","1729629877408"
"1182","j","SpeechGestureMatch","../RequiredFiles/videos/JaDaumenrunter_m_no_gesture.mp4","Ist der Ball in der blauen Box?","Green","Blue","J","affirmation","na","speech","yes","na","male","gesture-speech","1422","889","chrome","60.33","Mac OS","28","female","right","Tue Oct 22 2024 22:25:36 GMT+0200 (Central European Summer Time)","3","30","0","1729629877408"
"1148","f","SpeechGestureMatch","../RequiredFiles/videos/NeinDaumenrunter_m.mp4","Ist der Ball in der blauen Box?","Green","Blue","F","negation","match","speech","no","ThumbDown","male","gesture-speech","1422","889","chrome","60.33","Mac OS","28","female","right","Tue Oct 22 2024 22:25:43 GMT+0200 (Central European Summer Time)","3","31","0","1729629877408"
"1183","j","SpeechGestureMatch","../RequiredFiles/videos/JaDaumenhoch_f.mp4","Ist der Ball in der blauen Box?","Green","Blue","J","affirmation","match","speech","yes","ThumbUp","female","gesture-speech","1422","889","chrome","60.33","Mac OS","28","female","right","Tue Oct 22 2024 22:25:50 GMT+0200 (Central European Summer Time)","3","32","0","1729629877408"
"1201","f","SpeechGestureMatch","../RequiredFiles/videos/JaDaumenrunter_m.mp4","Ist der Ball in der grünen Box?","Green","Blue","F","affirmation","mismatch","speech","yes","ThumbDown","male","gesture-speech","1422","889","chrome","60.33","Mac OS","28","female","right","Tue Oct 22 2024 22:25:56 GMT+0200 (Central European Summer Time)","3","33","0","1729629877408"
"1210","j","SpeechGestureMatch","../RequiredFiles/videos/JaDaumenrunter_f.mp4","Ist der Ball in der grünen Box?","Blue","Green","J","affirmation","mismatch","speech","yes","ThumbDown","female","gesture-speech","1422","889","chrome","60.33","Mac OS","28","female","right","Tue Oct 22 2024 22:26:03 GMT+0200 (Central European Summer Time)","3","34","0","1729629877408"
"1072","f","SpeechGestureMatch","../RequiredFiles/videos/JaDaumenrunter_m.mp4","Ist der Ball in der grünen Box?","Green","Blue","F","affirmation","mismatch","speech","yes","ThumbDown","male","gesture-speech","1422","889","chrome","60.33","Mac OS","28","female","right","Tue Oct 22 2024 22:26:10 GMT+0200 (Central European Summer Time)","3","35","0","1729629877408"
"973","f","SpeechGestureMatch","../RequiredFiles/videos/NeinDaumenhoch_m.mp4","Ist der Ball in der blauen Box?","Green","Blue","F","negation","mismatch","speech","no","ThumbUp","male","gesture-speech","1422","889","chrome","60.33","Mac OS","28","female","right","Tue Oct 22 2024 22:26:16 GMT+0200 (Central European Summer Time)","3","36","0","1729629877408"
"1217","f","SpeechGestureMatch","../RequiredFiles/videos/NeinDaumenrunter_m.mp4","Ist der Ball in der grünen Box?","Blue","Green","F","negation","match","speech","no","ThumbDown","male","gesture-speech","1422","889","chrome","60.33","Mac OS","28","female","right","Tue Oct 22 2024 22:26:23 GMT+0200 (Central European Summer Time)","3","37","0","1729629877408"
"859","f","SpeechGestureMatch","../RequiredFiles/videos/JaDaumenhoch_m.mp4","Ist der Ball in der blauen Box?","Blue","Green","F","affirmation","match","speech","yes","ThumbUp","male","gesture-speech","1422","889","chrome","60.33","Mac OS","28","female","right","Tue Oct 22 2024 22:26:29 GMT+0200 (Central European Summer Time)","3","38","0","1729629877408"
"1313","f","SpeechGestureMatch","../RequiredFiles/videos/JaDaumenrunter_f.mp4","Ist der Ball in der blauen Box?","Blue","Green","F","affirmation","mismatch","speech","yes","ThumbDown","female","gesture-speech","1422","889","chrome","60.33","Mac OS","28","female","right","Tue Oct 22 2024 22:26:36 GMT+0200 (Central European Summer Time)","3","39","0","1729629877408"
"1188","j","SpeechGestureMatch","../RequiredFiles/videos/JaDaumenhoch_f.mp4","Ist der Ball in der blauen Box?","Green","Blue","J","affirmation","match","speech","yes","ThumbUp","female","gesture-speech","1422","889","chrome","60.33","Mac OS","28","female","right","Tue Oct 22 2024 22:26:43 GMT+0200 (Central European Summer Time)","3","40","0","1729629877408"
"1317","f","SpeechGestureMatch","../RequiredFiles/videos/NeinDaumenhoch_f.mp4","Ist der Ball in der blauen Box?","Blue","Green","J","negation","mismatch","speech","no","ThumbUp","female","gesture-speech","1422","889","chrome","60.33","Mac OS","28","female","right","Tue Oct 22 2024 22:26:50 GMT+0200 (Central European Summer Time)","3","41","1","1729629877408"
"1233","f","SpeechGestureMatch","../RequiredFiles/videos/NeinDaumenrunter_m_no_gesture.mp4","Ist der Ball in der blauen Box?","Green","Blue","F","negation","na","speech","no","na","male","gesture-speech","1422","889","chrome","60.33","Mac OS","28","female","right","Tue Oct 22 2024 22:26:56 GMT+0200 (Central European Summer Time)","3","42","0","1729629877408"
"1316","f","SpeechGestureMatch","../RequiredFiles/videos/NeinDaumenrunter_f.mp4","Ist der Ball in der grünen Box?","Blue","Green","F","negation","match","speech","no","ThumbDown","female","gesture-speech","1422","889","chrome","60.33","Mac OS","28","female","right","Tue Oct 22 2024 22:27:03 GMT+0200 (Central European Summer Time)","3","43","0","1729629877408"
"1234","j","SpeechGestureMatch","../RequiredFiles/videos/JaDaumenhoch_f.mp4","Ist der Ball in der grünen Box?","Blue","Green","J","affirmation","match","speech","yes","ThumbUp","female","gesture-speech","1422","889","chrome","60.33","Mac OS","28","female","right","Tue Oct 22 2024 22:27:10 GMT+0200 (Central European Summer Time)","3","44","0","1729629877408"
"1027","j","SpeechGestureMatch","../RequiredFiles/videos/JaDaumenrunter_f.mp4","Ist der Ball in der blauen Box?","Green","Blue","J","affirmation","mismatch","speech","yes","ThumbDown","female","gesture-speech","1422","889","chrome","60.33","Mac OS","28","female","right","Tue Oct 22 2024 22:27:16 GMT+0200 (Central European Summer Time)","3","45","0","1729629877408"
"2071","j","SpeechGestureMatch","../RequiredFiles/videos/NeinDaumenhoch_f.mp4","Ist der Ball in der grünen Box?","Green","Blue","J","negation","mismatch","speech","no","ThumbUp","female","gesture-speech","1422","889","chrome","60.33","Mac OS","28","female","right","Tue Oct 22 2024 22:27:24 GMT+0200 (Central European Summer Time)","3","46","0","1729629877408"
"1586","j","SpeechGestureMatch","../RequiredFiles/videos/NeinDaumenrunter_f_no_gesture.mp4","Ist der Ball in der grünen Box?","Green","Blue","J","negation","na","speech","no","na","female","gesture-speech","1422","889","chrome","60.33","Mac OS","28","female","right","Tue Oct 22 2024 22:27:31 GMT+0200 (Central European Summer Time)","3","47","0","1729629877408"
"1220","j","SpeechGestureMatch","../RequiredFiles/videos/NeinDaumenrunter_m.mp4","Ist der Ball in der blauen Box?","Blue","Green","J","negation","match","speech","no","ThumbDown","male","gesture-speech","1422","889","chrome","60.33","Mac OS","28","female","right","Tue Oct 22 2024 22:27:38 GMT+0200 (Central European Summer Time)","3","48","0","1729629877408"
"1258","j","SpeechGestureMatch","../RequiredFiles/videos/NeinDaumenhoch_m.mp4","Ist der Ball in der grünen Box?","Blue","Green","F","negation","mismatch","speech","no","ThumbUp","male","gesture-speech","1422","889","chrome","60.33","Mac OS","28","female","right","Tue Oct 22 2024 22:27:45 GMT+0200 (Central European Summer Time)","3","49","1","1729629877408"
"1058","j","SpeechGestureMatch","../RequiredFiles/videos/NeinDaumenhoch_m.mp4","Ist der Ball in der grünen Box?","Green","Blue","J","negation","mismatch","speech","no","ThumbUp","male","gesture-speech","1422","889","chrome","60.33","Mac OS","28","female","right","Tue Oct 22 2024 22:27:51 GMT+0200 (Central European Summer Time)","3","50","0","1729629877408"
"1212","f","SpeechGestureMatch","../RequiredFiles/videos/NeinDaumenrunter_m.mp4","Ist der Ball in der grünen Box?","Blue","Green","F","negation","match","speech","no","ThumbDown","male","gesture-speech","1422","889","chrome","60.33","Mac OS","28","female","right","Tue Oct 22 2024 22:27:58 GMT+0200 (Central European Summer Time)","3","51","0","1729629877408"
"1140","f","SpeechGestureMatch","../RequiredFiles/videos/NeinDaumenrunter_f.mp4","Ist der Ball in der blauen Box?","Green","Blue","F","negation","match","speech","no","ThumbDown","female","gesture-speech","1422","889","chrome","60.33","Mac OS","28","female","right","Tue Oct 22 2024 22:28:05 GMT+0200 (Central European Summer Time)","3","52","0","1729629877408"
"892","j","SpeechGestureMatch","../RequiredFiles/videos/JaDaumenrunter_m.mp4","Ist der Ball in der blauen Box?","Green","Blue","J","affirmation","mismatch","speech","yes","ThumbDown","male","gesture-speech","1422","889","chrome","60.33","Mac OS","28","female","right","Tue Oct 22 2024 22:28:11 GMT+0200 (Central European Summer Time)","3","53","0","1729629877408"
"913","j","SpeechGestureMatch","../RequiredFiles/videos/JaDaumenhoch_m.mp4","Ist der Ball in der grünen Box?","Blue","Green","J","affirmation","match","speech","yes","ThumbUp","male","gesture-speech","1422","889","chrome","60.33","Mac OS","28","female","right","Tue Oct 22 2024 22:28:17 GMT+0200 (Central European Summer Time)","3","54","0","1729629877408"
"1257","j","SpeechGestureMatch","../RequiredFiles/videos/NeinDaumenrunter_m.mp4","Ist der Ball in der grünen Box?","Green","Blue","J","negation","match","speech","no","ThumbDown","male","gesture-speech","1422","889","chrome","60.33","Mac OS","28","female","right","Tue Oct 22 2024 22:28:24 GMT+0200 (Central European Summer Time)","3","55","0","1729629877408"
"1388","f","SpeechGestureMatch","../RequiredFiles/videos/JaDaumenrunter_f_no_gesture.mp4","Ist der Ball in der grünen Box?","Green","Blue","F","affirmation","na","speech","yes","na","female","gesture-speech","1422","889","chrome","60.33","Mac OS","28","female","right","Tue Oct 22 2024 22:28:31 GMT+0200 (Central European Summer Time)","3","56","0","1729629877408"
"1178","f","SpeechGestureMatch","../RequiredFiles/videos/NeinDaumenrunter_m.mp4","Ist der Ball in der blauen Box?","Green","Blue","F","negation","match","speech","no","ThumbDown","male","gesture-speech","1422","889","chrome","60.33","Mac OS","28","female","right","Tue Oct 22 2024 22:28:38 GMT+0200 (Central European Summer Time)","3","57","0","1729629877408"
"1149","j","SpeechGestureMatch","../RequiredFiles/videos/NeinDaumenhoch_f_no_gesture.mp4","Ist der Ball in der blauen Box?","Blue","Green","J","negation","na","speech","no","na","female","gesture-speech","1422","889","chrome","60.33","Mac OS","28","female","right","Tue Oct 22 2024 22:28:44 GMT+0200 (Central European Summer Time)","3","58","0","1729629877408"
"1264","j","SpeechGestureMatch","../RequiredFiles/videos/JaDaumenhoch_f.mp4","Ist der Ball in der grünen Box?","Blue","Green","J","affirmation","match","speech","yes","ThumbUp","female","gesture-speech","1422","889","chrome","60.33","Mac OS","28","female","right","Tue Oct 22 2024 22:28:51 GMT+0200 (Central European Summer Time)","3","59","0","1729629877408"
"1339","f","SpeechGestureMatch","../RequiredFiles/videos/NeinDaumenhoch_f.mp4","Ist der Ball in der grünen Box?","Blue","Green","F","negation","mismatch","speech","no","ThumbUp","female","gesture-speech","1422","889","chrome","60.33","Mac OS","28","female","right","Tue Oct 22 2024 22:28:58 GMT+0200 (Central European Summer Time)","3","60","0","1729629877408"
"1356","f","SpeechGestureMatch","../RequiredFiles/videos/NeinDaumenrunter_f_no_gesture.mp4","Ist der Ball in der grünen Box?","Blue","Green","F","negation","na","speech","no","na","female","gesture-speech","1422","889","chrome","60.33","Mac OS","28","female","right","Tue Oct 22 2024 22:29:05 GMT+0200 (Central European Summer Time)","3","61","0","1729629877408"
"1222","j","SpeechGestureMatch","../RequiredFiles/videos/NeinDaumenhoch_f.mp4","Ist der Ball in der blauen Box?","Blue","Green","J","negation","mismatch","speech","no","ThumbUp","female","gesture-speech","1422","889","chrome","60.33","Mac OS","28","female","right","Tue Oct 22 2024 22:29:12 GMT+0200 (Central European Summer Time)","3","62","0","1729629877408"
"1070","j","SpeechGestureMatch","../RequiredFiles/videos/JaDaumenrunter_m.mp4","Ist der Ball in der blauen Box?","Green","Blue","J","affirmation","mismatch","speech","yes","ThumbDown","male","gesture-speech","1422","889","chrome","60.33","Mac OS","28","female","right","Tue Oct 22 2024 22:29:18 GMT+0200 (Central European Summer Time)","3","63","0","1729629877408"
"1365","j","SpeechGestureMatch","../RequiredFiles/videos/NeinDaumenrunter_f.mp4","Ist der Ball in der grünen Box?","Green","Blue","J","negation","match","speech","no","ThumbDown","female","gesture-speech","1422","889","chrome","60.33","Mac OS","28","female","right","Tue Oct 22 2024 22:29:25 GMT+0200 (Central European Summer Time)","3","64","0","1729629877408"
"1191","f","SpeechGestureMatch","../RequiredFiles/videos/JaDaumenhoch_f.mp4","Ist der Ball in der grünen Box?","Green","Blue","F","affirmation","match","speech","yes","ThumbUp","female","gesture-speech","1422","889","chrome","60.33","Mac OS","28","female","right","Tue Oct 22 2024 22:29:32 GMT+0200 (Central European Summer Time)","3","65","0","1729629877408"
"1347","f","SpeechGestureMatch","../RequiredFiles/videos/NeinDaumenhoch_m_no_gesture.mp4","Ist der Ball in der grünen Box?","Blue","Green","F","negation","na","speech","no","na","male","gesture-speech","1422","889","chrome","60.33","Mac OS","28","female","right","Tue Oct 22 2024 22:29:39 GMT+0200 (Central European Summer Time)","3","66","0","1729629877408"
"1228","f","SpeechGestureMatch","../RequiredFiles/videos/JaDaumenrunter_f.mp4","Ist der Ball in der grünen Box?","Green","Blue","F","affirmation","mismatch","speech","yes","ThumbDown","female","gesture-speech","1422","889","chrome","60.33","Mac OS","28","female","right","Tue Oct 22 2024 22:29:45 GMT+0200 (Central European Summer Time)","3","67","0","1729629877408"
"1179","j","SpeechGestureMatch","../RequiredFiles/videos/JaDaumenrunter_f.mp4","Ist der Ball in der blauen Box?","Green","Blue","J","affirmation","mismatch","speech","yes","ThumbDown","female","gesture-speech","1422","889","chrome","60.33","Mac OS","28","female","right","Tue Oct 22 2024 22:29:52 GMT+0200 (Central European Summer Time)","3","68","0","1729629877408"
"1362","f","SpeechGestureMatch","../RequiredFiles/videos/JaDaumenhoch_m_no_gesture.mp4","Ist der Ball in der grünen Box?","Green","Blue","F","affirmation","na","speech","yes","na","male","gesture-speech","1422","889","chrome","60.33","Mac OS","28","female","right","Tue Oct 22 2024 22:29:59 GMT+0200 (Central European Summer Time)","3","69","0","1729629877408"
"1182","j","SpeechGestureMatch","../RequiredFiles/videos/JaDaumenrunter_f_no_gesture.mp4","Ist der Ball in der blauen Box?","Green","Blue","J","affirmation","na","speech","yes","na","female","gesture-speech","1422","889","chrome","60.33","Mac OS","28","female","right","Tue Oct 22 2024 22:30:06 GMT+0200 (Central European Summer Time)","3","70","0","1729629877408"
"1448","j","SpeechGestureMatch","../RequiredFiles/videos/NeinDaumenrunter_f.mp4","Ist der Ball in der grünen Box?","Green","Blue","J","negation","match","speech","no","ThumbDown","female","gesture-speech","1422","889","chrome","60.33","Mac OS","28","female","right","Tue Oct 22 2024 22:30:13 GMT+0200 (Central European Summer Time)","3","71","0","1729629877408"
"938","f","SpeechGestureMatch","../RequiredFiles/videos/JaDaumenhoch_f.mp4","Ist der Ball in der blauen Box?","Blue","Green","F","affirmation","match","speech","yes","ThumbUp","female","gesture-speech","1422","889","chrome","60.33","Mac OS","28","female","right","Tue Oct 22 2024 22:30:19 GMT+0200 (Central European Summer Time)","3","72","0","1729629877408"
"963","f","SpeechGestureMatch","../RequiredFiles/videos/JaDaumenrunter_f_no_gesture.mp4","Ist der Ball in der blauen Box?","Blue","Green","F","affirmation","na","speech","yes","na","female","gesture-speech","1422","889","chrome","60.33","Mac OS","28","female","right","Tue Oct 22 2024 22:30:26 GMT+0200 (Central European Summer Time)","3","73","0","1729629877408"
"1135","f","SpeechGestureMatch","../RequiredFiles/videos/JaDaumenhoch_f.mp4","Ist der Ball in der blauen Box?","Blue","Green","F","affirmation","match","speech","yes","ThumbUp","female","gesture-speech","1422","889","chrome","60.33","Mac OS","28","female","right","Tue Oct 22 2024 22:30:32 GMT+0200 (Central European Summer Time)","3","74","0","1729629877408"
"1176","j","SpeechGestureMatch","../RequiredFiles/videos/NeinDaumenhoch_m.mp4","Ist der Ball in der blauen Box?","Blue","Green","J","negation","mismatch","speech","no","ThumbUp","male","gesture-speech","1422","889","chrome","60.33","Mac OS","28","female","right","Tue Oct 22 2024 22:30:39 GMT+0200 (Central European Summer Time)","3","75","0","1729629877408"
"1113","j","SpeechGestureMatch","../RequiredFiles/videos/JaDaumenhoch_m.mp4","Ist der Ball in der grünen Box?","Blue","Green","J","affirmation","match","speech","yes","ThumbUp","male","gesture-speech","1422","889","chrome","60.33","Mac OS","28","female","right","Tue Oct 22 2024 22:30:46 GMT+0200 (Central European Summer Time)","3","76","0","1729629877408"
"1169","f","SpeechGestureMatch","../RequiredFiles/videos/JaDaumenhoch_f_no_gesture.mp4","Ist der Ball in der blauen Box?","Blue","Green","F","affirmation","na","speech","yes","na","female","gesture-speech","1422","889","chrome","60.33","Mac OS","28","female","right","Tue Oct 22 2024 22:30:52 GMT+0200 (Central European Summer Time)","3","77","0","1729629877408"
"1211","f","SpeechGestureMatch","../RequiredFiles/videos/NeinDaumenhoch_f.mp4","Ist der Ball in der grünen Box?","Blue","Green","F","negation","mismatch","speech","no","ThumbUp","female","gesture-speech","1422","889","chrome","60.33","Mac OS","28","female","right","Tue Oct 22 2024 22:30:59 GMT+0200 (Central European Summer Time)","3","78","0","1729629877408"
"1243","f","SpeechGestureMatch","../RequiredFiles/videos/JaDaumenhoch_m_no_gesture.mp4","Ist der Ball in der blauen Box?","Blue","Green","F","affirmation","na","speech","yes","na","male","gesture-speech","1422","889","chrome","60.33","Mac OS","28","female","right","Tue Oct 22 2024 22:31:06 GMT+0200 (Central European Summer Time)","3","79","0","1729629877408"
"1380","f","SpeechGestureMatch","../RequiredFiles/videos/NeinDaumenhoch_m.mp4","Ist der Ball in der blauen Box?","Green","Blue","F","negation","mismatch","speech","no","ThumbUp","male","gesture-speech","1422","889","chrome","60.33","Mac OS","28","female","right","Tue Oct 22 2024 22:31:13 GMT+0200 (Central European Summer Time)","3","80","0","1729629877408"
"1292","f","SpeechGestureMatch","../RequiredFiles/videos/NeinDaumenrunter_f_no_gesture.mp4","Ist der Ball in der blauen Box?","Green","Blue","F","negation","na","speech","no","na","female","gesture-speech","1422","889","chrome","60.33","Mac OS","28","female","right","Tue Oct 22 2024 22:31:19 GMT+0200 (Central European Summer Time)","3","81","0","1729629877408"
"1175","j","SpeechGestureMatch","../RequiredFiles/videos/NeinDaumenhoch_f_no_gesture.mp4","Ist der Ball in der grünen Box?","Green","Blue","J","negation","na","speech","no","na","female","gesture-speech","1422","889","chrome","60.33","Mac OS","28","female","right","Tue Oct 22 2024 22:31:26 GMT+0200 (Central European Summer Time)","3","82","0","1729629877408"
