"rt","response","stim","video","question","box_colour_left","box_colour_right","correct_key","polarity","matching","modality","verbal","gesture","speaker","order","width","height","browser","vsync_rate","os","age","gender","handedness","date","blockNum","trialNum","error","vpNum"
"1298","j","SpeechGestureMatch","../RequiredFiles/videos/NeinDaumenhoch_f_no_sound.mp4","Ist der Ball in der blauen Box?","Green","Blue","J","affirmation","na","gesture","na","ThumbUp","female","gesture-speech","1536","864","chrome","60.51","Windows 10","24","female","right","Sat Oct 12 2024 10:11:43 GMT+0200 (Mitteleuropäische Sommerzeit)","1","1","0","1728768019799"
"1326","f","SpeechGestureMatch","../RequiredFiles/videos/JaDaumenhoch_f_no_sound.mp4","Ist der Ball in der grünen Box?","Green","Blue","F","affirmation","na","gesture","na","ThumbUp","female","gesture-speech","1536","864","chrome","60.51","Windows 10","24","female","right","Sat Oct 12 2024 10:11:50 GMT+0200 (Mitteleuropäische Sommerzeit)","1","2","0","1728768019799"
"2619","f","SpeechGestureMatch","../RequiredFiles/videos/NeinDaumenhoch_f.mp4","Ist der Ball in der grünen Box?","Green","Blue","F","affirmation","mismatch","gesture","no","ThumbUp","female","gesture-speech","1536","864","chrome","60.51","Windows 10","24","female","right","Sat Oct 12 2024 10:11:58 GMT+0200 (Mitteleuropäische Sommerzeit)","1","3","0","1728768019799"
"1307","f","SpeechGestureMatch","../RequiredFiles/videos/JaDaumenrunter_m.mp4","Ist der Ball in der blauen Box?","Blue","Green","J","negation","mismatch","gesture","yes","ThumbDown","male","gesture-speech","1536","864","chrome","60.51","Windows 10","24","female","right","Sat Oct 12 2024 10:12:05 GMT+0200 (Mitteleuropäische Sommerzeit)","1","4","1","1728768019799"
"1866","f","SpeechGestureMatch","../RequiredFiles/videos/JaDaumenhoch_m.mp4","Ist der Ball in der grünen Box?","Green","Blue","F","affirmation","match","gesture","yes","ThumbUp","male","gesture-speech","1536","864","chrome","60.51","Windows 10","24","female","right","Sat Oct 12 2024 10:12:13 GMT+0200 (Mitteleuropäische Sommerzeit)","1","5","0","1728768019799"
"1255","j","SpeechGestureMatch","../RequiredFiles/videos/NeinDaumenhoch_f.mp4","Ist der Ball in der blauen Box?","Blue","Green","F","affirmation","mismatch","gesture","no","ThumbUp","female","gesture-speech","1536","864","chrome","60.51","Windows 10","24","female","right","Sat Oct 12 2024 10:12:20 GMT+0200 (Mitteleuropäische Sommerzeit)","1","6","1","1728768019799"
"1121","f","SpeechGestureMatch","../RequiredFiles/videos/JaDaumenhoch_f_no_sound.mp4","Ist der Ball in der grünen Box?","Blue","Green","J","affirmation","na","gesture","na","ThumbUp","female","gesture-speech","1536","864","chrome","60.51","Windows 10","24","female","right","Sat Oct 12 2024 10:12:26 GMT+0200 (Mitteleuropäische Sommerzeit)","1","7","1","1728768019799"
"3138","f","SpeechGestureMatch","../RequiredFiles/videos/JaDaumenrunter_f.mp4","Ist der Ball in der grünen Box?","Green","Blue","J","negation","mismatch","gesture","yes","ThumbDown","female","gesture-speech","1536","864","chrome","60.51","Windows 10","24","female","right","Sat Oct 12 2024 10:12:35 GMT+0200 (Mitteleuropäische Sommerzeit)","1","8","1","1728768019799"
"1284","j","SpeechGestureMatch","../RequiredFiles/videos/JaDaumenhoch_m.mp4","Ist der Ball in der blauen Box?","Green","Blue","J","affirmation","match","gesture","yes","ThumbUp","male","gesture-speech","1536","864","chrome","60.51","Windows 10","24","female","right","Sat Oct 12 2024 10:12:42 GMT+0200 (Mitteleuropäische Sommerzeit)","1","9","0","1728768019799"
"1417","f","SpeechGestureMatch","../RequiredFiles/videos/JaDaumenhoch_f.mp4","Ist der Ball in der grünen Box?","Green","Blue","F","affirmation","match","gesture","yes","ThumbUp","female","gesture-speech","1536","864","chrome","60.51","Windows 10","24","female","right","Sat Oct 12 2024 10:12:49 GMT+0200 (Mitteleuropäische Sommerzeit)","1","10","0","1728768019799"
"1497","j","SpeechGestureMatch","../RequiredFiles/videos/JaDaumenhoch_m_no_sound.mp4","Ist der Ball in der blauen Box?","Green","Blue","J","affirmation","na","gesture","na","ThumbUp","male","gesture-speech","1536","864","chrome","60.51","Windows 10","24","female","right","Sat Oct 12 2024 10:12:56 GMT+0200 (Mitteleuropäische Sommerzeit)","1","11","0","1728768019799"
"1154","j","SpeechGestureMatch","../RequiredFiles/videos/JaDaumenhoch_m.mp4","Ist der Ball in der blauen Box?","Blue","Green","F","affirmation","match","gesture","yes","ThumbUp","male","gesture-speech","1536","864","chrome","60.51","Windows 10","24","female","right","Sat Oct 12 2024 10:13:02 GMT+0200 (Mitteleuropäische Sommerzeit)","1","12","1","1728768019799"
"3572","j","SpeechGestureMatch","../RequiredFiles/videos/NeinDaumenhoch_m.mp4","Ist der Ball in der grünen Box?","Green","Blue","F","affirmation","mismatch","gesture","no","ThumbUp","male","gesture-speech","1536","864","chrome","60.51","Windows 10","24","female","right","Sat Oct 12 2024 10:13:12 GMT+0200 (Mitteleuropäische Sommerzeit)","1","13","1","1728768019799"
"1747","j","SpeechGestureMatch","../RequiredFiles/videos/JaDaumenhoch_f.mp4","Ist der Ball in der blauen Box?","Green","Blue","J","affirmation","match","gesture","yes","ThumbUp","female","gesture-speech","1536","864","chrome","60.51","Windows 10","24","female","right","Sat Oct 12 2024 10:13:19 GMT+0200 (Mitteleuropäische Sommerzeit)","1","14","0","1728768019799"
"1089","f","SpeechGestureMatch","../RequiredFiles/videos/JaDaumenhoch_f.mp4","Ist der Ball in der grünen Box?","Blue","Green","J","affirmation","match","gesture","yes","ThumbUp","female","gesture-speech","1536","864","chrome","60.51","Windows 10","24","female","right","Sat Oct 12 2024 10:13:25 GMT+0200 (Mitteleuropäische Sommerzeit)","1","15","1","1728768019799"
"1759","j","SpeechGestureMatch","../RequiredFiles/videos/JaDaumenrunter_f.mp4","Ist der Ball in der grünen Box?","Green","Blue","J","negation","mismatch","gesture","yes","ThumbDown","female","gesture-speech","1536","864","chrome","60.51","Windows 10","24","female","right","Sat Oct 12 2024 10:13:33 GMT+0200 (Mitteleuropäische Sommerzeit)","1","16","0","1728768019799"
"1721","j","SpeechGestureMatch","../RequiredFiles/videos/JaDaumenhoch_f.mp4","Ist der Ball in der blauen Box?","Blue","Green","F","affirmation","match","gesture","yes","ThumbUp","female","gesture-speech","1536","864","chrome","60.51","Windows 10","24","female","right","Sat Oct 12 2024 10:13:40 GMT+0200 (Mitteleuropäische Sommerzeit)","1","17","1","1728768019799"
"4700","f","SpeechGestureMatch","../RequiredFiles/videos/JaDaumenrunter_m_no_sound.mp4","Ist der Ball in der grünen Box?","Green","Blue","J","negation","na","gesture","na","ThumbDown","male","gesture-speech","1536","864","chrome","60.51","Windows 10","24","female","right","Sat Oct 12 2024 10:13:50 GMT+0200 (Mitteleuropäische Sommerzeit)","1","18","1","1728768019799"
"2561","f","SpeechGestureMatch","../RequiredFiles/videos/NeinDaumenhoch_f_no_sound.mp4","Ist der Ball in der grünen Box?","Blue","Green","J","affirmation","na","gesture","na","ThumbUp","female","gesture-speech","1536","864","chrome","60.51","Windows 10","24","female","right","Sat Oct 12 2024 10:13:58 GMT+0200 (Mitteleuropäische Sommerzeit)","1","19","1","1728768019799"
"2714","f","SpeechGestureMatch","../RequiredFiles/videos/JaDaumenrunter_f.mp4","Ist der Ball in der blauen Box?","Green","Blue","F","negation","mismatch","gesture","yes","ThumbDown","female","gesture-speech","1536","864","chrome","60.51","Windows 10","24","female","right","Sat Oct 12 2024 10:14:07 GMT+0200 (Mitteleuropäische Sommerzeit)","1","20","0","1728768019799"
"44350734","j","SpeechGestureMatch","../RequiredFiles/videos/JaDaumenhoch_m_no_sound.mp4","Ist der Ball in der grünen Box?","Green","Blue","F","affirmation","na","gesture","na","ThumbUp","male","gesture-speech","1536","864","chrome","60.51","Windows 10","24","female","right","Sat Oct 12 2024 22:33:20 GMT+0200 (Mitteleuropäische Sommerzeit)","1","21","1","1728768019799"
"4151","j","SpeechGestureMatch","../RequiredFiles/videos/NeinDaumenrunter_f.mp4","Ist der Ball in der grünen Box?","Green","Blue","J","negation","match","gesture","no","ThumbDown","female","gesture-speech","1536","864","chrome","60.51","Windows 10","24","female","right","Sat Oct 12 2024 22:33:30 GMT+0200 (Mitteleuropäische Sommerzeit)","1","22","0","1728768019799"
"1676","f","SpeechGestureMatch","../RequiredFiles/videos/NeinDaumenhoch_m.mp4","Ist der Ball in der grünen Box?","Green","Blue","F","affirmation","mismatch","gesture","no","ThumbUp","male","gesture-speech","1536","864","chrome","60.51","Windows 10","24","female","right","Sat Oct 12 2024 22:33:37 GMT+0200 (Mitteleuropäische Sommerzeit)","1","23","0","1728768019799"
"1898","j","SpeechGestureMatch","../RequiredFiles/videos/NeinDaumenrunter_f.mp4","Ist der Ball in der grünen Box?","Blue","Green","F","negation","match","gesture","no","ThumbDown","female","gesture-speech","1536","864","chrome","60.51","Windows 10","24","female","right","Sat Oct 12 2024 22:33:45 GMT+0200 (Mitteleuropäische Sommerzeit)","1","24","1","1728768019799"
"4252","f","SpeechGestureMatch","../RequiredFiles/videos/JaDaumenrunter_m_no_sound.mp4","Ist der Ball in der grünen Box?","Blue","Green","F","negation","na","gesture","na","ThumbDown","male","gesture-speech","1536","864","chrome","60.51","Windows 10","24","female","right","Sat Oct 12 2024 22:33:54 GMT+0200 (Mitteleuropäische Sommerzeit)","1","25","0","1728768019799"
"2638","f","SpeechGestureMatch","../RequiredFiles/videos/JaDaumenrunter_f.mp4","Ist der Ball in der grünen Box?","Blue","Green","F","negation","mismatch","gesture","yes","ThumbDown","female","gesture-speech","1536","864","chrome","60.51","Windows 10","24","female","right","Sat Oct 12 2024 22:34:03 GMT+0200 (Mitteleuropäische Sommerzeit)","1","26","0","1728768019799"
"1653","j","SpeechGestureMatch","../RequiredFiles/videos/JaDaumenhoch_m.mp4","Ist der Ball in der grünen Box?","Blue","Green","J","affirmation","match","gesture","yes","ThumbUp","male","gesture-speech","1536","864","chrome","60.51","Windows 10","24","female","right","Sat Oct 12 2024 22:34:10 GMT+0200 (Mitteleuropäische Sommerzeit)","1","27","0","1728768019799"
"1809","f","SpeechGestureMatch","../RequiredFiles/videos/NeinDaumenhoch_m_no_sound.mp4","Ist der Ball in der blauen Box?","Blue","Green","F","affirmation","na","gesture","na","ThumbUp","male","gesture-speech","1536","864","chrome","60.51","Windows 10","24","female","right","Sat Oct 12 2024 22:34:17 GMT+0200 (Mitteleuropäische Sommerzeit)","1","28","0","1728768019799"
"2934","j","SpeechGestureMatch","../RequiredFiles/videos/NeinDaumenrunter_f_no_sound.mp4","Ist der Ball in der blauen Box?","Blue","Green","J","negation","na","gesture","na","ThumbDown","female","gesture-speech","1536","864","chrome","60.51","Windows 10","24","female","right","Sat Oct 12 2024 22:34:26 GMT+0200 (Mitteleuropäische Sommerzeit)","1","29","0","1728768019799"
"2377","f","SpeechGestureMatch","../RequiredFiles/videos/JaDaumenrunter_f_no_sound.mp4","Ist der Ball in der grünen Box?","Blue","Green","F","negation","na","gesture","na","ThumbDown","female","gesture-speech","1536","864","chrome","60.51","Windows 10","24","female","right","Sat Oct 12 2024 22:34:34 GMT+0200 (Mitteleuropäische Sommerzeit)","1","30","0","1728768019799"
"2108","f","SpeechGestureMatch","../RequiredFiles/videos/JaDaumenhoch_m.mp4","Ist der Ball in der grünen Box?","Green","Blue","F","affirmation","match","gesture","yes","ThumbUp","male","gesture-speech","1536","864","chrome","60.51","Windows 10","24","female","right","Sat Oct 12 2024 22:34:41 GMT+0200 (Mitteleuropäische Sommerzeit)","1","31","0","1728768019799"
"3493","j","SpeechGestureMatch","../RequiredFiles/videos/NeinDaumenrunter_m.mp4","Ist der Ball in der grünen Box?","Green","Blue","J","negation","match","gesture","no","ThumbDown","male","gesture-speech","1536","864","chrome","60.51","Windows 10","24","female","right","Sat Oct 12 2024 22:34:50 GMT+0200 (Mitteleuropäische Sommerzeit)","1","32","0","1728768019799"
"1598","j","SpeechGestureMatch","../RequiredFiles/videos/NeinDaumenhoch_f.mp4","Ist der Ball in der grünen Box?","Blue","Green","J","affirmation","mismatch","gesture","no","ThumbUp","female","gesture-speech","1536","864","chrome","60.51","Windows 10","24","female","right","Sat Oct 12 2024 22:34:57 GMT+0200 (Mitteleuropäische Sommerzeit)","1","33","0","1728768019799"
"1764","f","SpeechGestureMatch","../RequiredFiles/videos/NeinDaumenhoch_f.mp4","Ist der Ball in der grünen Box?","Green","Blue","F","affirmation","mismatch","gesture","no","ThumbUp","female","gesture-speech","1536","864","chrome","60.51","Windows 10","24","female","right","Sat Oct 12 2024 22:35:05 GMT+0200 (Mitteleuropäische Sommerzeit)","1","34","0","1728768019799"
"1260","j","SpeechGestureMatch","../RequiredFiles/videos/NeinDaumenhoch_m.mp4","Ist der Ball in der blauen Box?","Green","Blue","J","affirmation","mismatch","gesture","no","ThumbUp","male","gesture-speech","1536","864","chrome","60.51","Windows 10","24","female","right","Sat Oct 12 2024 22:35:11 GMT+0200 (Mitteleuropäische Sommerzeit)","1","35","0","1728768019799"
"2114","j","SpeechGestureMatch","../RequiredFiles/videos/JaDaumenhoch_f_no_sound.mp4","Ist der Ball in der blauen Box?","Green","Blue","J","affirmation","na","gesture","na","ThumbUp","female","gesture-speech","1536","864","chrome","60.51","Windows 10","24","female","right","Sat Oct 12 2024 22:35:19 GMT+0200 (Mitteleuropäische Sommerzeit)","1","36","0","1728768019799"
"1680","f","SpeechGestureMatch","../RequiredFiles/videos/JaDaumenrunter_f.mp4","Ist der Ball in der blauen Box?","Green","Blue","F","negation","mismatch","gesture","yes","ThumbDown","female","gesture-speech","1536","864","chrome","60.51","Windows 10","24","female","right","Sat Oct 12 2024 22:35:26 GMT+0200 (Mitteleuropäische Sommerzeit)","1","37","0","1728768019799"
"1944","j","SpeechGestureMatch","../RequiredFiles/videos/NeinDaumenrunter_m.mp4","Ist der Ball in der grünen Box?","Green","Blue","J","negation","match","gesture","no","ThumbDown","male","gesture-speech","1536","864","chrome","60.51","Windows 10","24","female","right","Sat Oct 12 2024 22:35:34 GMT+0200 (Mitteleuropäische Sommerzeit)","1","38","0","1728768019799"
"2256","j","SpeechGestureMatch","../RequiredFiles/videos/NeinDaumenhoch_m_no_sound.mp4","Ist der Ball in der grünen Box?","Blue","Green","J","affirmation","na","gesture","na","ThumbUp","male","gesture-speech","1536","864","chrome","60.51","Windows 10","24","female","right","Sat Oct 12 2024 22:35:42 GMT+0200 (Mitteleuropäische Sommerzeit)","1","39","0","1728768019799"
"2137","f","SpeechGestureMatch","../RequiredFiles/videos/JaDaumenrunter_m.mp4","Ist der Ball in der grünen Box?","Blue","Green","F","negation","mismatch","gesture","yes","ThumbDown","male","gesture-speech","1536","864","chrome","60.51","Windows 10","24","female","right","Sat Oct 12 2024 22:35:49 GMT+0200 (Mitteleuropäische Sommerzeit)","1","40","0","1728768019799"
"5889","f","SpeechGestureMatch","../RequiredFiles/videos/JaDaumenrunter_m.mp4","Ist der Ball in der blauen Box?","Green","Blue","F","negation","mismatch","gesture","yes","ThumbDown","male","gesture-speech","1536","864","chrome","60.51","Windows 10","24","female","right","Sat Oct 12 2024 22:36:01 GMT+0200 (Mitteleuropäische Sommerzeit)","1","41","0","1728768019799"
"2377","f","SpeechGestureMatch","../RequiredFiles/videos/JaDaumenrunter_f.mp4","Ist der Ball in der grünen Box?","Blue","Green","F","negation","mismatch","gesture","yes","ThumbDown","female","gesture-speech","1536","864","chrome","60.51","Windows 10","24","female","right","Sat Oct 12 2024 22:36:09 GMT+0200 (Mitteleuropäische Sommerzeit)","1","42","0","1728768019799"
"1804","f","SpeechGestureMatch","../RequiredFiles/videos/NeinDaumenrunter_f_no_sound.mp4","Ist der Ball in der blauen Box?","Green","Blue","F","negation","na","gesture","na","ThumbDown","female","gesture-speech","1536","864","chrome","60.51","Windows 10","24","female","right","Sat Oct 12 2024 22:36:16 GMT+0200 (Mitteleuropäische Sommerzeit)","1","43","0","1728768019799"
"2962","j","SpeechGestureMatch","../RequiredFiles/videos/NeinDaumenhoch_m.mp4","Ist der Ball in der grünen Box?","Blue","Green","J","affirmation","mismatch","gesture","no","ThumbUp","male","gesture-speech","1536","864","chrome","60.51","Windows 10","24","female","right","Sat Oct 12 2024 22:36:24 GMT+0200 (Mitteleuropäische Sommerzeit)","1","44","0","1728768019799"
"2219","f","SpeechGestureMatch","../RequiredFiles/videos/JaDaumenrunter_f_no_sound.mp4","Ist der Ball in der blauen Box?","Green","Blue","F","negation","na","gesture","na","ThumbDown","female","gesture-speech","1536","864","chrome","60.51","Windows 10","24","female","right","Sat Oct 12 2024 22:36:32 GMT+0200 (Mitteleuropäische Sommerzeit)","1","45","0","1728768019799"
"1777","j","SpeechGestureMatch","../RequiredFiles/videos/JaDaumenrunter_m.mp4","Ist der Ball in der grünen Box?","Green","Blue","J","negation","mismatch","gesture","yes","ThumbDown","male","gesture-speech","1536","864","chrome","60.51","Windows 10","24","female","right","Sat Oct 12 2024 22:36:40 GMT+0200 (Mitteleuropäische Sommerzeit)","1","46","0","1728768019799"
"1694","j","SpeechGestureMatch","../RequiredFiles/videos/NeinDaumenhoch_f.mp4","Ist der Ball in der blauen Box?","Green","Blue","J","affirmation","mismatch","gesture","no","ThumbUp","female","gesture-speech","1536","864","chrome","60.51","Windows 10","24","female","right","Sat Oct 12 2024 22:36:47 GMT+0200 (Mitteleuropäische Sommerzeit)","1","47","0","1728768019799"
"1599","j","SpeechGestureMatch","../RequiredFiles/videos/NeinDaumenhoch_m.mp4","Ist der Ball in der grünen Box?","Blue","Green","J","affirmation","mismatch","gesture","no","ThumbUp","male","gesture-speech","1536","864","chrome","60.51","Windows 10","24","female","right","Sat Oct 12 2024 22:36:54 GMT+0200 (Mitteleuropäische Sommerzeit)","1","48","0","1728768019799"
"1490","j","SpeechGestureMatch","../RequiredFiles/videos/NeinDaumenhoch_m_no_sound.mp4","Ist der Ball in der blauen Box?","Green","Blue","J","affirmation","na","gesture","na","ThumbUp","male","gesture-speech","1536","864","chrome","60.51","Windows 10","24","female","right","Sat Oct 12 2024 22:37:01 GMT+0200 (Mitteleuropäische Sommerzeit)","1","49","0","1728768019799"
"1700","j","SpeechGestureMatch","../RequiredFiles/videos/JaDaumenhoch_f.mp4","Ist der Ball in der grünen Box?","Blue","Green","J","affirmation","match","gesture","yes","ThumbUp","female","gesture-speech","1536","864","chrome","60.51","Windows 10","24","female","right","Sat Oct 12 2024 22:37:08 GMT+0200 (Mitteleuropäische Sommerzeit)","1","50","0","1728768019799"
"1481","j","SpeechGestureMatch","../RequiredFiles/videos/NeinDaumenhoch_f.mp4","Ist der Ball in der blauen Box?","Green","Blue","J","affirmation","mismatch","gesture","no","ThumbUp","female","gesture-speech","1536","864","chrome","60.51","Windows 10","24","female","right","Sat Oct 12 2024 22:37:15 GMT+0200 (Mitteleuropäische Sommerzeit)","1","51","0","1728768019799"
"2945","f","SpeechGestureMatch","../RequiredFiles/videos/NeinDaumenrunter_m_no_sound.mp4","Ist der Ball in der grünen Box?","Blue","Green","F","negation","na","gesture","na","ThumbDown","male","gesture-speech","1536","864","chrome","60.51","Windows 10","24","female","right","Sat Oct 12 2024 22:37:24 GMT+0200 (Mitteleuropäische Sommerzeit)","1","52","0","1728768019799"
"2099","f","SpeechGestureMatch","../RequiredFiles/videos/NeinDaumenrunter_f.mp4","Ist der Ball in der blauen Box?","Green","Blue","F","negation","match","gesture","no","ThumbDown","female","gesture-speech","1536","864","chrome","60.51","Windows 10","24","female","right","Sat Oct 12 2024 22:37:31 GMT+0200 (Mitteleuropäische Sommerzeit)","1","53","0","1728768019799"
"1677","j","SpeechGestureMatch","../RequiredFiles/videos/JaDaumenrunter_f_no_sound.mp4","Ist der Ball in der grünen Box?","Green","Blue","J","negation","na","gesture","na","ThumbDown","female","gesture-speech","1536","864","chrome","60.51","Windows 10","24","female","right","Sat Oct 12 2024 22:37:39 GMT+0200 (Mitteleuropäische Sommerzeit)","1","54","0","1728768019799"
"2626","f","SpeechGestureMatch","../RequiredFiles/videos/JaDaumenrunter_m.mp4","Ist der Ball in der blauen Box?","Green","Blue","F","negation","mismatch","gesture","yes","ThumbDown","male","gesture-speech","1536","864","chrome","60.51","Windows 10","24","female","right","Sat Oct 12 2024 22:37:47 GMT+0200 (Mitteleuropäische Sommerzeit)","1","55","0","1728768019799"
"1474","j","SpeechGestureMatch","../RequiredFiles/videos/JaDaumenhoch_f.mp4","Ist der Ball in der blauen Box?","Green","Blue","J","affirmation","match","gesture","yes","ThumbUp","female","gesture-speech","1536","864","chrome","60.51","Windows 10","24","female","right","Sat Oct 12 2024 22:37:54 GMT+0200 (Mitteleuropäische Sommerzeit)","1","56","0","1728768019799"
"1308","j","SpeechGestureMatch","../RequiredFiles/videos/NeinDaumenrunter_f_no_sound.mp4","Ist der Ball in der grünen Box?","Green","Blue","J","negation","na","gesture","na","ThumbDown","female","gesture-speech","1536","864","chrome","60.51","Windows 10","24","female","right","Sat Oct 12 2024 22:38:01 GMT+0200 (Mitteleuropäische Sommerzeit)","1","57","0","1728768019799"
"1740","j","SpeechGestureMatch","../RequiredFiles/videos/JaDaumenhoch_m_no_sound.mp4","Ist der Ball in der grünen Box?","Blue","Green","J","affirmation","na","gesture","na","ThumbUp","male","gesture-speech","1536","864","chrome","60.51","Windows 10","24","female","right","Sat Oct 12 2024 22:38:08 GMT+0200 (Mitteleuropäische Sommerzeit)","1","58","0","1728768019799"
"1692","j","SpeechGestureMatch","../RequiredFiles/videos/JaDaumenrunter_m.mp4","Ist der Ball in der blauen Box?","Blue","Green","J","negation","mismatch","gesture","yes","ThumbDown","male","gesture-speech","1536","864","chrome","60.51","Windows 10","24","female","right","Sat Oct 12 2024 22:38:15 GMT+0200 (Mitteleuropäische Sommerzeit)","1","59","0","1728768019799"
"2322","f","SpeechGestureMatch","../RequiredFiles/videos/NeinDaumenrunter_m.mp4","Ist der Ball in der blauen Box?","Green","Blue","F","negation","match","gesture","no","ThumbDown","male","gesture-speech","1536","864","chrome","60.51","Windows 10","24","female","right","Sat Oct 12 2024 22:38:23 GMT+0200 (Mitteleuropäische Sommerzeit)","1","60","0","1728768019799"
"1457","j","SpeechGestureMatch","../RequiredFiles/videos/NeinDaumenrunter_f.mp4","Ist der Ball in der blauen Box?","Blue","Green","J","negation","match","gesture","no","ThumbDown","female","gesture-speech","1536","864","chrome","60.51","Windows 10","24","female","right","Sat Oct 12 2024 22:38:30 GMT+0200 (Mitteleuropäische Sommerzeit)","1","61","0","1728768019799"
"1485","f","SpeechGestureMatch","../RequiredFiles/videos/NeinDaumenhoch_m_no_sound.mp4","Ist der Ball in der grünen Box?","Green","Blue","F","affirmation","na","gesture","na","ThumbUp","male","gesture-speech","1536","864","chrome","60.51","Windows 10","24","female","right","Sat Oct 12 2024 22:38:37 GMT+0200 (Mitteleuropäische Sommerzeit)","1","62","0","1728768019799"
"1371","f","SpeechGestureMatch","../RequiredFiles/videos/NeinDaumenrunter_m_no_sound.mp4","Ist der Ball in der blauen Box?","Green","Blue","F","negation","na","gesture","na","ThumbDown","male","gesture-speech","1536","864","chrome","60.51","Windows 10","24","female","right","Sat Oct 12 2024 22:38:44 GMT+0200 (Mitteleuropäische Sommerzeit)","1","63","0","1728768019799"
"1831","f","SpeechGestureMatch","../RequiredFiles/videos/JaDaumenhoch_m.mp4","Ist der Ball in der blauen Box?","Blue","Green","F","affirmation","match","gesture","yes","ThumbUp","male","gesture-speech","1536","864","chrome","60.51","Windows 10","24","female","right","Sat Oct 12 2024 22:38:51 GMT+0200 (Mitteleuropäische Sommerzeit)","1","64","0","1728768019799"
"2503","j","SpeechGestureMatch","../RequiredFiles/videos/NeinDaumenrunter_f.mp4","Ist der Ball in der grünen Box?","Blue","Green","F","negation","match","gesture","no","ThumbDown","female","gesture-speech","1536","864","chrome","60.51","Windows 10","24","female","right","Sat Oct 12 2024 22:38:59 GMT+0200 (Mitteleuropäische Sommerzeit)","1","65","1","1728768019799"
"1335","f","SpeechGestureMatch","../RequiredFiles/videos/JaDaumenhoch_f_no_sound.mp4","Ist der Ball in der blauen Box?","Blue","Green","F","affirmation","na","gesture","na","ThumbUp","female","gesture-speech","1536","864","chrome","60.51","Windows 10","24","female","right","Sat Oct 12 2024 22:39:06 GMT+0200 (Mitteleuropäische Sommerzeit)","1","66","0","1728768019799"
"1710","j","SpeechGestureMatch","../RequiredFiles/videos/JaDaumenrunter_m.mp4","Ist der Ball in der grünen Box?","Green","Blue","J","negation","mismatch","gesture","yes","ThumbDown","male","gesture-speech","1536","864","chrome","60.51","Windows 10","24","female","right","Sat Oct 12 2024 22:39:13 GMT+0200 (Mitteleuropäische Sommerzeit)","1","67","0","1728768019799"
"1306","f","SpeechGestureMatch","../RequiredFiles/videos/JaDaumenrunter_m.mp4","Ist der Ball in der grünen Box?","Blue","Green","F","negation","mismatch","gesture","yes","ThumbDown","male","gesture-speech","1536","864","chrome","60.51","Windows 10","24","female","right","Sat Oct 12 2024 22:39:20 GMT+0200 (Mitteleuropäische Sommerzeit)","1","68","0","1728768019799"
"1331","f","SpeechGestureMatch","../RequiredFiles/videos/JaDaumenhoch_m_no_sound.mp4","Ist der Ball in der blauen Box?","Blue","Green","F","affirmation","na","gesture","na","ThumbUp","male","gesture-speech","1536","864","chrome","60.51","Windows 10","24","female","right","Sat Oct 12 2024 22:39:27 GMT+0200 (Mitteleuropäische Sommerzeit)","1","69","0","1728768019799"
"1683","j","SpeechGestureMatch","../RequiredFiles/videos/JaDaumenhoch_m.mp4","Ist der Ball in der grünen Box?","Blue","Green","J","affirmation","match","gesture","yes","ThumbUp","male","gesture-speech","1536","864","chrome","60.51","Windows 10","24","female","right","Sat Oct 12 2024 22:39:34 GMT+0200 (Mitteleuropäische Sommerzeit)","1","70","0","1728768019799"
"1186","j","SpeechGestureMatch","../RequiredFiles/videos/NeinDaumenrunter_f.mp4","Ist der Ball in der blauen Box?","Blue","Green","J","negation","match","gesture","no","ThumbDown","female","gesture-speech","1536","864","chrome","60.51","Windows 10","24","female","right","Sat Oct 12 2024 22:39:41 GMT+0200 (Mitteleuropäische Sommerzeit)","1","71","0","1728768019799"
"1044","j","SpeechGestureMatch","../RequiredFiles/videos/JaDaumenrunter_f_no_sound.mp4","Ist der Ball in der blauen Box?","Blue","Green","J","negation","na","gesture","na","ThumbDown","female","gesture-speech","1536","864","chrome","60.51","Windows 10","24","female","right","Sat Oct 12 2024 22:39:48 GMT+0200 (Mitteleuropäische Sommerzeit)","1","72","0","1728768019799"
"2034","j","SpeechGestureMatch","../RequiredFiles/videos/NeinDaumenhoch_f.mp4","Ist der Ball in der grünen Box?","Blue","Green","J","affirmation","mismatch","gesture","no","ThumbUp","female","gesture-speech","1536","864","chrome","60.51","Windows 10","24","female","right","Sat Oct 12 2024 22:39:55 GMT+0200 (Mitteleuropäische Sommerzeit)","1","73","0","1728768019799"
"1742","f","SpeechGestureMatch","../RequiredFiles/videos/NeinDaumenrunter_m.mp4","Ist der Ball in der grünen Box?","Blue","Green","F","negation","match","gesture","no","ThumbDown","male","gesture-speech","1536","864","chrome","60.51","Windows 10","24","female","right","Sat Oct 12 2024 22:40:03 GMT+0200 (Mitteleuropäische Sommerzeit)","1","74","0","1728768019799"
"967","j","SpeechGestureMatch","../RequiredFiles/videos/JaDaumenrunter_m_no_sound.mp4","Ist der Ball in der blauen Box?","Blue","Green","J","negation","na","gesture","na","ThumbDown","male","gesture-speech","1536","864","chrome","60.51","Windows 10","24","female","right","Sat Oct 12 2024 22:40:09 GMT+0200 (Mitteleuropäische Sommerzeit)","1","75","0","1728768019799"
"810","j","SpeechGestureMatch","../RequiredFiles/videos/NeinDaumenrunter_m_no_sound.mp4","Ist der Ball in der blauen Box?","Blue","Green","J","negation","na","gesture","na","ThumbDown","male","gesture-speech","1536","864","chrome","60.51","Windows 10","24","female","right","Sat Oct 12 2024 22:40:15 GMT+0200 (Mitteleuropäische Sommerzeit)","1","76","0","1728768019799"
"1004","f","SpeechGestureMatch","../RequiredFiles/videos/NeinDaumenhoch_f.mp4","Ist der Ball in der blauen Box?","Blue","Green","F","affirmation","mismatch","gesture","no","ThumbUp","female","gesture-speech","1536","864","chrome","60.51","Windows 10","24","female","right","Sat Oct 12 2024 22:40:22 GMT+0200 (Mitteleuropäische Sommerzeit)","1","77","0","1728768019799"
"3000","j","SpeechGestureMatch","../RequiredFiles/videos/JaDaumenrunter_f.mp4","Ist der Ball in der blauen Box?","Blue","Green","J","negation","mismatch","gesture","yes","ThumbDown","female","gesture-speech","1536","864","chrome","60.51","Windows 10","24","female","right","Sat Oct 12 2024 22:40:31 GMT+0200 (Mitteleuropäische Sommerzeit)","1","78","0","1728768019799"
"1434","f","SpeechGestureMatch","../RequiredFiles/videos/JaDaumenhoch_f.mp4","Ist der Ball in der grünen Box?","Green","Blue","F","affirmation","match","gesture","yes","ThumbUp","female","gesture-speech","1536","864","chrome","60.51","Windows 10","24","female","right","Sat Oct 12 2024 22:40:38 GMT+0200 (Mitteleuropäische Sommerzeit)","1","79","0","1728768019799"
"1539","j","SpeechGestureMatch","../RequiredFiles/videos/NeinDaumenrunter_m.mp4","Ist der Ball in der blauen Box?","Blue","Green","J","negation","match","gesture","no","ThumbDown","male","gesture-speech","1536","864","chrome","60.51","Windows 10","24","female","right","Sat Oct 12 2024 22:40:45 GMT+0200 (Mitteleuropäische Sommerzeit)","1","80","0","1728768019799"
"1158","f","SpeechGestureMatch","../RequiredFiles/videos/NeinDaumenrunter_m.mp4","Ist der Ball in der grünen Box?","Blue","Green","F","negation","match","gesture","no","ThumbDown","male","gesture-speech","1536","864","chrome","60.51","Windows 10","24","female","right","Sat Oct 12 2024 22:40:51 GMT+0200 (Mitteleuropäische Sommerzeit)","1","81","0","1728768019799"
"1643","f","SpeechGestureMatch","../RequiredFiles/videos/JaDaumenhoch_f.mp4","Ist der Ball in der blauen Box?","Blue","Green","F","affirmation","match","gesture","yes","ThumbUp","female","gesture-speech","1536","864","chrome","60.51","Windows 10","24","female","right","Sat Oct 12 2024 22:40:58 GMT+0200 (Mitteleuropäische Sommerzeit)","1","82","0","1728768019799"
"1019","f","SpeechGestureMatch","../RequiredFiles/videos/JaDaumenrunter_m_no_sound.mp4","Ist der Ball in der blauen Box?","Green","Blue","F","negation","na","gesture","na","ThumbDown","male","gesture-speech","1536","864","chrome","60.51","Windows 10","24","female","right","Sat Oct 12 2024 22:41:05 GMT+0200 (Mitteleuropäische Sommerzeit)","1","83","0","1728768019799"
"1020","f","SpeechGestureMatch","../RequiredFiles/videos/NeinDaumenrunter_f_no_sound.mp4","Ist der Ball in der grünen Box?","Blue","Green","F","negation","na","gesture","na","ThumbDown","female","gesture-speech","1536","864","chrome","60.51","Windows 10","24","female","right","Sat Oct 12 2024 22:41:12 GMT+0200 (Mitteleuropäische Sommerzeit)","1","84","0","1728768019799"
"1543","j","SpeechGestureMatch","../RequiredFiles/videos/JaDaumenrunter_f.mp4","Ist der Ball in der blauen Box?","Blue","Green","J","negation","mismatch","gesture","yes","ThumbDown","female","gesture-speech","1536","864","chrome","60.51","Windows 10","24","female","right","Sat Oct 12 2024 22:41:19 GMT+0200 (Mitteleuropäische Sommerzeit)","1","85","0","1728768019799"
"1096","f","SpeechGestureMatch","../RequiredFiles/videos/NeinDaumenhoch_f_no_sound.mp4","Ist der Ball in der blauen Box?","Blue","Green","F","affirmation","na","gesture","na","ThumbUp","female","gesture-speech","1536","864","chrome","60.51","Windows 10","24","female","right","Sat Oct 12 2024 22:41:25 GMT+0200 (Mitteleuropäische Sommerzeit)","1","86","0","1728768019799"
"1368","j","SpeechGestureMatch","../RequiredFiles/videos/NeinDaumenrunter_m_no_sound.mp4","Ist der Ball in der grünen Box?","Green","Blue","J","negation","na","gesture","na","ThumbDown","male","gesture-speech","1536","864","chrome","60.51","Windows 10","24","female","right","Sat Oct 12 2024 22:41:32 GMT+0200 (Mitteleuropäische Sommerzeit)","1","87","0","1728768019799"
"1203","f","SpeechGestureMatch","../RequiredFiles/videos/NeinDaumenhoch_f_no_sound.mp4","Ist der Ball in der grünen Box?","Green","Blue","F","affirmation","na","gesture","na","ThumbUp","female","gesture-speech","1536","864","chrome","60.51","Windows 10","24","female","right","Sat Oct 12 2024 22:41:39 GMT+0200 (Mitteleuropäische Sommerzeit)","1","88","0","1728768019799"
"1016","j","SpeechGestureMatch","../RequiredFiles/videos/NeinDaumenhoch_m.mp4","Ist der Ball in der blauen Box?","Blue","Green","F","affirmation","mismatch","gesture","no","ThumbUp","male","gesture-speech","1536","864","chrome","60.51","Windows 10","24","female","right","Sat Oct 12 2024 22:41:46 GMT+0200 (Mitteleuropäische Sommerzeit)","1","89","1","1728768019799"
"1040","f","SpeechGestureMatch","../RequiredFiles/videos/NeinDaumenrunter_f.mp4","Ist der Ball in der blauen Box?","Green","Blue","F","negation","match","gesture","no","ThumbDown","female","gesture-speech","1536","864","chrome","60.51","Windows 10","24","female","right","Sat Oct 12 2024 22:41:52 GMT+0200 (Mitteleuropäische Sommerzeit)","1","90","0","1728768019799"
"1011","j","SpeechGestureMatch","../RequiredFiles/videos/NeinDaumenhoch_m.mp4","Ist der Ball in der blauen Box?","Green","Blue","J","affirmation","mismatch","gesture","no","ThumbUp","male","gesture-speech","1536","864","chrome","60.51","Windows 10","24","female","right","Sat Oct 12 2024 22:41:59 GMT+0200 (Mitteleuropäische Sommerzeit)","1","91","0","1728768019799"
"1159","j","SpeechGestureMatch","../RequiredFiles/videos/NeinDaumenrunter_f.mp4","Ist der Ball in der grünen Box?","Green","Blue","J","negation","match","gesture","no","ThumbDown","female","gesture-speech","1536","864","chrome","60.51","Windows 10","24","female","right","Sat Oct 12 2024 22:42:05 GMT+0200 (Mitteleuropäische Sommerzeit)","1","92","0","1728768019799"
"1002","f","SpeechGestureMatch","../RequiredFiles/videos/NeinDaumenhoch_m.mp4","Ist der Ball in der blauen Box?","Blue","Green","F","affirmation","mismatch","gesture","no","ThumbUp","male","gesture-speech","1536","864","chrome","60.51","Windows 10","24","female","right","Sat Oct 12 2024 22:42:12 GMT+0200 (Mitteleuropäische Sommerzeit)","1","93","0","1728768019799"
"904","f","SpeechGestureMatch","../RequiredFiles/videos/NeinDaumenrunter_m.mp4","Ist der Ball in der blauen Box?","Green","Blue","F","negation","match","gesture","no","ThumbDown","male","gesture-speech","1536","864","chrome","60.51","Windows 10","24","female","right","Sat Oct 12 2024 22:42:18 GMT+0200 (Mitteleuropäische Sommerzeit)","1","94","0","1728768019799"
"973","j","SpeechGestureMatch","../RequiredFiles/videos/JaDaumenhoch_m.mp4","Ist der Ball in der blauen Box?","Green","Blue","J","affirmation","match","gesture","yes","ThumbUp","male","gesture-speech","1536","864","chrome","60.51","Windows 10","24","female","right","Sat Oct 12 2024 22:42:25 GMT+0200 (Mitteleuropäische Sommerzeit)","1","95","0","1728768019799"
"1630","j","SpeechGestureMatch","../RequiredFiles/videos/NeinDaumenrunter_m.mp4","Ist der Ball in der blauen Box?","Blue","Green","J","negation","match","gesture","no","ThumbDown","male","gesture-speech","1536","864","chrome","60.51","Windows 10","24","female","right","Sat Oct 12 2024 22:42:32 GMT+0200 (Mitteleuropäische Sommerzeit)","1","96","0","1728768019799"
"924","j","SpeechGestureMatch","../RequiredFiles/videos/JaDaumenhoch_m.mp4","Ist der Ball in der grünen Box?","Blue","Green","J","affirmation","match","gesture","yes","ThumbUp","male","gesture-speech","1536","864","chrome","60.51","Windows 10","24","female","right","Sat Oct 12 2024 22:46:21 GMT+0200 (Mitteleuropäische Sommerzeit)","2","1","0","1728768019799"
"819","j","SpeechGestureMatch","../RequiredFiles/videos/NeinDaumenhoch_f_no_sound.mp4","Ist der Ball in der blauen Box?","Green","Blue","J","affirmation","na","gesture","na","ThumbUp","female","gesture-speech","1536","864","chrome","60.51","Windows 10","24","female","right","Sat Oct 12 2024 22:46:27 GMT+0200 (Mitteleuropäische Sommerzeit)","2","2","0","1728768019799"
"890","f","SpeechGestureMatch","../RequiredFiles/videos/NeinDaumenrunter_m.mp4","Ist der Ball in der blauen Box?","Green","Blue","F","negation","match","gesture","no","ThumbDown","male","gesture-speech","1536","864","chrome","60.51","Windows 10","24","female","right","Sat Oct 12 2024 22:46:33 GMT+0200 (Mitteleuropäische Sommerzeit)","2","3","0","1728768019799"
"724","j","SpeechGestureMatch","../RequiredFiles/videos/NeinDaumenrunter_m_no_sound.mp4","Ist der Ball in der grünen Box?","Blue","Green","F","negation","na","gesture","na","ThumbDown","male","gesture-speech","1536","864","chrome","60.51","Windows 10","24","female","right","Sat Oct 12 2024 22:46:40 GMT+0200 (Mitteleuropäische Sommerzeit)","2","4","1","1728768019799"
"1044","j","SpeechGestureMatch","../RequiredFiles/videos/JaDaumenhoch_f_no_sound.mp4","Ist der Ball in der grünen Box?","Blue","Green","J","affirmation","na","gesture","na","ThumbUp","female","gesture-speech","1536","864","chrome","60.51","Windows 10","24","female","right","Sat Oct 12 2024 22:46:46 GMT+0200 (Mitteleuropäische Sommerzeit)","2","5","0","1728768019799"
"918","j","SpeechGestureMatch","../RequiredFiles/videos/JaDaumenhoch_f_no_sound.mp4","Ist der Ball in der blauen Box?","Green","Blue","J","affirmation","na","gesture","na","ThumbUp","female","gesture-speech","1536","864","chrome","60.51","Windows 10","24","female","right","Sat Oct 12 2024 22:46:53 GMT+0200 (Mitteleuropäische Sommerzeit)","2","6","0","1728768019799"
"900","j","SpeechGestureMatch","../RequiredFiles/videos/JaDaumenhoch_f.mp4","Ist der Ball in der blauen Box?","Green","Blue","J","affirmation","match","gesture","yes","ThumbUp","female","gesture-speech","1536","864","chrome","60.51","Windows 10","24","female","right","Sat Oct 12 2024 22:46:59 GMT+0200 (Mitteleuropäische Sommerzeit)","2","7","0","1728768019799"
"1045","j","SpeechGestureMatch","../RequiredFiles/videos/JaDaumenrunter_f_no_sound.mp4","Ist der Ball in der blauen Box?","Blue","Green","J","negation","na","gesture","na","ThumbDown","female","gesture-speech","1536","864","chrome","60.51","Windows 10","24","female","right","Sat Oct 12 2024 22:47:06 GMT+0200 (Mitteleuropäische Sommerzeit)","2","8","0","1728768019799"
"959","f","SpeechGestureMatch","../RequiredFiles/videos/NeinDaumenhoch_f_no_sound.mp4","Ist der Ball in der grünen Box?","Green","Blue","F","affirmation","na","gesture","na","ThumbUp","female","gesture-speech","1536","864","chrome","60.51","Windows 10","24","female","right","Sat Oct 12 2024 22:47:12 GMT+0200 (Mitteleuropäische Sommerzeit)","2","9","0","1728768019799"
"1127","f","SpeechGestureMatch","../RequiredFiles/videos/NeinDaumenhoch_f.mp4","Ist der Ball in der grünen Box?","Green","Blue","F","affirmation","mismatch","gesture","no","ThumbUp","female","gesture-speech","1536","864","chrome","60.51","Windows 10","24","female","right","Sat Oct 12 2024 22:47:19 GMT+0200 (Mitteleuropäische Sommerzeit)","2","10","0","1728768019799"
"1117","j","SpeechGestureMatch","../RequiredFiles/videos/NeinDaumenrunter_f_no_sound.mp4","Ist der Ball in der grünen Box?","Green","Blue","J","negation","na","gesture","na","ThumbDown","female","gesture-speech","1536","864","chrome","60.51","Windows 10","24","female","right","Sat Oct 12 2024 22:47:26 GMT+0200 (Mitteleuropäische Sommerzeit)","2","11","0","1728768019799"
"1148","j","SpeechGestureMatch","../RequiredFiles/videos/NeinDaumenhoch_m.mp4","Ist der Ball in der grünen Box?","Blue","Green","J","affirmation","mismatch","gesture","no","ThumbUp","male","gesture-speech","1536","864","chrome","60.51","Windows 10","24","female","right","Sat Oct 12 2024 22:47:32 GMT+0200 (Mitteleuropäische Sommerzeit)","2","12","0","1728768019799"
"1473","j","SpeechGestureMatch","../RequiredFiles/videos/NeinDaumenrunter_m.mp4","Ist der Ball in der blauen Box?","Blue","Green","J","negation","match","gesture","no","ThumbDown","male","gesture-speech","1536","864","chrome","60.51","Windows 10","24","female","right","Sat Oct 12 2024 22:47:39 GMT+0200 (Mitteleuropäische Sommerzeit)","2","13","0","1728768019799"
"988","j","SpeechGestureMatch","../RequiredFiles/videos/JaDaumenhoch_m_no_sound.mp4","Ist der Ball in der blauen Box?","Green","Blue","J","affirmation","na","gesture","na","ThumbUp","male","gesture-speech","1536","864","chrome","60.51","Windows 10","24","female","right","Sat Oct 12 2024 22:47:46 GMT+0200 (Mitteleuropäische Sommerzeit)","2","14","0","1728768019799"
"1048","j","SpeechGestureMatch","../RequiredFiles/videos/NeinDaumenrunter_m_no_sound.mp4","Ist der Ball in der blauen Box?","Blue","Green","J","negation","na","gesture","na","ThumbDown","male","gesture-speech","1536","864","chrome","60.51","Windows 10","24","female","right","Sat Oct 12 2024 22:47:52 GMT+0200 (Mitteleuropäische Sommerzeit)","2","15","0","1728768019799"
"1034","f","SpeechGestureMatch","../RequiredFiles/videos/NeinDaumenrunter_m.mp4","Ist der Ball in der grünen Box?","Blue","Green","F","negation","match","gesture","no","ThumbDown","male","gesture-speech","1536","864","chrome","60.51","Windows 10","24","female","right","Sat Oct 12 2024 22:47:59 GMT+0200 (Mitteleuropäische Sommerzeit)","2","16","0","1728768019799"
"1291","j","SpeechGestureMatch","../RequiredFiles/videos/JaDaumenrunter_m.mp4","Ist der Ball in der blauen Box?","Blue","Green","J","negation","mismatch","gesture","yes","ThumbDown","male","gesture-speech","1536","864","chrome","60.51","Windows 10","24","female","right","Sat Oct 12 2024 22:48:06 GMT+0200 (Mitteleuropäische Sommerzeit)","2","17","0","1728768019799"
"1030","j","SpeechGestureMatch","../RequiredFiles/videos/JaDaumenrunter_m.mp4","Ist der Ball in der grünen Box?","Green","Blue","J","negation","mismatch","gesture","yes","ThumbDown","male","gesture-speech","1536","864","chrome","60.51","Windows 10","24","female","right","Sat Oct 12 2024 22:48:12 GMT+0200 (Mitteleuropäische Sommerzeit)","2","18","0","1728768019799"
"1281","f","SpeechGestureMatch","../RequiredFiles/videos/JaDaumenrunter_f.mp4","Ist der Ball in der grünen Box?","Blue","Green","F","negation","mismatch","gesture","yes","ThumbDown","female","gesture-speech","1536","864","chrome","60.51","Windows 10","24","female","right","Sat Oct 12 2024 22:48:19 GMT+0200 (Mitteleuropäische Sommerzeit)","2","19","0","1728768019799"
"1066","f","SpeechGestureMatch","../RequiredFiles/videos/NeinDaumenhoch_f.mp4","Ist der Ball in der blauen Box?","Blue","Green","F","affirmation","mismatch","gesture","no","ThumbUp","female","gesture-speech","1536","864","chrome","60.51","Windows 10","24","female","right","Sat Oct 12 2024 22:48:26 GMT+0200 (Mitteleuropäische Sommerzeit)","2","20","0","1728768019799"
"886","f","SpeechGestureMatch","../RequiredFiles/videos/JaDaumenhoch_m.mp4","Ist der Ball in der blauen Box?","Blue","Green","F","affirmation","match","gesture","yes","ThumbUp","male","gesture-speech","1536","864","chrome","60.51","Windows 10","24","female","right","Sat Oct 12 2024 22:48:32 GMT+0200 (Mitteleuropäische Sommerzeit)","2","21","0","1728768019799"
"843","f","SpeechGestureMatch","../RequiredFiles/videos/JaDaumenhoch_m_no_sound.mp4","Ist der Ball in der blauen Box?","Blue","Green","F","affirmation","na","gesture","na","ThumbUp","male","gesture-speech","1536","864","chrome","60.51","Windows 10","24","female","right","Sat Oct 12 2024 22:48:39 GMT+0200 (Mitteleuropäische Sommerzeit)","2","22","0","1728768019799"
"992","j","SpeechGestureMatch","../RequiredFiles/videos/JaDaumenhoch_f.mp4","Ist der Ball in der grünen Box?","Blue","Green","J","affirmation","match","gesture","yes","ThumbUp","female","gesture-speech","1536","864","chrome","60.51","Windows 10","24","female","right","Sat Oct 12 2024 22:48:45 GMT+0200 (Mitteleuropäische Sommerzeit)","2","23","0","1728768019799"
"1082","f","SpeechGestureMatch","../RequiredFiles/videos/NeinDaumenrunter_f.mp4","Ist der Ball in der grünen Box?","Blue","Green","F","negation","match","gesture","no","ThumbDown","female","gesture-speech","1536","864","chrome","60.51","Windows 10","24","female","right","Sat Oct 12 2024 22:48:52 GMT+0200 (Mitteleuropäische Sommerzeit)","2","24","0","1728768019799"
"896","f","SpeechGestureMatch","../RequiredFiles/videos/JaDaumenhoch_f.mp4","Ist der Ball in der grünen Box?","Green","Blue","F","affirmation","match","gesture","yes","ThumbUp","female","gesture-speech","1536","864","chrome","60.51","Windows 10","24","female","right","Sat Oct 12 2024 22:48:58 GMT+0200 (Mitteleuropäische Sommerzeit)","2","25","0","1728768019799"
"953","f","SpeechGestureMatch","../RequiredFiles/videos/NeinDaumenhoch_f.mp4","Ist der Ball in der grünen Box?","Green","Blue","F","affirmation","mismatch","gesture","no","ThumbUp","female","gesture-speech","1536","864","chrome","60.51","Windows 10","24","female","right","Sat Oct 12 2024 22:49:05 GMT+0200 (Mitteleuropäische Sommerzeit)","2","26","0","1728768019799"
"1276","f","SpeechGestureMatch","../RequiredFiles/videos/JaDaumenrunter_m.mp4","Ist der Ball in der blauen Box?","Green","Blue","F","negation","mismatch","gesture","yes","ThumbDown","male","gesture-speech","1536","864","chrome","60.51","Windows 10","24","female","right","Sat Oct 12 2024 22:49:12 GMT+0200 (Mitteleuropäische Sommerzeit)","2","27","0","1728768019799"
"870","j","SpeechGestureMatch","../RequiredFiles/videos/JaDaumenhoch_m.mp4","Ist der Ball in der grünen Box?","Blue","Green","J","affirmation","match","gesture","yes","ThumbUp","male","gesture-speech","1536","864","chrome","60.51","Windows 10","24","female","right","Sat Oct 12 2024 22:49:18 GMT+0200 (Mitteleuropäische Sommerzeit)","2","28","0","1728768019799"
"1116","j","SpeechGestureMatch","../RequiredFiles/videos/NeinDaumenrunter_f.mp4","Ist der Ball in der blauen Box?","Blue","Green","J","negation","match","gesture","no","ThumbDown","female","gesture-speech","1536","864","chrome","60.51","Windows 10","24","female","right","Sat Oct 12 2024 22:49:25 GMT+0200 (Mitteleuropäische Sommerzeit)","2","29","0","1728768019799"
"1102","f","SpeechGestureMatch","../RequiredFiles/videos/NeinDaumenrunter_f.mp4","Ist der Ball in der blauen Box?","Green","Blue","F","negation","match","gesture","no","ThumbDown","female","gesture-speech","1536","864","chrome","60.51","Windows 10","24","female","right","Sat Oct 12 2024 22:49:31 GMT+0200 (Mitteleuropäische Sommerzeit)","2","30","0","1728768019799"
"995","j","SpeechGestureMatch","../RequiredFiles/videos/JaDaumenrunter_f_no_sound.mp4","Ist der Ball in der grünen Box?","Green","Blue","J","negation","na","gesture","na","ThumbDown","female","gesture-speech","1536","864","chrome","60.51","Windows 10","24","female","right","Sat Oct 12 2024 22:49:38 GMT+0200 (Mitteleuropäische Sommerzeit)","2","31","0","1728768019799"
"1011","j","SpeechGestureMatch","../RequiredFiles/videos/NeinDaumenhoch_m.mp4","Ist der Ball in der blauen Box?","Green","Blue","J","affirmation","mismatch","gesture","no","ThumbUp","male","gesture-speech","1536","864","chrome","60.51","Windows 10","24","female","right","Sat Oct 12 2024 22:49:45 GMT+0200 (Mitteleuropäische Sommerzeit)","2","32","0","1728768019799"
"858","f","SpeechGestureMatch","../RequiredFiles/videos/JaDaumenhoch_m.mp4","Ist der Ball in der grünen Box?","Green","Blue","F","affirmation","match","gesture","yes","ThumbUp","male","gesture-speech","1536","864","chrome","60.51","Windows 10","24","female","right","Sat Oct 12 2024 22:49:51 GMT+0200 (Mitteleuropäische Sommerzeit)","2","33","0","1728768019799"
"834","j","SpeechGestureMatch","../RequiredFiles/videos/JaDaumenhoch_m.mp4","Ist der Ball in der blauen Box?","Green","Blue","J","affirmation","match","gesture","yes","ThumbUp","male","gesture-speech","1536","864","chrome","60.51","Windows 10","24","female","right","Sat Oct 12 2024 22:49:57 GMT+0200 (Mitteleuropäische Sommerzeit)","2","34","0","1728768019799"
"1059","j","SpeechGestureMatch","../RequiredFiles/videos/JaDaumenrunter_f.mp4","Ist der Ball in der blauen Box?","Blue","Green","J","negation","mismatch","gesture","yes","ThumbDown","female","gesture-speech","1536","864","chrome","60.51","Windows 10","24","female","right","Sat Oct 12 2024 22:50:04 GMT+0200 (Mitteleuropäische Sommerzeit)","2","35","0","1728768019799"
"1030","f","SpeechGestureMatch","../RequiredFiles/videos/JaDaumenrunter_f.mp4","Ist der Ball in der blauen Box?","Green","Blue","F","negation","mismatch","gesture","yes","ThumbDown","female","gesture-speech","1536","864","chrome","60.51","Windows 10","24","female","right","Sat Oct 12 2024 22:50:11 GMT+0200 (Mitteleuropäische Sommerzeit)","2","36","0","1728768019799"
"874","f","SpeechGestureMatch","../RequiredFiles/videos/JaDaumenhoch_f.mp4","Ist der Ball in der blauen Box?","Blue","Green","F","affirmation","match","gesture","yes","ThumbUp","female","gesture-speech","1536","864","chrome","60.51","Windows 10","24","female","right","Sat Oct 12 2024 22:50:17 GMT+0200 (Mitteleuropäische Sommerzeit)","2","37","0","1728768019799"
"1699","f","SpeechGestureMatch","../RequiredFiles/videos/JaDaumenhoch_m.mp4","Ist der Ball in der grünen Box?","Green","Blue","F","affirmation","match","gesture","yes","ThumbUp","male","gesture-speech","1536","864","chrome","60.51","Windows 10","24","female","right","Sat Oct 12 2024 22:50:24 GMT+0200 (Mitteleuropäische Sommerzeit)","2","38","0","1728768019799"
"1107","j","SpeechGestureMatch","../RequiredFiles/videos/NeinDaumenhoch_f.mp4","Ist der Ball in der grünen Box?","Blue","Green","J","affirmation","mismatch","gesture","no","ThumbUp","female","gesture-speech","1536","864","chrome","60.51","Windows 10","24","female","right","Sat Oct 12 2024 22:50:31 GMT+0200 (Mitteleuropäische Sommerzeit)","2","39","0","1728768019799"
"1411","f","SpeechGestureMatch","../RequiredFiles/videos/NeinDaumenhoch_m.mp4","Ist der Ball in der grünen Box?","Green","Blue","F","affirmation","mismatch","gesture","no","ThumbUp","male","gesture-speech","1536","864","chrome","60.51","Windows 10","24","female","right","Sat Oct 12 2024 22:50:38 GMT+0200 (Mitteleuropäische Sommerzeit)","2","40","0","1728768019799"
"1315","j","SpeechGestureMatch","../RequiredFiles/videos/NeinDaumenhoch_f.mp4","Ist der Ball in der blauen Box?","Green","Blue","J","affirmation","mismatch","gesture","no","ThumbUp","female","gesture-speech","1536","864","chrome","60.51","Windows 10","24","female","right","Sat Oct 12 2024 22:50:45 GMT+0200 (Mitteleuropäische Sommerzeit)","2","41","0","1728768019799"
"899","j","SpeechGestureMatch","../RequiredFiles/videos/NeinDaumenhoch_m_no_sound.mp4","Ist der Ball in der grünen Box?","Blue","Green","J","affirmation","na","gesture","na","ThumbUp","male","gesture-speech","1536","864","chrome","60.51","Windows 10","24","female","right","Sat Oct 12 2024 22:50:51 GMT+0200 (Mitteleuropäische Sommerzeit)","2","42","0","1728768019799"
"1155","j","SpeechGestureMatch","../RequiredFiles/videos/JaDaumenhoch_f.mp4","Ist der Ball in der blauen Box?","Green","Blue","J","affirmation","match","gesture","yes","ThumbUp","female","gesture-speech","1536","864","chrome","60.51","Windows 10","24","female","right","Sat Oct 12 2024 22:50:58 GMT+0200 (Mitteleuropäische Sommerzeit)","2","43","0","1728768019799"
"1134","f","SpeechGestureMatch","../RequiredFiles/videos/JaDaumenrunter_m_no_sound.mp4","Ist der Ball in der blauen Box?","Green","Blue","F","negation","na","gesture","na","ThumbDown","male","gesture-speech","1536","864","chrome","60.51","Windows 10","24","female","right","Sat Oct 12 2024 22:51:05 GMT+0200 (Mitteleuropäische Sommerzeit)","2","44","0","1728768019799"
"957","j","SpeechGestureMatch","../RequiredFiles/videos/NeinDaumenrunter_m_no_sound.mp4","Ist der Ball in der grünen Box?","Green","Blue","J","negation","na","gesture","na","ThumbDown","male","gesture-speech","1536","864","chrome","60.51","Windows 10","24","female","right","Sat Oct 12 2024 22:51:11 GMT+0200 (Mitteleuropäische Sommerzeit)","2","45","0","1728768019799"
"937","f","SpeechGestureMatch","../RequiredFiles/videos/JaDaumenhoch_f.mp4","Ist der Ball in der blauen Box?","Blue","Green","F","affirmation","match","gesture","yes","ThumbUp","female","gesture-speech","1536","864","chrome","60.51","Windows 10","24","female","right","Sat Oct 12 2024 22:51:18 GMT+0200 (Mitteleuropäische Sommerzeit)","2","46","0","1728768019799"
"905","f","SpeechGestureMatch","../RequiredFiles/videos/JaDaumenrunter_m.mp4","Ist der Ball in der blauen Box?","Green","Blue","F","negation","mismatch","gesture","yes","ThumbDown","male","gesture-speech","1536","864","chrome","60.51","Windows 10","24","female","right","Sat Oct 12 2024 22:51:24 GMT+0200 (Mitteleuropäische Sommerzeit)","2","47","0","1728768019799"
"1324","f","SpeechGestureMatch","../RequiredFiles/videos/NeinDaumenrunter_f.mp4","Ist der Ball in der grünen Box?","Blue","Green","F","negation","match","gesture","no","ThumbDown","female","gesture-speech","1536","864","chrome","60.51","Windows 10","24","female","right","Sat Oct 12 2024 22:51:31 GMT+0200 (Mitteleuropäische Sommerzeit)","2","48","0","1728768019799"
"1011","j","SpeechGestureMatch","../RequiredFiles/videos/NeinDaumenhoch_f.mp4","Ist der Ball in der blauen Box?","Green","Blue","J","affirmation","mismatch","gesture","no","ThumbUp","female","gesture-speech","1536","864","chrome","60.51","Windows 10","24","female","right","Sat Oct 12 2024 22:51:37 GMT+0200 (Mitteleuropäische Sommerzeit)","2","49","0","1728768019799"
"951","j","SpeechGestureMatch","../RequiredFiles/videos/JaDaumenhoch_m_no_sound.mp4","Ist der Ball in der grünen Box?","Blue","Green","J","affirmation","na","gesture","na","ThumbUp","male","gesture-speech","1536","864","chrome","60.51","Windows 10","24","female","right","Sat Oct 12 2024 22:51:44 GMT+0200 (Mitteleuropäische Sommerzeit)","2","50","0","1728768019799"
"1065","j","SpeechGestureMatch","../RequiredFiles/videos/NeinDaumenrunter_f.mp4","Ist der Ball in der grünen Box?","Green","Blue","J","negation","match","gesture","no","ThumbDown","female","gesture-speech","1536","864","chrome","60.51","Windows 10","24","female","right","Sat Oct 12 2024 22:51:51 GMT+0200 (Mitteleuropäische Sommerzeit)","2","51","0","1728768019799"
"895","f","SpeechGestureMatch","../RequiredFiles/videos/NeinDaumenhoch_m.mp4","Ist der Ball in der blauen Box?","Blue","Green","F","affirmation","mismatch","gesture","no","ThumbUp","male","gesture-speech","1536","864","chrome","60.51","Windows 10","24","female","right","Sat Oct 12 2024 22:51:57 GMT+0200 (Mitteleuropäische Sommerzeit)","2","52","0","1728768019799"
"1159","j","SpeechGestureMatch","../RequiredFiles/videos/NeinDaumenrunter_f_no_sound.mp4","Ist der Ball in der blauen Box?","Blue","Green","J","negation","na","gesture","na","ThumbDown","female","gesture-speech","1536","864","chrome","60.51","Windows 10","24","female","right","Sat Oct 12 2024 22:52:04 GMT+0200 (Mitteleuropäische Sommerzeit)","2","53","0","1728768019799"
"915","f","SpeechGestureMatch","../RequiredFiles/videos/JaDaumenhoch_m_no_sound.mp4","Ist der Ball in der grünen Box?","Green","Blue","F","affirmation","na","gesture","na","ThumbUp","male","gesture-speech","1536","864","chrome","60.51","Windows 10","24","female","right","Sat Oct 12 2024 22:52:10 GMT+0200 (Mitteleuropäische Sommerzeit)","2","54","0","1728768019799"
"939","j","SpeechGestureMatch","../RequiredFiles/videos/JaDaumenrunter_m_no_sound.mp4","Ist der Ball in der grünen Box?","Green","Blue","J","negation","na","gesture","na","ThumbDown","male","gesture-speech","1536","864","chrome","60.51","Windows 10","24","female","right","Sat Oct 12 2024 22:52:17 GMT+0200 (Mitteleuropäische Sommerzeit)","2","55","0","1728768019799"
"899","f","SpeechGestureMatch","../RequiredFiles/videos/JaDaumenrunter_f.mp4","Ist der Ball in der blauen Box?","Green","Blue","F","negation","mismatch","gesture","yes","ThumbDown","female","gesture-speech","1536","864","chrome","60.51","Windows 10","24","female","right","Sat Oct 12 2024 22:52:23 GMT+0200 (Mitteleuropäische Sommerzeit)","2","56","0","1728768019799"
"964","f","SpeechGestureMatch","../RequiredFiles/videos/JaDaumenrunter_m_no_sound.mp4","Ist der Ball in der grünen Box?","Blue","Green","F","negation","na","gesture","na","ThumbDown","male","gesture-speech","1536","864","chrome","60.51","Windows 10","24","female","right","Sat Oct 12 2024 22:52:30 GMT+0200 (Mitteleuropäische Sommerzeit)","2","57","0","1728768019799"
"810","f","SpeechGestureMatch","../RequiredFiles/videos/NeinDaumenhoch_f_no_sound.mp4","Ist der Ball in der blauen Box?","Blue","Green","F","affirmation","na","gesture","na","ThumbUp","female","gesture-speech","1536","864","chrome","60.51","Windows 10","24","female","right","Sat Oct 12 2024 22:52:36 GMT+0200 (Mitteleuropäische Sommerzeit)","2","58","0","1728768019799"
"933","j","SpeechGestureMatch","../RequiredFiles/videos/NeinDaumenrunter_f.mp4","Ist der Ball in der blauen Box?","Blue","Green","J","negation","match","gesture","no","ThumbDown","female","gesture-speech","1536","864","chrome","60.51","Windows 10","24","female","right","Sat Oct 12 2024 22:52:42 GMT+0200 (Mitteleuropäische Sommerzeit)","2","59","0","1728768019799"
"1080","f","SpeechGestureMatch","../RequiredFiles/videos/JaDaumenrunter_f.mp4","Ist der Ball in der grünen Box?","Blue","Green","F","negation","mismatch","gesture","yes","ThumbDown","female","gesture-speech","1536","864","chrome","60.51","Windows 10","24","female","right","Sat Oct 12 2024 22:52:49 GMT+0200 (Mitteleuropäische Sommerzeit)","2","60","0","1728768019799"
"3313","f","SpeechGestureMatch","../RequiredFiles/videos/JaDaumenhoch_f.mp4","Ist der Ball in der grünen Box?","Green","Blue","F","affirmation","match","gesture","yes","ThumbUp","female","gesture-speech","1536","864","chrome","60.51","Windows 10","24","female","right","Sat Oct 12 2024 22:52:58 GMT+0200 (Mitteleuropäische Sommerzeit)","2","61","0","1728768019799"
"2033","f","SpeechGestureMatch","../RequiredFiles/videos/NeinDaumenhoch_m.mp4","Ist der Ball in der grünen Box?","Green","Blue","F","affirmation","mismatch","gesture","no","ThumbUp","male","gesture-speech","1536","864","chrome","60.51","Windows 10","24","female","right","Sat Oct 12 2024 22:53:06 GMT+0200 (Mitteleuropäische Sommerzeit)","2","62","0","1728768019799"
"848","f","SpeechGestureMatch","../RequiredFiles/videos/NeinDaumenhoch_m_no_sound.mp4","Ist der Ball in der blauen Box?","Blue","Green","F","affirmation","na","gesture","na","ThumbUp","male","gesture-speech","1536","864","chrome","60.51","Windows 10","24","female","right","Sat Oct 12 2024 22:53:12 GMT+0200 (Mitteleuropäische Sommerzeit)","2","63","0","1728768019799"
"1050","j","SpeechGestureMatch","../RequiredFiles/videos/NeinDaumenrunter_f.mp4","Ist der Ball in der grünen Box?","Green","Blue","J","negation","match","gesture","no","ThumbDown","female","gesture-speech","1536","864","chrome","60.51","Windows 10","24","female","right","Sat Oct 12 2024 22:53:19 GMT+0200 (Mitteleuropäische Sommerzeit)","2","64","0","1728768019799"
"1186","j","SpeechGestureMatch","../RequiredFiles/videos/NeinDaumenrunter_m.mp4","Ist der Ball in der grünen Box?","Green","Blue","J","negation","match","gesture","no","ThumbDown","male","gesture-speech","1536","864","chrome","60.51","Windows 10","24","female","right","Sat Oct 12 2024 22:53:25 GMT+0200 (Mitteleuropäische Sommerzeit)","2","65","0","1728768019799"
"1349","f","SpeechGestureMatch","../RequiredFiles/videos/JaDaumenhoch_m.mp4","Ist der Ball in der blauen Box?","Blue","Green","F","affirmation","match","gesture","yes","ThumbUp","male","gesture-speech","1536","864","chrome","60.51","Windows 10","24","female","right","Sat Oct 12 2024 22:53:32 GMT+0200 (Mitteleuropäische Sommerzeit)","2","66","0","1728768019799"
"1962","j","SpeechGestureMatch","../RequiredFiles/videos/JaDaumenrunter_m_no_sound.mp4","Ist der Ball in der blauen Box?","Blue","Green","J","negation","na","gesture","na","ThumbDown","male","gesture-speech","1536","864","chrome","60.51","Windows 10","24","female","right","Sat Oct 12 2024 22:53:40 GMT+0200 (Mitteleuropäische Sommerzeit)","2","67","0","1728768019799"
"987","f","SpeechGestureMatch","../RequiredFiles/videos/NeinDaumenrunter_f_no_sound.mp4","Ist der Ball in der blauen Box?","Green","Blue","F","negation","na","gesture","na","ThumbDown","female","gesture-speech","1536","864","chrome","60.51","Windows 10","24","female","right","Sat Oct 12 2024 22:53:46 GMT+0200 (Mitteleuropäische Sommerzeit)","2","68","0","1728768019799"
"2534","j","SpeechGestureMatch","../RequiredFiles/videos/JaDaumenrunter_m.mp4","Ist der Ball in der grünen Box?","Green","Blue","J","negation","mismatch","gesture","yes","ThumbDown","male","gesture-speech","1536","864","chrome","60.51","Windows 10","24","female","right","Sat Oct 12 2024 22:53:54 GMT+0200 (Mitteleuropäische Sommerzeit)","2","69","0","1728768019799"
"969","f","SpeechGestureMatch","../RequiredFiles/videos/JaDaumenrunter_f_no_sound.mp4","Ist der Ball in der blauen Box?","Green","Blue","F","negation","na","gesture","na","ThumbDown","female","gesture-speech","1536","864","chrome","60.51","Windows 10","24","female","right","Sat Oct 12 2024 22:54:01 GMT+0200 (Mitteleuropäische Sommerzeit)","2","70","0","1728768019799"
"1414","f","SpeechGestureMatch","../RequiredFiles/videos/JaDaumenrunter_m.mp4","Ist der Ball in der grünen Box?","Blue","Green","F","negation","mismatch","gesture","yes","ThumbDown","male","gesture-speech","1536","864","chrome","60.51","Windows 10","24","female","right","Sat Oct 12 2024 22:54:08 GMT+0200 (Mitteleuropäische Sommerzeit)","2","71","0","1728768019799"
"1046","j","SpeechGestureMatch","../RequiredFiles/videos/NeinDaumenhoch_f_no_sound.mp4","Ist der Ball in der grünen Box?","Blue","Green","J","affirmation","na","gesture","na","ThumbUp","female","gesture-speech","1536","864","chrome","60.51","Windows 10","24","female","right","Sat Oct 12 2024 22:54:14 GMT+0200 (Mitteleuropäische Sommerzeit)","2","72","0","1728768019799"
"1122","f","SpeechGestureMatch","../RequiredFiles/videos/NeinDaumenrunter_m.mp4","Ist der Ball in der grünen Box?","Blue","Green","F","negation","match","gesture","no","ThumbDown","male","gesture-speech","1536","864","chrome","60.51","Windows 10","24","female","right","Sat Oct 12 2024 22:54:21 GMT+0200 (Mitteleuropäische Sommerzeit)","2","73","0","1728768019799"
"956","j","SpeechGestureMatch","../RequiredFiles/videos/JaDaumenhoch_m.mp4","Ist der Ball in der blauen Box?","Green","Blue","J","affirmation","match","gesture","yes","ThumbUp","male","gesture-speech","1536","864","chrome","60.51","Windows 10","24","female","right","Sat Oct 12 2024 22:54:28 GMT+0200 (Mitteleuropäische Sommerzeit)","2","74","0","1728768019799"
"946","f","SpeechGestureMatch","../RequiredFiles/videos/NeinDaumenrunter_m_no_sound.mp4","Ist der Ball in der blauen Box?","Green","Blue","F","negation","na","gesture","na","ThumbDown","male","gesture-speech","1536","864","chrome","60.51","Windows 10","24","female","right","Sat Oct 12 2024 22:54:34 GMT+0200 (Mitteleuropäische Sommerzeit)","2","75","0","1728768019799"
"2519","f","SpeechGestureMatch","../RequiredFiles/videos/NeinDaumenrunter_f_no_sound.mp4","Ist der Ball in der grünen Box?","Blue","Green","F","negation","na","gesture","na","ThumbDown","female","gesture-speech","1536","864","chrome","60.51","Windows 10","24","female","right","Sat Oct 12 2024 22:54:42 GMT+0200 (Mitteleuropäische Sommerzeit)","2","76","0","1728768019799"
"1875","j","SpeechGestureMatch","../RequiredFiles/videos/JaDaumenrunter_f.mp4","Ist der Ball in der blauen Box?","Blue","Green","J","negation","mismatch","gesture","yes","ThumbDown","female","gesture-speech","1536","864","chrome","60.51","Windows 10","24","female","right","Sat Oct 12 2024 22:54:50 GMT+0200 (Mitteleuropäische Sommerzeit)","2","77","0","1728768019799"
"971","j","SpeechGestureMatch","../RequiredFiles/videos/NeinDaumenhoch_m_no_sound.mp4","Ist der Ball in der blauen Box?","Green","Blue","J","affirmation","na","gesture","na","ThumbUp","male","gesture-speech","1536","864","chrome","60.51","Windows 10","24","female","right","Sat Oct 12 2024 22:54:56 GMT+0200 (Mitteleuropäische Sommerzeit)","2","78","0","1728768019799"
"1205","j","SpeechGestureMatch","../RequiredFiles/videos/JaDaumenrunter_m.mp4","Ist der Ball in der blauen Box?","Blue","Green","J","negation","mismatch","gesture","yes","ThumbDown","male","gesture-speech","1536","864","chrome","60.51","Windows 10","24","female","right","Sat Oct 12 2024 22:55:03 GMT+0200 (Mitteleuropäische Sommerzeit)","2","79","0","1728768019799"
"910","j","SpeechGestureMatch","../RequiredFiles/videos/NeinDaumenhoch_m.mp4","Ist der Ball in der blauen Box?","Green","Blue","J","affirmation","mismatch","gesture","no","ThumbUp","male","gesture-speech","1536","864","chrome","60.51","Windows 10","24","female","right","Sat Oct 12 2024 22:55:09 GMT+0200 (Mitteleuropäische Sommerzeit)","2","80","0","1728768019799"
"1099","j","SpeechGestureMatch","../RequiredFiles/videos/JaDaumenhoch_f.mp4","Ist der Ball in der grünen Box?","Blue","Green","J","affirmation","match","gesture","yes","ThumbUp","female","gesture-speech","1536","864","chrome","60.51","Windows 10","24","female","right","Sat Oct 12 2024 22:55:16 GMT+0200 (Mitteleuropäische Sommerzeit)","2","81","0","1728768019799"
"1990","j","SpeechGestureMatch","../RequiredFiles/videos/NeinDaumenhoch_m.mp4","Ist der Ball in der grünen Box?","Blue","Green","J","affirmation","mismatch","gesture","no","ThumbUp","male","gesture-speech","1536","864","chrome","60.51","Windows 10","24","female","right","Sat Oct 12 2024 22:55:23 GMT+0200 (Mitteleuropäische Sommerzeit)","2","82","0","1728768019799"
"917","f","SpeechGestureMatch","../RequiredFiles/videos/NeinDaumenhoch_f.mp4","Ist der Ball in der blauen Box?","Blue","Green","F","affirmation","mismatch","gesture","no","ThumbUp","female","gesture-speech","1536","864","chrome","60.51","Windows 10","24","female","right","Sat Oct 12 2024 22:55:30 GMT+0200 (Mitteleuropäische Sommerzeit)","2","83","0","1728768019799"
"1077","f","SpeechGestureMatch","../RequiredFiles/videos/JaDaumenrunter_m.mp4","Ist der Ball in der grünen Box?","Blue","Green","F","negation","mismatch","gesture","yes","ThumbDown","male","gesture-speech","1536","864","chrome","60.51","Windows 10","24","female","right","Sat Oct 12 2024 22:55:37 GMT+0200 (Mitteleuropäische Sommerzeit)","2","84","0","1728768019799"
"906","j","SpeechGestureMatch","../RequiredFiles/videos/NeinDaumenrunter_m.mp4","Ist der Ball in der blauen Box?","Blue","Green","J","negation","match","gesture","no","ThumbDown","male","gesture-speech","1536","864","chrome","60.51","Windows 10","24","female","right","Sat Oct 12 2024 22:55:43 GMT+0200 (Mitteleuropäische Sommerzeit)","2","85","0","1728768019799"
"896","j","SpeechGestureMatch","../RequiredFiles/videos/NeinDaumenrunter_m.mp4","Ist der Ball in der grünen Box?","Green","Blue","J","negation","match","gesture","no","ThumbDown","male","gesture-speech","1536","864","chrome","60.51","Windows 10","24","female","right","Sat Oct 12 2024 22:55:49 GMT+0200 (Mitteleuropäische Sommerzeit)","2","86","0","1728768019799"
"865","f","SpeechGestureMatch","../RequiredFiles/videos/JaDaumenhoch_f_no_sound.mp4","Ist der Ball in der blauen Box?","Blue","Green","F","affirmation","na","gesture","na","ThumbUp","female","gesture-speech","1536","864","chrome","60.51","Windows 10","24","female","right","Sat Oct 12 2024 22:55:56 GMT+0200 (Mitteleuropäische Sommerzeit)","2","87","0","1728768019799"
"1016","j","SpeechGestureMatch","../RequiredFiles/videos/JaDaumenrunter_f.mp4","Ist der Ball in der grünen Box?","Green","Blue","J","negation","mismatch","gesture","yes","ThumbDown","female","gesture-speech","1536","864","chrome","60.51","Windows 10","24","female","right","Sat Oct 12 2024 22:56:02 GMT+0200 (Mitteleuropäische Sommerzeit)","2","88","0","1728768019799"
"984","f","SpeechGestureMatch","../RequiredFiles/videos/NeinDaumenhoch_m_no_sound.mp4","Ist der Ball in der grünen Box?","Green","Blue","F","affirmation","na","gesture","na","ThumbUp","male","gesture-speech","1536","864","chrome","60.51","Windows 10","24","female","right","Sat Oct 12 2024 22:56:09 GMT+0200 (Mitteleuropäische Sommerzeit)","2","89","0","1728768019799"
"1632","f","SpeechGestureMatch","../RequiredFiles/videos/JaDaumenrunter_f_no_sound.mp4","Ist der Ball in der grünen Box?","Blue","Green","F","negation","na","gesture","na","ThumbDown","female","gesture-speech","1536","864","chrome","60.51","Windows 10","24","female","right","Sat Oct 12 2024 22:56:16 GMT+0200 (Mitteleuropäische Sommerzeit)","2","90","0","1728768019799"
"959","f","SpeechGestureMatch","../RequiredFiles/videos/NeinDaumenrunter_f.mp4","Ist der Ball in der blauen Box?","Green","Blue","F","negation","match","gesture","no","ThumbDown","female","gesture-speech","1536","864","chrome","60.51","Windows 10","24","female","right","Sat Oct 12 2024 22:56:23 GMT+0200 (Mitteleuropäische Sommerzeit)","2","91","0","1728768019799"
"980","f","SpeechGestureMatch","../RequiredFiles/videos/NeinDaumenrunter_m.mp4","Ist der Ball in der blauen Box?","Green","Blue","F","negation","match","gesture","no","ThumbDown","male","gesture-speech","1536","864","chrome","60.51","Windows 10","24","female","right","Sat Oct 12 2024 22:56:29 GMT+0200 (Mitteleuropäische Sommerzeit)","2","92","0","1728768019799"
"1023","f","SpeechGestureMatch","../RequiredFiles/videos/JaDaumenhoch_f_no_sound.mp4","Ist der Ball in der grünen Box?","Green","Blue","F","affirmation","na","gesture","na","ThumbUp","female","gesture-speech","1536","864","chrome","60.51","Windows 10","24","female","right","Sat Oct 12 2024 22:56:36 GMT+0200 (Mitteleuropäische Sommerzeit)","2","93","0","1728768019799"
"1004","j","SpeechGestureMatch","../RequiredFiles/videos/JaDaumenrunter_f.mp4","Ist der Ball in der grünen Box?","Green","Blue","J","negation","mismatch","gesture","yes","ThumbDown","female","gesture-speech","1536","864","chrome","60.51","Windows 10","24","female","right","Sat Oct 12 2024 22:56:42 GMT+0200 (Mitteleuropäische Sommerzeit)","2","94","0","1728768019799"
"939","f","SpeechGestureMatch","../RequiredFiles/videos/NeinDaumenhoch_m.mp4","Ist der Ball in der blauen Box?","Blue","Green","F","affirmation","mismatch","gesture","no","ThumbUp","male","gesture-speech","1536","864","chrome","60.51","Windows 10","24","female","right","Sat Oct 12 2024 22:56:49 GMT+0200 (Mitteleuropäische Sommerzeit)","2","95","0","1728768019799"
"1336","j","SpeechGestureMatch","../RequiredFiles/videos/NeinDaumenhoch_f.mp4","Ist der Ball in der grünen Box?","Blue","Green","J","affirmation","mismatch","gesture","no","ThumbUp","female","gesture-speech","1536","864","chrome","60.51","Windows 10","24","female","right","Sat Oct 12 2024 22:56:56 GMT+0200 (Mitteleuropäische Sommerzeit)","2","96","0","1728768019799"
"1056","j","SpeechGestureMatch","../RequiredFiles/videos/JaDaumenhoch_f.mp4","Ist der Ball in der blauen Box?","Green","Blue","J","affirmation","match","speech","yes","ThumbUp","female","gesture-speech","1536","864","chrome","60.51","Windows 10","24","female","right","Sat Oct 12 2024 22:58:45 GMT+0200 (Mitteleuropäische Sommerzeit)","3","1","0","1728768019799"
"934","j","SpeechGestureMatch","../RequiredFiles/videos/JaDaumenhoch_m_no_gesture.mp4","Ist der Ball in der grünen Box?","Blue","Green","J","affirmation","na","speech","yes","na","male","gesture-speech","1536","864","chrome","60.51","Windows 10","24","female","right","Sat Oct 12 2024 22:58:51 GMT+0200 (Mitteleuropäische Sommerzeit)","3","2","0","1728768019799"
"1434","f","SpeechGestureMatch","../RequiredFiles/videos/NeinDaumenhoch_f.mp4","Ist der Ball in der blauen Box?","Green","Blue","F","negation","mismatch","speech","no","ThumbUp","female","gesture-speech","1536","864","chrome","60.51","Windows 10","24","female","right","Sat Oct 12 2024 22:58:58 GMT+0200 (Mitteleuropäische Sommerzeit)","3","3","0","1728768019799"
"1009","f","SpeechGestureMatch","../RequiredFiles/videos/NeinDaumenrunter_m_no_gesture.mp4","Ist der Ball in der blauen Box?","Blue","Green","J","negation","na","speech","no","na","male","gesture-speech","1536","864","chrome","60.51","Windows 10","24","female","right","Sat Oct 12 2024 22:59:05 GMT+0200 (Mitteleuropäische Sommerzeit)","3","4","1","1728768019799"
"1085","f","SpeechGestureMatch","../RequiredFiles/videos/NeinDaumenrunter_m.mp4","Ist der Ball in der grünen Box?","Green","Blue","J","negation","match","speech","no","ThumbDown","male","gesture-speech","1536","864","chrome","60.51","Windows 10","24","female","right","Sat Oct 12 2024 22:59:11 GMT+0200 (Mitteleuropäische Sommerzeit)","3","5","1","1728768019799"
"905","j","SpeechGestureMatch","../RequiredFiles/videos/JaDaumenrunter_f.mp4","Ist der Ball in der grünen Box?","Blue","Green","J","affirmation","mismatch","speech","yes","ThumbDown","female","gesture-speech","1536","864","chrome","60.51","Windows 10","24","female","right","Sat Oct 12 2024 22:59:18 GMT+0200 (Mitteleuropäische Sommerzeit)","3","6","0","1728768019799"
"1027","j","SpeechGestureMatch","../RequiredFiles/videos/JaDaumenrunter_f_no_gesture.mp4","Ist der Ball in der blauen Box?","Green","Blue","J","affirmation","na","speech","yes","na","female","gesture-speech","1536","864","chrome","60.51","Windows 10","24","female","right","Sat Oct 12 2024 22:59:24 GMT+0200 (Mitteleuropäische Sommerzeit)","3","7","0","1728768019799"
"1014","j","SpeechGestureMatch","../RequiredFiles/videos/JaDaumenrunter_m_no_gesture.mp4","Ist der Ball in der grünen Box?","Blue","Green","J","affirmation","na","speech","yes","na","male","gesture-speech","1536","864","chrome","60.51","Windows 10","24","female","right","Sat Oct 12 2024 22:59:31 GMT+0200 (Mitteleuropäische Sommerzeit)","3","8","0","1728768019799"
"1108","f","SpeechGestureMatch","../RequiredFiles/videos/NeinDaumenhoch_m.mp4","Ist der Ball in der grünen Box?","Blue","Green","F","negation","mismatch","speech","no","ThumbUp","male","gesture-speech","1536","864","chrome","60.51","Windows 10","24","female","right","Sat Oct 12 2024 22:59:38 GMT+0200 (Mitteleuropäische Sommerzeit)","3","9","0","1728768019799"
"1207","f","SpeechGestureMatch","../RequiredFiles/videos/NeinDaumenhoch_m.mp4","Ist der Ball in der blauen Box?","Green","Blue","F","negation","mismatch","speech","no","ThumbUp","male","gesture-speech","1536","864","chrome","60.51","Windows 10","24","female","right","Sat Oct 12 2024 22:59:44 GMT+0200 (Mitteleuropäische Sommerzeit)","3","10","0","1728768019799"
"1406","f","SpeechGestureMatch","../RequiredFiles/videos/NeinDaumenrunter_f.mp4","Ist der Ball in der grünen Box?","Blue","Green","F","negation","match","speech","no","ThumbDown","female","gesture-speech","1536","864","chrome","60.51","Windows 10","24","female","right","Sat Oct 12 2024 22:59:51 GMT+0200 (Mitteleuropäische Sommerzeit)","3","11","0","1728768019799"
"2358","j","SpeechGestureMatch","../RequiredFiles/videos/NeinDaumenrunter_m_no_gesture.mp4","Ist der Ball in der grünen Box?","Green","Blue","J","negation","na","speech","no","na","male","gesture-speech","1536","864","chrome","60.51","Windows 10","24","female","right","Sat Oct 12 2024 22:59:59 GMT+0200 (Mitteleuropäische Sommerzeit)","3","12","0","1728768019799"
"1911","j","SpeechGestureMatch","../RequiredFiles/videos/JaDaumenrunter_f.mp4","Ist der Ball in der blauen Box?","Blue","Green","F","affirmation","mismatch","speech","yes","ThumbDown","female","gesture-speech","1536","864","chrome","60.51","Windows 10","24","female","right","Sat Oct 12 2024 23:00:07 GMT+0200 (Mitteleuropäische Sommerzeit)","3","13","1","1728768019799"
"853","j","SpeechGestureMatch","../RequiredFiles/videos/JaDaumenhoch_f.mp4","Ist der Ball in der grünen Box?","Blue","Green","J","affirmation","match","speech","yes","ThumbUp","female","gesture-speech","1536","864","chrome","60.51","Windows 10","24","female","right","Sat Oct 12 2024 23:00:13 GMT+0200 (Mitteleuropäische Sommerzeit)","3","14","0","1728768019799"
"894","j","SpeechGestureMatch","../RequiredFiles/videos/NeinDaumenrunter_m.mp4","Ist der Ball in der blauen Box?","Blue","Green","J","negation","match","speech","no","ThumbDown","male","gesture-speech","1536","864","chrome","60.51","Windows 10","24","female","right","Sat Oct 12 2024 23:00:20 GMT+0200 (Mitteleuropäische Sommerzeit)","3","15","0","1728768019799"
"1018","f","SpeechGestureMatch","../RequiredFiles/videos/JaDaumenhoch_f.mp4","Ist der Ball in der blauen Box?","Blue","Green","F","affirmation","match","speech","yes","ThumbUp","female","gesture-speech","1536","864","chrome","60.51","Windows 10","24","female","right","Sat Oct 12 2024 23:00:26 GMT+0200 (Mitteleuropäische Sommerzeit)","3","16","0","1728768019799"
"1508","j","SpeechGestureMatch","../RequiredFiles/videos/NeinDaumenhoch_f_no_gesture.mp4","Ist der Ball in der grünen Box?","Green","Blue","J","negation","na","speech","no","na","female","gesture-speech","1536","864","chrome","60.51","Windows 10","24","female","right","Sat Oct 12 2024 23:00:33 GMT+0200 (Mitteleuropäische Sommerzeit)","3","17","0","1728768019799"
"1208","j","SpeechGestureMatch","../RequiredFiles/videos/NeinDaumenhoch_f_no_gesture.mp4","Ist der Ball in der blauen Box?","Blue","Green","J","negation","na","speech","no","na","female","gesture-speech","1536","864","chrome","60.51","Windows 10","24","female","right","Sat Oct 12 2024 23:00:40 GMT+0200 (Mitteleuropäische Sommerzeit)","3","18","0","1728768019799"
"1094","j","SpeechGestureMatch","../RequiredFiles/videos/JaDaumenhoch_m.mp4","Ist der Ball in der blauen Box?","Green","Blue","J","affirmation","match","speech","yes","ThumbUp","male","gesture-speech","1536","864","chrome","60.51","Windows 10","24","female","right","Sat Oct 12 2024 23:00:47 GMT+0200 (Mitteleuropäische Sommerzeit)","3","19","0","1728768019799"
"851","f","SpeechGestureMatch","../RequiredFiles/videos/NeinDaumenhoch_m.mp4","Ist der Ball in der blauen Box?","Green","Blue","F","negation","mismatch","speech","no","ThumbUp","male","gesture-speech","1536","864","chrome","60.51","Windows 10","24","female","right","Sat Oct 12 2024 23:00:53 GMT+0200 (Mitteleuropäische Sommerzeit)","3","20","0","1728768019799"
"881","j","SpeechGestureMatch","../RequiredFiles/videos/JaDaumenrunter_m_no_gesture.mp4","Ist der Ball in der blauen Box?","Green","Blue","J","affirmation","na","speech","yes","na","male","gesture-speech","1536","864","chrome","60.51","Windows 10","24","female","right","Sat Oct 12 2024 23:01:00 GMT+0200 (Mitteleuropäische Sommerzeit)","3","21","0","1728768019799"
"966","j","SpeechGestureMatch","../RequiredFiles/videos/NeinDaumenrunter_m.mp4","Ist der Ball in der grünen Box?","Green","Blue","J","negation","match","speech","no","ThumbDown","male","gesture-speech","1536","864","chrome","60.51","Windows 10","24","female","right","Sat Oct 12 2024 23:01:06 GMT+0200 (Mitteleuropäische Sommerzeit)","3","22","0","1728768019799"
"971","j","SpeechGestureMatch","../RequiredFiles/videos/NeinDaumenrunter_f.mp4","Ist der Ball in der grünen Box?","Green","Blue","J","negation","match","speech","no","ThumbDown","female","gesture-speech","1536","864","chrome","60.51","Windows 10","24","female","right","Sat Oct 12 2024 23:01:13 GMT+0200 (Mitteleuropäische Sommerzeit)","3","23","0","1728768019799"
"789","f","SpeechGestureMatch","../RequiredFiles/videos/JaDaumenrunter_m.mp4","Ist der Ball in der blauen Box?","Blue","Green","F","affirmation","mismatch","speech","yes","ThumbDown","male","gesture-speech","1536","864","chrome","60.51","Windows 10","24","female","right","Sat Oct 12 2024 23:01:19 GMT+0200 (Mitteleuropäische Sommerzeit)","3","24","0","1728768019799"
"858","j","SpeechGestureMatch","../RequiredFiles/videos/JaDaumenrunter_f.mp4","Ist der Ball in der blauen Box?","Green","Blue","J","affirmation","mismatch","speech","yes","ThumbDown","female","gesture-speech","1536","864","chrome","60.51","Windows 10","24","female","right","Sat Oct 12 2024 23:01:25 GMT+0200 (Mitteleuropäische Sommerzeit)","3","25","0","1728768019799"
"893","f","SpeechGestureMatch","../RequiredFiles/videos/JaDaumenhoch_m_no_gesture.mp4","Ist der Ball in der blauen Box?","Blue","Green","F","affirmation","na","speech","yes","na","male","gesture-speech","1536","864","chrome","60.51","Windows 10","24","female","right","Sat Oct 12 2024 23:01:32 GMT+0200 (Mitteleuropäische Sommerzeit)","3","26","0","1728768019799"
"1105","j","SpeechGestureMatch","../RequiredFiles/videos/JaDaumenrunter_f.mp4","Ist der Ball in der blauen Box?","Green","Blue","J","affirmation","mismatch","speech","yes","ThumbDown","female","gesture-speech","1536","864","chrome","60.51","Windows 10","24","female","right","Sat Oct 12 2024 23:01:39 GMT+0200 (Mitteleuropäische Sommerzeit)","3","27","0","1728768019799"
"778","f","SpeechGestureMatch","../RequiredFiles/videos/NeinDaumenrunter_m.mp4","Ist der Ball in der blauen Box?","Green","Blue","F","negation","match","speech","no","ThumbDown","male","gesture-speech","1536","864","chrome","60.51","Windows 10","24","female","right","Sat Oct 12 2024 23:01:45 GMT+0200 (Mitteleuropäische Sommerzeit)","3","28","0","1728768019799"
"954","j","SpeechGestureMatch","../RequiredFiles/videos/JaDaumenhoch_m_no_gesture.mp4","Ist der Ball in der blauen Box?","Green","Blue","J","affirmation","na","speech","yes","na","male","gesture-speech","1536","864","chrome","60.51","Windows 10","24","female","right","Sat Oct 12 2024 23:01:51 GMT+0200 (Mitteleuropäische Sommerzeit)","3","29","0","1728768019799"
"879","j","SpeechGestureMatch","../RequiredFiles/videos/JaDaumenhoch_m.mp4","Ist der Ball in der grünen Box?","Blue","Green","J","affirmation","match","speech","yes","ThumbUp","male","gesture-speech","1536","864","chrome","60.51","Windows 10","24","female","right","Sat Oct 12 2024 23:01:58 GMT+0200 (Mitteleuropäische Sommerzeit)","3","30","0","1728768019799"
"1001","f","SpeechGestureMatch","../RequiredFiles/videos/JaDaumenhoch_m.mp4","Ist der Ball in der blauen Box?","Blue","Green","F","affirmation","match","speech","yes","ThumbUp","male","gesture-speech","1536","864","chrome","60.51","Windows 10","24","female","right","Sat Oct 12 2024 23:02:04 GMT+0200 (Mitteleuropäische Sommerzeit)","3","31","0","1728768019799"
"996","j","SpeechGestureMatch","../RequiredFiles/videos/JaDaumenrunter_f.mp4","Ist der Ball in der grünen Box?","Blue","Green","J","affirmation","mismatch","speech","yes","ThumbDown","female","gesture-speech","1536","864","chrome","60.51","Windows 10","24","female","right","Sat Oct 12 2024 23:02:11 GMT+0200 (Mitteleuropäische Sommerzeit)","3","32","0","1728768019799"
"902","f","SpeechGestureMatch","../RequiredFiles/videos/NeinDaumenrunter_m_no_gesture.mp4","Ist der Ball in der grünen Box?","Blue","Green","F","negation","na","speech","no","na","male","gesture-speech","1536","864","chrome","60.51","Windows 10","24","female","right","Sat Oct 12 2024 23:02:17 GMT+0200 (Mitteleuropäische Sommerzeit)","3","33","0","1728768019799"
"908","j","SpeechGestureMatch","../RequiredFiles/videos/JaDaumenrunter_f_no_gesture.mp4","Ist der Ball in der grünen Box?","Blue","Green","J","affirmation","na","speech","yes","na","female","gesture-speech","1536","864","chrome","60.51","Windows 10","24","female","right","Sat Oct 12 2024 23:02:24 GMT+0200 (Mitteleuropäische Sommerzeit)","3","34","0","1728768019799"
"763","j","SpeechGestureMatch","../RequiredFiles/videos/NeinDaumenrunter_m.mp4","Ist der Ball in der blauen Box?","Blue","Green","J","negation","match","speech","no","ThumbDown","male","gesture-speech","1536","864","chrome","60.51","Windows 10","24","female","right","Sat Oct 12 2024 23:02:30 GMT+0200 (Mitteleuropäische Sommerzeit)","3","35","0","1728768019799"
"941","j","SpeechGestureMatch","../RequiredFiles/videos/NeinDaumenrunter_f.mp4","Ist der Ball in der blauen Box?","Blue","Green","J","negation","match","speech","no","ThumbDown","female","gesture-speech","1536","864","chrome","60.51","Windows 10","24","female","right","Sat Oct 12 2024 23:02:37 GMT+0200 (Mitteleuropäische Sommerzeit)","3","36","0","1728768019799"
"879","f","SpeechGestureMatch","../RequiredFiles/videos/JaDaumenrunter_f.mp4","Ist der Ball in der grünen Box?","Green","Blue","F","affirmation","mismatch","speech","yes","ThumbDown","female","gesture-speech","1536","864","chrome","60.51","Windows 10","24","female","right","Sat Oct 12 2024 23:02:43 GMT+0200 (Mitteleuropäische Sommerzeit)","3","37","0","1728768019799"
"747","f","SpeechGestureMatch","../RequiredFiles/videos/JaDaumenhoch_m_no_gesture.mp4","Ist der Ball in der grünen Box?","Green","Blue","F","affirmation","na","speech","yes","na","male","gesture-speech","1536","864","chrome","60.51","Windows 10","24","female","right","Sat Oct 12 2024 23:02:50 GMT+0200 (Mitteleuropäische Sommerzeit)","3","38","0","1728768019799"
"720","f","SpeechGestureMatch","../RequiredFiles/videos/JaDaumenhoch_m.mp4","Ist der Ball in der grünen Box?","Green","Blue","F","affirmation","match","speech","yes","ThumbUp","male","gesture-speech","1536","864","chrome","60.51","Windows 10","24","female","right","Sat Oct 12 2024 23:02:56 GMT+0200 (Mitteleuropäische Sommerzeit)","3","39","0","1728768019799"
"819","f","SpeechGestureMatch","../RequiredFiles/videos/NeinDaumenhoch_m.mp4","Ist der Ball in der grünen Box?","Blue","Green","F","negation","mismatch","speech","no","ThumbUp","male","gesture-speech","1536","864","chrome","60.51","Windows 10","24","female","right","Sat Oct 12 2024 23:03:02 GMT+0200 (Mitteleuropäische Sommerzeit)","3","40","0","1728768019799"
"988","j","SpeechGestureMatch","../RequiredFiles/videos/JaDaumenrunter_m.mp4","Ist der Ball in der grünen Box?","Blue","Green","J","affirmation","mismatch","speech","yes","ThumbDown","male","gesture-speech","1536","864","chrome","60.51","Windows 10","24","female","right","Sat Oct 12 2024 23:03:09 GMT+0200 (Mitteleuropäische Sommerzeit)","3","41","0","1728768019799"
"817","f","SpeechGestureMatch","../RequiredFiles/videos/NeinDaumenhoch_f_no_gesture.mp4","Ist der Ball in der blauen Box?","Green","Blue","F","negation","na","speech","no","na","female","gesture-speech","1536","864","chrome","60.51","Windows 10","24","female","right","Sat Oct 12 2024 23:03:15 GMT+0200 (Mitteleuropäische Sommerzeit)","3","42","0","1728768019799"
"852","j","SpeechGestureMatch","../RequiredFiles/videos/NeinDaumenhoch_f.mp4","Ist der Ball in der grünen Box?","Green","Blue","J","negation","mismatch","speech","no","ThumbUp","female","gesture-speech","1536","864","chrome","60.51","Windows 10","24","female","right","Sat Oct 12 2024 23:03:22 GMT+0200 (Mitteleuropäische Sommerzeit)","3","43","0","1728768019799"
"752","j","SpeechGestureMatch","../RequiredFiles/videos/NeinDaumenhoch_f.mp4","Ist der Ball in der blauen Box?","Blue","Green","J","negation","mismatch","speech","no","ThumbUp","female","gesture-speech","1536","864","chrome","60.51","Windows 10","24","female","right","Sat Oct 12 2024 23:03:28 GMT+0200 (Mitteleuropäische Sommerzeit)","3","44","0","1728768019799"
"827","f","SpeechGestureMatch","../RequiredFiles/videos/NeinDaumenrunter_m.mp4","Ist der Ball in der grünen Box?","Blue","Green","F","negation","match","speech","no","ThumbDown","male","gesture-speech","1536","864","chrome","60.51","Windows 10","24","female","right","Sat Oct 12 2024 23:03:34 GMT+0200 (Mitteleuropäische Sommerzeit)","3","45","0","1728768019799"
"823","f","SpeechGestureMatch","../RequiredFiles/videos/JaDaumenhoch_f_no_gesture.mp4","Ist der Ball in der blauen Box?","Blue","Green","F","affirmation","na","speech","yes","na","female","gesture-speech","1536","864","chrome","60.51","Windows 10","24","female","right","Sat Oct 12 2024 23:03:41 GMT+0200 (Mitteleuropäische Sommerzeit)","3","46","0","1728768019799"
"758","f","SpeechGestureMatch","../RequiredFiles/videos/NeinDaumenrunter_m.mp4","Ist der Ball in der grünen Box?","Blue","Green","F","negation","match","speech","no","ThumbDown","male","gesture-speech","1536","864","chrome","60.51","Windows 10","24","female","right","Sat Oct 12 2024 23:03:47 GMT+0200 (Mitteleuropäische Sommerzeit)","3","47","0","1728768019799"
"1135","j","SpeechGestureMatch","../RequiredFiles/videos/NeinDaumenrunter_f.mp4","Ist der Ball in der grünen Box?","Green","Blue","J","negation","match","speech","no","ThumbDown","female","gesture-speech","1536","864","chrome","60.51","Windows 10","24","female","right","Sat Oct 12 2024 23:03:54 GMT+0200 (Mitteleuropäische Sommerzeit)","3","48","0","1728768019799"
"751","f","SpeechGestureMatch","../RequiredFiles/videos/JaDaumenrunter_f_no_gesture.mp4","Ist der Ball in der blauen Box?","Blue","Green","F","affirmation","na","speech","yes","na","female","gesture-speech","1536","864","chrome","60.51","Windows 10","24","female","right","Sat Oct 12 2024 23:04:00 GMT+0200 (Mitteleuropäische Sommerzeit)","3","49","0","1728768019799"
"772","f","SpeechGestureMatch","../RequiredFiles/videos/NeinDaumenrunter_f.mp4","Ist der Ball in der blauen Box?","Green","Blue","F","negation","match","speech","no","ThumbDown","female","gesture-speech","1536","864","chrome","60.51","Windows 10","24","female","right","Sat Oct 12 2024 23:04:06 GMT+0200 (Mitteleuropäische Sommerzeit)","3","50","0","1728768019799"
"977","f","SpeechGestureMatch","../RequiredFiles/videos/JaDaumenrunter_f_no_gesture.mp4","Ist der Ball in der grünen Box?","Green","Blue","F","affirmation","na","speech","yes","na","female","gesture-speech","1536","864","chrome","60.51","Windows 10","24","female","right","Sat Oct 12 2024 23:04:13 GMT+0200 (Mitteleuropäische Sommerzeit)","3","51","0","1728768019799"
"902","j","SpeechGestureMatch","../RequiredFiles/videos/JaDaumenhoch_m.mp4","Ist der Ball in der grünen Box?","Blue","Green","J","affirmation","match","speech","yes","ThumbUp","male","gesture-speech","1536","864","chrome","60.51","Windows 10","24","female","right","Sat Oct 12 2024 23:04:19 GMT+0200 (Mitteleuropäische Sommerzeit)","3","52","0","1728768019799"
"901","j","SpeechGestureMatch","../RequiredFiles/videos/NeinDaumenrunter_f_no_gesture.mp4","Ist der Ball in der grünen Box?","Green","Blue","J","negation","na","speech","no","na","female","gesture-speech","1536","864","chrome","60.51","Windows 10","24","female","right","Sat Oct 12 2024 23:04:26 GMT+0200 (Mitteleuropäische Sommerzeit)","3","53","0","1728768019799"
"1412","f","SpeechGestureMatch","../RequiredFiles/videos/NeinDaumenrunter_f_no_gesture.mp4","Ist der Ball in der grünen Box?","Blue","Green","F","negation","na","speech","no","na","female","gesture-speech","1536","864","chrome","60.51","Windows 10","24","female","right","Sat Oct 12 2024 23:04:33 GMT+0200 (Mitteleuropäische Sommerzeit)","3","54","0","1728768019799"
"831","f","SpeechGestureMatch","../RequiredFiles/videos/NeinDaumenhoch_f_no_gesture.mp4","Ist der Ball in der grünen Box?","Blue","Green","F","negation","na","speech","no","na","female","gesture-speech","1536","864","chrome","60.51","Windows 10","24","female","right","Sat Oct 12 2024 23:04:39 GMT+0200 (Mitteleuropäische Sommerzeit)","3","55","0","1728768019799"
"842","j","SpeechGestureMatch","../RequiredFiles/videos/JaDaumenhoch_m.mp4","Ist der Ball in der grünen Box?","Green","Blue","F","affirmation","match","speech","yes","ThumbUp","male","gesture-speech","1536","864","chrome","60.51","Windows 10","24","female","right","Sat Oct 12 2024 23:04:46 GMT+0200 (Mitteleuropäische Sommerzeit)","3","56","1","1728768019799"
"1302","f","SpeechGestureMatch","../RequiredFiles/videos/NeinDaumenhoch_m_no_gesture.mp4","Ist der Ball in der grünen Box?","Blue","Green","F","negation","na","speech","no","na","male","gesture-speech","1536","864","chrome","60.51","Windows 10","24","female","right","Sat Oct 12 2024 23:04:53 GMT+0200 (Mitteleuropäische Sommerzeit)","3","57","0","1728768019799"
"880","j","SpeechGestureMatch","../RequiredFiles/videos/JaDaumenhoch_f_no_gesture.mp4","Ist der Ball in der grünen Box?","Blue","Green","J","affirmation","na","speech","yes","na","female","gesture-speech","1536","864","chrome","60.51","Windows 10","24","female","right","Sat Oct 12 2024 23:04:59 GMT+0200 (Mitteleuropäische Sommerzeit)","3","58","0","1728768019799"
"1064","f","SpeechGestureMatch","../RequiredFiles/videos/JaDaumenrunter_m.mp4","Ist der Ball in der grünen Box?","Green","Blue","F","affirmation","mismatch","speech","yes","ThumbDown","male","gesture-speech","1536","864","chrome","60.51","Windows 10","24","female","right","Sat Oct 12 2024 23:05:06 GMT+0200 (Mitteleuropäische Sommerzeit)","3","59","0","1728768019799"
"800","j","SpeechGestureMatch","../RequiredFiles/videos/NeinDaumenhoch_m_no_gesture.mp4","Ist der Ball in der grünen Box?","Green","Blue","J","negation","na","speech","no","na","male","gesture-speech","1536","864","chrome","60.51","Windows 10","24","female","right","Sat Oct 12 2024 23:05:12 GMT+0200 (Mitteleuropäische Sommerzeit)","3","60","0","1728768019799"
"815","j","SpeechGestureMatch","../RequiredFiles/videos/JaDaumenhoch_f.mp4","Ist der Ball in der grünen Box?","Blue","Green","J","affirmation","match","speech","yes","ThumbUp","female","gesture-speech","1536","864","chrome","60.51","Windows 10","24","female","right","Sat Oct 12 2024 23:05:18 GMT+0200 (Mitteleuropäische Sommerzeit)","3","61","0","1728768019799"
"961","f","SpeechGestureMatch","../RequiredFiles/videos/NeinDaumenrunter_f.mp4","Ist der Ball in der grünen Box?","Blue","Green","F","negation","match","speech","no","ThumbDown","female","gesture-speech","1536","864","chrome","60.51","Windows 10","24","female","right","Sat Oct 12 2024 23:05:25 GMT+0200 (Mitteleuropäische Sommerzeit)","3","62","0","1728768019799"
"729","j","SpeechGestureMatch","../RequiredFiles/videos/JaDaumenrunter_m.mp4","Ist der Ball in der blauen Box?","Green","Blue","J","affirmation","mismatch","speech","yes","ThumbDown","male","gesture-speech","1536","864","chrome","60.51","Windows 10","24","female","right","Sat Oct 12 2024 23:05:31 GMT+0200 (Mitteleuropäische Sommerzeit)","3","63","0","1728768019799"
"1037","j","SpeechGestureMatch","../RequiredFiles/videos/JaDaumenrunter_m.mp4","Ist der Ball in der grünen Box?","Blue","Green","J","affirmation","mismatch","speech","yes","ThumbDown","male","gesture-speech","1536","864","chrome","60.51","Windows 10","24","female","right","Sat Oct 12 2024 23:05:38 GMT+0200 (Mitteleuropäische Sommerzeit)","3","64","0","1728768019799"
"837","f","SpeechGestureMatch","../RequiredFiles/videos/JaDaumenhoch_f.mp4","Ist der Ball in der grünen Box?","Green","Blue","F","affirmation","match","speech","yes","ThumbUp","female","gesture-speech","1536","864","chrome","60.51","Windows 10","24","female","right","Sat Oct 12 2024 23:05:44 GMT+0200 (Mitteleuropäische Sommerzeit)","3","65","0","1728768019799"
"774","j","SpeechGestureMatch","../RequiredFiles/videos/NeinDaumenhoch_m.mp4","Ist der Ball in der blauen Box?","Blue","Green","J","negation","mismatch","speech","no","ThumbUp","male","gesture-speech","1536","864","chrome","60.51","Windows 10","24","female","right","Sat Oct 12 2024 23:05:51 GMT+0200 (Mitteleuropäische Sommerzeit)","3","66","0","1728768019799"
"822","f","SpeechGestureMatch","../RequiredFiles/videos/JaDaumenhoch_f_no_gesture.mp4","Ist der Ball in der grünen Box?","Green","Blue","F","affirmation","na","speech","yes","na","female","gesture-speech","1536","864","chrome","60.51","Windows 10","24","female","right","Sat Oct 12 2024 23:05:57 GMT+0200 (Mitteleuropäische Sommerzeit)","3","67","0","1728768019799"
"756","j","SpeechGestureMatch","../RequiredFiles/videos/NeinDaumenhoch_m.mp4","Ist der Ball in der grünen Box?","Green","Blue","J","negation","mismatch","speech","no","ThumbUp","male","gesture-speech","1536","864","chrome","60.51","Windows 10","24","female","right","Sat Oct 12 2024 23:06:03 GMT+0200 (Mitteleuropäische Sommerzeit)","3","68","0","1728768019799"
"826","f","SpeechGestureMatch","../RequiredFiles/videos/JaDaumenrunter_m.mp4","Ist der Ball in der blauen Box?","Blue","Green","F","affirmation","mismatch","speech","yes","ThumbDown","male","gesture-speech","1536","864","chrome","60.51","Windows 10","24","female","right","Sat Oct 12 2024 23:06:10 GMT+0200 (Mitteleuropäische Sommerzeit)","3","69","0","1728768019799"
"789","j","SpeechGestureMatch","../RequiredFiles/videos/NeinDaumenrunter_f_no_gesture.mp4","Ist der Ball in der blauen Box?","Blue","Green","J","negation","na","speech","no","na","female","gesture-speech","1536","864","chrome","60.51","Windows 10","24","female","right","Sat Oct 12 2024 23:06:16 GMT+0200 (Mitteleuropäische Sommerzeit)","3","70","0","1728768019799"
"904","f","SpeechGestureMatch","../RequiredFiles/videos/JaDaumenhoch_m.mp4","Ist der Ball in der blauen Box?","Blue","Green","F","affirmation","match","speech","yes","ThumbUp","male","gesture-speech","1536","864","chrome","60.51","Windows 10","24","female","right","Sat Oct 12 2024 23:06:23 GMT+0200 (Mitteleuropäische Sommerzeit)","3","71","0","1728768019799"
"2546","f","SpeechGestureMatch","../RequiredFiles/videos/JaDaumenrunter_m_no_gesture.mp4","Ist der Ball in der grünen Box?","Green","Blue","F","affirmation","na","speech","yes","na","male","gesture-speech","1536","864","chrome","60.51","Windows 10","24","female","right","Sat Oct 12 2024 23:06:31 GMT+0200 (Mitteleuropäische Sommerzeit)","3","72","0","1728768019799"
"2826","j","SpeechGestureMatch","../RequiredFiles/videos/JaDaumenrunter_m.mp4","Ist der Ball in der blauen Box?","Green","Blue","J","affirmation","mismatch","speech","yes","ThumbDown","male","gesture-speech","1536","864","chrome","60.51","Windows 10","24","female","right","Sat Oct 12 2024 23:06:39 GMT+0200 (Mitteleuropäische Sommerzeit)","3","73","0","1728768019799"
"1012","f","SpeechGestureMatch","../RequiredFiles/videos/JaDaumenhoch_f.mp4","Ist der Ball in der blauen Box?","Blue","Green","F","affirmation","match","speech","yes","ThumbUp","female","gesture-speech","1536","864","chrome","60.51","Windows 10","24","female","right","Sat Oct 12 2024 23:06:46 GMT+0200 (Mitteleuropäische Sommerzeit)","3","74","0","1728768019799"
"1652","j","SpeechGestureMatch","../RequiredFiles/videos/JaDaumenhoch_m.mp4","Ist der Ball in der blauen Box?","Green","Blue","J","affirmation","match","speech","yes","ThumbUp","male","gesture-speech","1536","864","chrome","60.51","Windows 10","24","female","right","Sat Oct 12 2024 23:06:53 GMT+0200 (Mitteleuropäische Sommerzeit)","3","75","0","1728768019799"
"8571","j","SpeechGestureMatch","../RequiredFiles/videos/NeinDaumenhoch_f.mp4","Ist der Ball in der blauen Box?","Green","Blue","F","negation","mismatch","speech","no","ThumbUp","female","gesture-speech","1536","864","chrome","60.51","Windows 10","24","female","right","Sat Oct 12 2024 23:07:07 GMT+0200 (Mitteleuropäische Sommerzeit)","3","76","1","1728768019799"
"938","f","SpeechGestureMatch","../RequiredFiles/videos/NeinDaumenrunter_f_no_gesture.mp4","Ist der Ball in der blauen Box?","Green","Blue","F","negation","na","speech","no","na","female","gesture-speech","1536","864","chrome","60.51","Windows 10","24","female","right","Sat Oct 12 2024 23:07:13 GMT+0200 (Mitteleuropäische Sommerzeit)","3","77","0","1728768019799"
"1674","f","SpeechGestureMatch","../RequiredFiles/videos/JaDaumenrunter_m.mp4","Ist der Ball in der grünen Box?","Green","Blue","F","affirmation","mismatch","speech","yes","ThumbDown","male","gesture-speech","1536","864","chrome","60.51","Windows 10","24","female","right","Sat Oct 12 2024 23:07:21 GMT+0200 (Mitteleuropäische Sommerzeit)","3","78","0","1728768019799"
"967","j","SpeechGestureMatch","../RequiredFiles/videos/NeinDaumenhoch_f.mp4","Ist der Ball in der grünen Box?","Green","Blue","J","negation","mismatch","speech","no","ThumbUp","female","gesture-speech","1536","864","chrome","60.51","Windows 10","24","female","right","Sat Oct 12 2024 23:07:27 GMT+0200 (Mitteleuropäische Sommerzeit)","3","79","0","1728768019799"
