"rt","response","stim","video","question","box_colour_left","box_colour_right","correct_key","polarity","matching","modality","verbal","gesture","speaker","order","width","height","browser","vsync_rate","os","age","gender","handedness","date","blockNum","trialNum","error","vpNum"
"1091","j","SpeechGestureMatch","../RequiredFiles/videos/JaKopfJa_m.mp4","Ist der Ball in der blauen Box?","Green","Blue","J","affirmation","match","speech","yes","HeadNod","male","speech-gesture","1536","864","chrome","60.62","Windows 10","22","female","left","Wed Oct 16 2024 10:10:56 GMT+0200 (Mitteleuropäische Sommerzeit)","1","1","0","1729069159466"
"824","f","SpeechGestureMatch","../RequiredFiles/videos/NeinKopfNein_f.mp4","Ist der Ball in der blauen Box?","Green","Blue","F","negation","match","speech","no","HeadShake","female","speech-gesture","1536","864","chrome","60.62","Windows 10","22","female","left","Wed Oct 16 2024 10:11:02 GMT+0200 (Mitteleuropäische Sommerzeit)","1","2","0","1729069159466"
"1504","j","SpeechGestureMatch","../RequiredFiles/videos/NeinKopfJa_m.mp4","Ist der Ball in der grünen Box?","Green","Blue","J","negation","mismatch","speech","no","HeadNod","male","speech-gesture","1536","864","chrome","60.62","Windows 10","22","female","left","Wed Oct 16 2024 10:11:09 GMT+0200 (Mitteleuropäische Sommerzeit)","1","3","0","1729069159466"
"825","j","SpeechGestureMatch","../RequiredFiles/videos/JaKopfJa_m.mp4","Ist der Ball in der grünen Box?","Blue","Green","J","affirmation","match","speech","yes","HeadNod","male","speech-gesture","1536","864","chrome","60.62","Windows 10","22","female","left","Wed Oct 16 2024 10:11:16 GMT+0200 (Mitteleuropäische Sommerzeit)","1","4","0","1729069159466"
"796","j","SpeechGestureMatch","../RequiredFiles/videos/NeinKopfJa_f.mp4","Ist der Ball in der grünen Box?","Green","Blue","J","negation","mismatch","speech","no","HeadNod","female","speech-gesture","1536","864","chrome","60.62","Windows 10","22","female","left","Wed Oct 16 2024 10:11:22 GMT+0200 (Mitteleuropäische Sommerzeit)","1","5","0","1729069159466"
"1442","j","SpeechGestureMatch","../RequiredFiles/videos/JaKopfNein_m.mp4","Ist der Ball in der grünen Box?","Blue","Green","J","affirmation","mismatch","speech","yes","HeadShake","male","speech-gesture","1536","864","chrome","60.62","Windows 10","22","female","left","Wed Oct 16 2024 10:11:29 GMT+0200 (Mitteleuropäische Sommerzeit)","1","6","0","1729069159466"
"1344","f","SpeechGestureMatch","../RequiredFiles/videos/NeinKopfJa_m_no_gesture.mp4","Ist der Ball in der grünen Box?","Blue","Green","F","negation","na","speech","no","na","male","speech-gesture","1536","864","chrome","60.62","Windows 10","22","female","left","Wed Oct 16 2024 10:11:36 GMT+0200 (Mitteleuropäische Sommerzeit)","1","7","0","1729069159466"
"873","j","SpeechGestureMatch","../RequiredFiles/videos/JaKopfJa_f.mp4","Ist der Ball in der blauen Box?","Green","Blue","J","affirmation","match","speech","yes","HeadNod","female","speech-gesture","1536","864","chrome","60.62","Windows 10","22","female","left","Wed Oct 16 2024 10:11:42 GMT+0200 (Mitteleuropäische Sommerzeit)","1","8","0","1729069159466"
"724","j","SpeechGestureMatch","../RequiredFiles/videos/JaKopfJa_f.mp4","Ist der Ball in der grünen Box?","Blue","Green","J","affirmation","match","speech","yes","HeadNod","female","speech-gesture","1536","864","chrome","60.62","Windows 10","22","female","left","Wed Oct 16 2024 10:11:49 GMT+0200 (Mitteleuropäische Sommerzeit)","1","9","0","1729069159466"
"797","f","SpeechGestureMatch","../RequiredFiles/videos/NeinKopfNein_f_no_gesture.mp4","Ist der Ball in der grünen Box?","Blue","Green","F","negation","na","speech","no","na","female","speech-gesture","1536","864","chrome","60.62","Windows 10","22","female","left","Wed Oct 16 2024 10:11:55 GMT+0200 (Mitteleuropäische Sommerzeit)","1","10","0","1729069159466"
"966","j","SpeechGestureMatch","../RequiredFiles/videos/JaKopfNein_f_no_gesture.mp4","Ist der Ball in der blauen Box?","Green","Blue","J","affirmation","na","speech","yes","na","female","speech-gesture","1536","864","chrome","60.62","Windows 10","22","female","left","Wed Oct 16 2024 10:12:01 GMT+0200 (Mitteleuropäische Sommerzeit)","1","11","0","1729069159466"
"1608","j","SpeechGestureMatch","../RequiredFiles/videos/NeinKopfNein_m.mp4","Ist der Ball in der grünen Box?","Green","Blue","J","negation","match","speech","no","HeadShake","male","speech-gesture","1536","864","chrome","60.62","Windows 10","22","female","left","Wed Oct 16 2024 10:12:09 GMT+0200 (Mitteleuropäische Sommerzeit)","1","12","0","1729069159466"
"864","f","SpeechGestureMatch","../RequiredFiles/videos/JaKopfNein_f.mp4","Ist der Ball in der grünen Box?","Green","Blue","F","affirmation","mismatch","speech","yes","HeadShake","female","speech-gesture","1536","864","chrome","60.62","Windows 10","22","female","left","Wed Oct 16 2024 10:12:15 GMT+0200 (Mitteleuropäische Sommerzeit)","1","13","0","1729069159466"
"797","f","SpeechGestureMatch","../RequiredFiles/videos/JaKopfJa_f.mp4","Ist der Ball in der grünen Box?","Green","Blue","F","affirmation","match","speech","yes","HeadNod","female","speech-gesture","1536","864","chrome","60.62","Windows 10","22","female","left","Wed Oct 16 2024 10:12:21 GMT+0200 (Mitteleuropäische Sommerzeit)","1","14","0","1729069159466"
"791","f","SpeechGestureMatch","../RequiredFiles/videos/NeinKopfJa_m_no_gesture.mp4","Ist der Ball in der blauen Box?","Green","Blue","F","negation","na","speech","no","na","male","speech-gesture","1536","864","chrome","60.62","Windows 10","22","female","left","Wed Oct 16 2024 10:12:28 GMT+0200 (Mitteleuropäische Sommerzeit)","1","15","0","1729069159466"
"794","j","SpeechGestureMatch","../RequiredFiles/videos/JaKopfJa_f.mp4","Ist der Ball in der blauen Box?","Green","Blue","J","affirmation","match","speech","yes","HeadNod","female","speech-gesture","1536","864","chrome","60.62","Windows 10","22","female","left","Wed Oct 16 2024 10:12:34 GMT+0200 (Mitteleuropäische Sommerzeit)","1","16","0","1729069159466"
"768","f","SpeechGestureMatch","../RequiredFiles/videos/JaKopfJa_m_no_gesture.mp4","Ist der Ball in der grünen Box?","Green","Blue","F","affirmation","na","speech","yes","na","male","speech-gesture","1536","864","chrome","60.62","Windows 10","22","female","left","Wed Oct 16 2024 10:12:40 GMT+0200 (Mitteleuropäische Sommerzeit)","1","17","0","1729069159466"
"947","f","SpeechGestureMatch","../RequiredFiles/videos/JaKopfNein_m.mp4","Ist der Ball in der blauen Box?","Blue","Green","F","affirmation","mismatch","speech","yes","HeadShake","male","speech-gesture","1536","864","chrome","60.62","Windows 10","22","female","left","Wed Oct 16 2024 10:12:47 GMT+0200 (Mitteleuropäische Sommerzeit)","1","18","0","1729069159466"
"941","f","SpeechGestureMatch","../RequiredFiles/videos/JaKopfNein_f.mp4","Ist der Ball in der grünen Box?","Green","Blue","F","affirmation","mismatch","speech","yes","HeadShake","female","speech-gesture","1536","864","chrome","60.62","Windows 10","22","female","left","Wed Oct 16 2024 10:12:53 GMT+0200 (Mitteleuropäische Sommerzeit)","1","19","0","1729069159466"
"838","j","SpeechGestureMatch","../RequiredFiles/videos/NeinKopfNein_f.mp4","Ist der Ball in der grünen Box?","Green","Blue","J","negation","match","speech","no","HeadShake","female","speech-gesture","1536","864","chrome","60.62","Windows 10","22","female","left","Wed Oct 16 2024 10:13:00 GMT+0200 (Mitteleuropäische Sommerzeit)","1","20","0","1729069159466"
"2021","f","SpeechGestureMatch","../RequiredFiles/videos/NeinKopfJa_f.mp4","Ist der Ball in der grünen Box?","Blue","Green","F","negation","mismatch","speech","no","HeadNod","female","speech-gesture","1536","864","chrome","60.62","Windows 10","22","female","left","Wed Oct 16 2024 10:13:07 GMT+0200 (Mitteleuropäische Sommerzeit)","1","21","0","1729069159466"
"1011","j","SpeechGestureMatch","../RequiredFiles/videos/NeinKopfNein_m.mp4","Ist der Ball in der blauen Box?","Blue","Green","J","negation","match","speech","no","HeadShake","male","speech-gesture","1536","864","chrome","60.62","Windows 10","22","female","left","Wed Oct 16 2024 10:13:14 GMT+0200 (Mitteleuropäische Sommerzeit)","1","22","0","1729069159466"
"811","j","SpeechGestureMatch","../RequiredFiles/videos/NeinKopfNein_m.mp4","Ist der Ball in der grünen Box?","Green","Blue","J","negation","match","speech","no","HeadShake","male","speech-gesture","1536","864","chrome","60.62","Windows 10","22","female","left","Wed Oct 16 2024 10:13:20 GMT+0200 (Mitteleuropäische Sommerzeit)","1","23","0","1729069159466"
"773","j","SpeechGestureMatch","../RequiredFiles/videos/JaKopfNein_m.mp4","Ist der Ball in der blauen Box?","Green","Blue","J","affirmation","mismatch","speech","yes","HeadShake","male","speech-gesture","1536","864","chrome","60.62","Windows 10","22","female","left","Wed Oct 16 2024 10:13:27 GMT+0200 (Mitteleuropäische Sommerzeit)","1","24","0","1729069159466"
"997","j","SpeechGestureMatch","../RequiredFiles/videos/NeinKopfNein_f.mp4","Ist der Ball in der grünen Box?","Green","Blue","J","negation","match","speech","no","HeadShake","female","speech-gesture","1536","864","chrome","60.62","Windows 10","22","female","left","Wed Oct 16 2024 10:13:33 GMT+0200 (Mitteleuropäische Sommerzeit)","1","25","0","1729069159466"
"1040","f","SpeechGestureMatch","../RequiredFiles/videos/JaKopfNein_f_no_gesture.mp4","Ist der Ball in der grünen Box?","Green","Blue","F","affirmation","na","speech","yes","na","female","speech-gesture","1536","864","chrome","60.62","Windows 10","22","female","left","Wed Oct 16 2024 10:13:40 GMT+0200 (Mitteleuropäische Sommerzeit)","1","26","0","1729069159466"
"823","f","SpeechGestureMatch","../RequiredFiles/videos/NeinKopfJa_m.mp4","Ist der Ball in der grünen Box?","Blue","Green","F","negation","mismatch","speech","no","HeadNod","male","speech-gesture","1536","864","chrome","60.62","Windows 10","22","female","left","Wed Oct 16 2024 10:13:46 GMT+0200 (Mitteleuropäische Sommerzeit)","1","27","0","1729069159466"
"983","f","SpeechGestureMatch","../RequiredFiles/videos/JaKopfNein_f.mp4","Ist der Ball in der blauen Box?","Blue","Green","F","affirmation","mismatch","speech","yes","HeadShake","female","speech-gesture","1536","864","chrome","60.62","Windows 10","22","female","left","Wed Oct 16 2024 10:13:53 GMT+0200 (Mitteleuropäische Sommerzeit)","1","28","0","1729069159466"
"843","j","SpeechGestureMatch","../RequiredFiles/videos/NeinKopfJa_m.mp4","Ist der Ball in der blauen Box?","Blue","Green","J","negation","mismatch","speech","no","HeadNod","male","speech-gesture","1536","864","chrome","60.62","Windows 10","22","female","left","Wed Oct 16 2024 10:13:59 GMT+0200 (Mitteleuropäische Sommerzeit)","1","29","0","1729069159466"
"709","f","SpeechGestureMatch","../RequiredFiles/videos/NeinKopfJa_m.mp4","Ist der Ball in der blauen Box?","Green","Blue","F","negation","mismatch","speech","no","HeadNod","male","speech-gesture","1536","864","chrome","60.62","Windows 10","22","female","left","Wed Oct 16 2024 10:14:05 GMT+0200 (Mitteleuropäische Sommerzeit)","1","30","0","1729069159466"
"837","j","SpeechGestureMatch","../RequiredFiles/videos/JaKopfNein_m_no_gesture.mp4","Ist der Ball in der grünen Box?","Blue","Green","J","affirmation","na","speech","yes","na","male","speech-gesture","1536","864","chrome","60.62","Windows 10","22","female","left","Wed Oct 16 2024 10:14:12 GMT+0200 (Mitteleuropäische Sommerzeit)","1","31","0","1729069159466"
"829","f","SpeechGestureMatch","../RequiredFiles/videos/NeinKopfJa_m.mp4","Ist der Ball in der blauen Box?","Green","Blue","F","negation","mismatch","speech","no","HeadNod","male","speech-gesture","1536","864","chrome","60.62","Windows 10","22","female","left","Wed Oct 16 2024 10:14:18 GMT+0200 (Mitteleuropäische Sommerzeit)","1","32","0","1729069159466"
"916","f","SpeechGestureMatch","../RequiredFiles/videos/JaKopfJa_f.mp4","Ist der Ball in der blauen Box?","Blue","Green","F","affirmation","match","speech","yes","HeadNod","female","speech-gesture","1536","864","chrome","60.62","Windows 10","22","female","left","Wed Oct 16 2024 10:14:24 GMT+0200 (Mitteleuropäische Sommerzeit)","1","33","0","1729069159466"
"990","f","SpeechGestureMatch","../RequiredFiles/videos/NeinKopfJa_f.mp4","Ist der Ball in der blauen Box?","Green","Blue","F","negation","mismatch","speech","no","HeadNod","female","speech-gesture","1536","864","chrome","60.62","Windows 10","22","female","left","Wed Oct 16 2024 10:14:31 GMT+0200 (Mitteleuropäische Sommerzeit)","1","34","0","1729069159466"
"2296","j","SpeechGestureMatch","../RequiredFiles/videos/NeinKopfNein_m_no_gesture.mp4","Ist der Ball in der blauen Box?","Blue","Green","J","negation","na","speech","no","na","male","speech-gesture","1536","864","chrome","60.62","Windows 10","22","female","left","Wed Oct 16 2024 10:14:39 GMT+0200 (Mitteleuropäische Sommerzeit)","1","35","0","1729069159466"
"1248","j","SpeechGestureMatch","../RequiredFiles/videos/NeinKopfJa_m.mp4","Ist der Ball in der grünen Box?","Green","Blue","J","negation","mismatch","speech","no","HeadNod","male","speech-gesture","1536","864","chrome","60.62","Windows 10","22","female","left","Wed Oct 16 2024 10:14:46 GMT+0200 (Mitteleuropäische Sommerzeit)","1","36","0","1729069159466"
"897","f","SpeechGestureMatch","../RequiredFiles/videos/NeinKopfJa_f.mp4","Ist der Ball in der grünen Box?","Blue","Green","F","negation","mismatch","speech","no","HeadNod","female","speech-gesture","1536","864","chrome","60.62","Windows 10","22","female","left","Wed Oct 16 2024 10:14:52 GMT+0200 (Mitteleuropäische Sommerzeit)","1","37","0","1729069159466"
"813","f","SpeechGestureMatch","../RequiredFiles/videos/NeinKopfJa_f.mp4","Ist der Ball in der blauen Box?","Green","Blue","F","negation","mismatch","speech","no","HeadNod","female","speech-gesture","1536","864","chrome","60.62","Windows 10","22","female","left","Wed Oct 16 2024 10:14:58 GMT+0200 (Mitteleuropäische Sommerzeit)","1","38","0","1729069159466"
"765","f","SpeechGestureMatch","../RequiredFiles/videos/NeinKopfNein_m_no_gesture.mp4","Ist der Ball in der blauen Box?","Green","Blue","F","negation","na","speech","no","na","male","speech-gesture","1536","864","chrome","60.62","Windows 10","22","female","left","Wed Oct 16 2024 10:15:05 GMT+0200 (Mitteleuropäische Sommerzeit)","1","39","0","1729069159466"
"962","j","SpeechGestureMatch","../RequiredFiles/videos/NeinKopfJa_f.mp4","Ist der Ball in der blauen Box?","Blue","Green","J","negation","mismatch","speech","no","HeadNod","female","speech-gesture","1536","864","chrome","60.62","Windows 10","22","female","left","Wed Oct 16 2024 10:15:11 GMT+0200 (Mitteleuropäische Sommerzeit)","1","40","0","1729069159466"
"805","j","SpeechGestureMatch","../RequiredFiles/videos/NeinKopfJa_f.mp4","Ist der Ball in der blauen Box?","Blue","Green","J","negation","mismatch","speech","no","HeadNod","female","speech-gesture","1536","864","chrome","60.62","Windows 10","22","female","left","Wed Oct 16 2024 10:15:18 GMT+0200 (Mitteleuropäische Sommerzeit)","1","41","0","1729069159466"
"870","f","SpeechGestureMatch","../RequiredFiles/videos/NeinKopfJa_f_no_gesture.mp4","Ist der Ball in der blauen Box?","Green","Blue","F","negation","na","speech","no","na","female","speech-gesture","1536","864","chrome","60.62","Windows 10","22","female","left","Wed Oct 16 2024 10:15:24 GMT+0200 (Mitteleuropäische Sommerzeit)","1","42","0","1729069159466"
"677","f","SpeechGestureMatch","../RequiredFiles/videos/JaKopfJa_m.mp4","Ist der Ball in der grünen Box?","Green","Blue","F","affirmation","match","speech","yes","HeadNod","male","speech-gesture","1536","864","chrome","60.62","Windows 10","22","female","left","Wed Oct 16 2024 10:15:30 GMT+0200 (Mitteleuropäische Sommerzeit)","1","43","0","1729069159466"
"1095","f","SpeechGestureMatch","../RequiredFiles/videos/NeinKopfJa_f_no_gesture.mp4","Ist der Ball in der grünen Box?","Blue","Green","F","negation","na","speech","no","na","female","speech-gesture","1536","864","chrome","60.62","Windows 10","22","female","left","Wed Oct 16 2024 10:15:37 GMT+0200 (Mitteleuropäische Sommerzeit)","1","44","0","1729069159466"
"1657","f","SpeechGestureMatch","../RequiredFiles/videos/JaKopfJa_m.mp4","Ist der Ball in der blauen Box?","Blue","Green","F","affirmation","match","speech","yes","HeadNod","male","speech-gesture","1536","864","chrome","60.62","Windows 10","22","female","left","Wed Oct 16 2024 10:15:44 GMT+0200 (Mitteleuropäische Sommerzeit)","1","45","0","1729069159466"
"821","f","SpeechGestureMatch","../RequiredFiles/videos/JaKopfNein_f_no_gesture.mp4","Ist der Ball in der blauen Box?","Blue","Green","F","affirmation","na","speech","yes","na","female","speech-gesture","1536","864","chrome","60.62","Windows 10","22","female","left","Wed Oct 16 2024 10:15:50 GMT+0200 (Mitteleuropäische Sommerzeit)","1","46","0","1729069159466"
"1071","j","SpeechGestureMatch","../RequiredFiles/videos/JaKopfNein_f_no_gesture.mp4","Ist der Ball in der grünen Box?","Blue","Green","J","affirmation","na","speech","yes","na","female","speech-gesture","1536","864","chrome","60.62","Windows 10","22","female","left","Wed Oct 16 2024 10:15:57 GMT+0200 (Mitteleuropäische Sommerzeit)","1","47","0","1729069159466"
"780","j","SpeechGestureMatch","../RequiredFiles/videos/NeinKopfJa_m.mp4","Ist der Ball in der blauen Box?","Blue","Green","J","negation","mismatch","speech","no","HeadNod","male","speech-gesture","1536","864","chrome","60.62","Windows 10","22","female","left","Wed Oct 16 2024 10:16:03 GMT+0200 (Mitteleuropäische Sommerzeit)","1","48","0","1729069159466"
"726","j","SpeechGestureMatch","../RequiredFiles/videos/NeinKopfNein_m_no_gesture.mp4","Ist der Ball in der grünen Box?","Green","Blue","J","negation","na","speech","no","na","male","speech-gesture","1536","864","chrome","60.62","Windows 10","22","female","left","Wed Oct 16 2024 10:16:10 GMT+0200 (Mitteleuropäische Sommerzeit)","1","49","0","1729069159466"
"855","j","SpeechGestureMatch","../RequiredFiles/videos/NeinKopfJa_f_no_gesture.mp4","Ist der Ball in der grünen Box?","Green","Blue","J","negation","na","speech","no","na","female","speech-gesture","1536","864","chrome","60.62","Windows 10","22","female","left","Wed Oct 16 2024 10:16:16 GMT+0200 (Mitteleuropäische Sommerzeit)","1","50","0","1729069159466"
"809","f","SpeechGestureMatch","../RequiredFiles/videos/JaKopfNein_m.mp4","Ist der Ball in der grünen Box?","Green","Blue","F","affirmation","mismatch","speech","yes","HeadShake","male","speech-gesture","1536","864","chrome","60.62","Windows 10","22","female","left","Wed Oct 16 2024 10:16:22 GMT+0200 (Mitteleuropäische Sommerzeit)","1","51","0","1729069159466"
"836","f","SpeechGestureMatch","../RequiredFiles/videos/JaKopfNein_m_no_gesture.mp4","Ist der Ball in der blauen Box?","Blue","Green","F","affirmation","na","speech","yes","na","male","speech-gesture","1536","864","chrome","60.62","Windows 10","22","female","left","Wed Oct 16 2024 10:16:29 GMT+0200 (Mitteleuropäische Sommerzeit)","1","52","0","1729069159466"
"1016","j","SpeechGestureMatch","../RequiredFiles/videos/JaKopfNein_m.mp4","Ist der Ball in der blauen Box?","Green","Blue","J","affirmation","mismatch","speech","yes","HeadShake","male","speech-gesture","1536","864","chrome","60.62","Windows 10","22","female","left","Wed Oct 16 2024 10:16:35 GMT+0200 (Mitteleuropäische Sommerzeit)","1","53","0","1729069159466"
"916","j","SpeechGestureMatch","../RequiredFiles/videos/JaKopfNein_f.mp4","Ist der Ball in der blauen Box?","Green","Blue","J","affirmation","mismatch","speech","yes","HeadShake","female","speech-gesture","1536","864","chrome","60.62","Windows 10","22","female","left","Wed Oct 16 2024 10:16:42 GMT+0200 (Mitteleuropäische Sommerzeit)","1","54","0","1729069159466"
"1013","f","SpeechGestureMatch","../RequiredFiles/videos/NeinKopfNein_f_no_gesture.mp4","Ist der Ball in der blauen Box?","Green","Blue","F","negation","na","speech","no","na","female","speech-gesture","1536","864","chrome","60.62","Windows 10","22","female","left","Wed Oct 16 2024 10:16:48 GMT+0200 (Mitteleuropäische Sommerzeit)","1","55","0","1729069159466"
"1030","j","SpeechGestureMatch","../RequiredFiles/videos/NeinKopfNein_f.mp4","Ist der Ball in der blauen Box?","Blue","Green","J","negation","match","speech","no","HeadShake","female","speech-gesture","1536","864","chrome","60.62","Windows 10","22","female","left","Wed Oct 16 2024 10:16:55 GMT+0200 (Mitteleuropäische Sommerzeit)","1","56","0","1729069159466"
"1019","j","SpeechGestureMatch","../RequiredFiles/videos/NeinKopfJa_f_no_gesture.mp4","Ist der Ball in der blauen Box?","Blue","Green","J","negation","na","speech","no","na","female","speech-gesture","1536","864","chrome","60.62","Windows 10","22","female","left","Wed Oct 16 2024 10:17:01 GMT+0200 (Mitteleuropäische Sommerzeit)","1","57","0","1729069159466"
"2357","f","SpeechGestureMatch","../RequiredFiles/videos/NeinKopfNein_m.mp4","Ist der Ball in der grünen Box?","Blue","Green","F","negation","match","speech","no","HeadShake","male","speech-gesture","1536","864","chrome","60.62","Windows 10","22","female","left","Wed Oct 16 2024 10:17:09 GMT+0200 (Mitteleuropäische Sommerzeit)","1","58","0","1729069159466"
"1103","j","SpeechGestureMatch","../RequiredFiles/videos/NeinKopfJa_m_no_gesture.mp4","Ist der Ball in der blauen Box?","Blue","Green","J","negation","na","speech","no","na","male","speech-gesture","1536","864","chrome","60.62","Windows 10","22","female","left","Wed Oct 16 2024 10:17:16 GMT+0200 (Mitteleuropäische Sommerzeit)","1","59","0","1729069159466"
"869","j","SpeechGestureMatch","../RequiredFiles/videos/JaKopfJa_m.mp4","Ist der Ball in der grünen Box?","Blue","Green","J","affirmation","match","speech","yes","HeadNod","male","speech-gesture","1536","864","chrome","60.62","Windows 10","22","female","left","Wed Oct 16 2024 10:17:22 GMT+0200 (Mitteleuropäische Sommerzeit)","1","60","0","1729069159466"
"1207","j","SpeechGestureMatch","../RequiredFiles/videos/JaKopfNein_m_no_gesture.mp4","Ist der Ball in der blauen Box?","Green","Blue","J","affirmation","na","speech","yes","na","male","speech-gesture","1536","864","chrome","60.62","Windows 10","22","female","left","Wed Oct 16 2024 10:17:29 GMT+0200 (Mitteleuropäische Sommerzeit)","1","61","0","1729069159466"
"964","f","SpeechGestureMatch","../RequiredFiles/videos/NeinKopfNein_f.mp4","Ist der Ball in der grünen Box?","Blue","Green","F","negation","match","speech","no","HeadShake","female","speech-gesture","1536","864","chrome","60.62","Windows 10","22","female","left","Wed Oct 16 2024 10:17:36 GMT+0200 (Mitteleuropäische Sommerzeit)","1","62","0","1729069159466"
"732","f","SpeechGestureMatch","../RequiredFiles/videos/JaKopfNein_m_no_gesture.mp4","Ist der Ball in der grünen Box?","Green","Blue","F","affirmation","na","speech","yes","na","male","speech-gesture","1536","864","chrome","60.62","Windows 10","22","female","left","Wed Oct 16 2024 10:17:42 GMT+0200 (Mitteleuropäische Sommerzeit)","1","63","0","1729069159466"
"857","j","SpeechGestureMatch","../RequiredFiles/videos/NeinKopfJa_m_no_gesture.mp4","Ist der Ball in der grünen Box?","Green","Blue","J","negation","na","speech","no","na","male","speech-gesture","1536","864","chrome","60.62","Windows 10","22","female","left","Wed Oct 16 2024 10:17:48 GMT+0200 (Mitteleuropäische Sommerzeit)","1","64","0","1729069159466"
"1706","j","SpeechGestureMatch","../RequiredFiles/videos/NeinKopfJa_f.mp4","Ist der Ball in der grünen Box?","Green","Blue","J","negation","mismatch","speech","no","HeadNod","female","speech-gesture","1536","864","chrome","60.62","Windows 10","22","female","left","Wed Oct 16 2024 10:17:56 GMT+0200 (Mitteleuropäische Sommerzeit)","1","65","0","1729069159466"
"1339","j","SpeechGestureMatch","../RequiredFiles/videos/NeinKopfNein_f_no_gesture.mp4","Ist der Ball in der grünen Box?","Green","Blue","J","negation","na","speech","no","na","female","speech-gesture","1536","864","chrome","60.62","Windows 10","22","female","left","Wed Oct 16 2024 10:18:03 GMT+0200 (Mitteleuropäische Sommerzeit)","1","66","0","1729069159466"
"1631","f","SpeechGestureMatch","../RequiredFiles/videos/NeinKopfNein_m_no_gesture.mp4","Ist der Ball in der grünen Box?","Blue","Green","F","negation","na","speech","no","na","male","speech-gesture","1536","864","chrome","60.62","Windows 10","22","female","left","Wed Oct 16 2024 10:18:10 GMT+0200 (Mitteleuropäische Sommerzeit)","1","67","0","1729069159466"
"1034","j","SpeechGestureMatch","../RequiredFiles/videos/NeinKopfNein_m.mp4","Ist der Ball in der blauen Box?","Blue","Green","J","negation","match","speech","no","HeadShake","male","speech-gesture","1536","864","chrome","60.62","Windows 10","22","female","left","Wed Oct 16 2024 10:18:16 GMT+0200 (Mitteleuropäische Sommerzeit)","1","68","0","1729069159466"
"1070","j","SpeechGestureMatch","../RequiredFiles/videos/JaKopfJa_f.mp4","Ist der Ball in der grünen Box?","Blue","Green","J","affirmation","match","speech","yes","HeadNod","female","speech-gesture","1536","864","chrome","60.62","Windows 10","22","female","left","Wed Oct 16 2024 10:18:23 GMT+0200 (Mitteleuropäische Sommerzeit)","1","69","0","1729069159466"
"892","f","SpeechGestureMatch","../RequiredFiles/videos/NeinKopfNein_m.mp4","Ist der Ball in der grünen Box?","Blue","Green","F","negation","match","speech","no","HeadShake","male","speech-gesture","1536","864","chrome","60.62","Windows 10","22","female","left","Wed Oct 16 2024 10:18:29 GMT+0200 (Mitteleuropäische Sommerzeit)","1","70","0","1729069159466"
"1483","j","SpeechGestureMatch","../RequiredFiles/videos/JaKopfNein_f.mp4","Ist der Ball in der blauen Box?","Blue","Green","F","affirmation","mismatch","speech","yes","HeadShake","female","speech-gesture","1536","864","chrome","60.62","Windows 10","22","female","left","Wed Oct 16 2024 10:18:36 GMT+0200 (Mitteleuropäische Sommerzeit)","1","71","1","1729069159466"
"1091","f","SpeechGestureMatch","../RequiredFiles/videos/JaKopfNein_m.mp4","Ist der Ball in der blauen Box?","Blue","Green","F","affirmation","mismatch","speech","yes","HeadShake","male","speech-gesture","1536","864","chrome","60.62","Windows 10","22","female","left","Wed Oct 16 2024 10:18:43 GMT+0200 (Mitteleuropäische Sommerzeit)","1","72","0","1729069159466"
"823","j","SpeechGestureMatch","../RequiredFiles/videos/NeinKopfNein_f_no_gesture.mp4","Ist der Ball in der blauen Box?","Blue","Green","J","negation","na","speech","no","na","female","speech-gesture","1536","864","chrome","60.62","Windows 10","22","female","left","Wed Oct 16 2024 10:18:49 GMT+0200 (Mitteleuropäische Sommerzeit)","1","73","0","1729069159466"
"837","j","SpeechGestureMatch","../RequiredFiles/videos/JaKopfNein_m.mp4","Ist der Ball in der grünen Box?","Blue","Green","J","affirmation","mismatch","speech","yes","HeadShake","male","speech-gesture","1536","864","chrome","60.62","Windows 10","22","female","left","Wed Oct 16 2024 10:18:56 GMT+0200 (Mitteleuropäische Sommerzeit)","1","74","0","1729069159466"
"859","f","SpeechGestureMatch","../RequiredFiles/videos/JaKopfJa_m.mp4","Ist der Ball in der grünen Box?","Green","Blue","F","affirmation","match","speech","yes","HeadNod","male","speech-gesture","1536","864","chrome","60.62","Windows 10","22","female","left","Wed Oct 16 2024 10:19:02 GMT+0200 (Mitteleuropäische Sommerzeit)","1","75","0","1729069159466"
"915","j","SpeechGestureMatch","../RequiredFiles/videos/JaKopfJa_m_no_gesture.mp4","Ist der Ball in der grünen Box?","Blue","Green","J","affirmation","na","speech","yes","na","male","speech-gesture","1536","864","chrome","60.62","Windows 10","22","female","left","Wed Oct 16 2024 10:19:09 GMT+0200 (Mitteleuropäische Sommerzeit)","1","76","0","1729069159466"
"1172","j","SpeechGestureMatch","../RequiredFiles/videos/JaKopfJa_m_no_gesture.mp4","Ist der Ball in der blauen Box?","Blue","Green","F","affirmation","na","speech","yes","na","male","speech-gesture","1536","864","chrome","60.62","Windows 10","22","female","left","Wed Oct 16 2024 10:19:15 GMT+0200 (Mitteleuropäische Sommerzeit)","1","77","1","1729069159466"
"1056","j","SpeechGestureMatch","../RequiredFiles/videos/NeinKopfNein_f.mp4","Ist der Ball in der blauen Box?","Blue","Green","J","negation","match","speech","no","HeadShake","female","speech-gesture","1536","864","chrome","60.62","Windows 10","22","female","left","Wed Oct 16 2024 10:19:22 GMT+0200 (Mitteleuropäische Sommerzeit)","1","78","0","1729069159466"
"947","f","SpeechGestureMatch","../RequiredFiles/videos/JaKopfJa_f.mp4","Ist der Ball in der grünen Box?","Green","Blue","F","affirmation","match","speech","yes","HeadNod","female","speech-gesture","1536","864","chrome","60.62","Windows 10","22","female","left","Wed Oct 16 2024 10:19:28 GMT+0200 (Mitteleuropäische Sommerzeit)","1","79","0","1729069159466"
"1092","f","SpeechGestureMatch","../RequiredFiles/videos/NeinKopfNein_m.mp4","Ist der Ball in der blauen Box?","Green","Blue","F","negation","match","speech","no","HeadShake","male","speech-gesture","1536","864","chrome","60.62","Windows 10","22","female","left","Wed Oct 16 2024 10:19:35 GMT+0200 (Mitteleuropäische Sommerzeit)","1","80","0","1729069159466"
"2479","f","SpeechGestureMatch","../RequiredFiles/videos/JaKopfJa_m.mp4","Ist der Ball in der blauen Box?","Blue","Green","F","affirmation","match","speech","yes","HeadNod","male","speech-gesture","1536","864","chrome","60.62","Windows 10","22","female","left","Wed Oct 16 2024 10:19:43 GMT+0200 (Mitteleuropäische Sommerzeit)","1","81","0","1729069159466"
"936","j","SpeechGestureMatch","../RequiredFiles/videos/JaKopfNein_f.mp4","Ist der Ball in der grünen Box?","Blue","Green","J","affirmation","mismatch","speech","yes","HeadShake","female","speech-gesture","1536","864","chrome","60.62","Windows 10","22","female","left","Wed Oct 16 2024 10:19:50 GMT+0200 (Mitteleuropäische Sommerzeit)","1","82","0","1729069159466"
"941","j","SpeechGestureMatch","../RequiredFiles/videos/JaKopfJa_f_no_gesture.mp4","Ist der Ball in der blauen Box?","Green","Blue","J","affirmation","na","speech","yes","na","female","speech-gesture","1536","864","chrome","60.62","Windows 10","22","female","left","Wed Oct 16 2024 10:19:56 GMT+0200 (Mitteleuropäische Sommerzeit)","1","83","0","1729069159466"
"1026","f","SpeechGestureMatch","../RequiredFiles/videos/JaKopfJa_f.mp4","Ist der Ball in der blauen Box?","Blue","Green","F","affirmation","match","speech","yes","HeadNod","female","speech-gesture","1536","864","chrome","60.62","Windows 10","22","female","left","Wed Oct 16 2024 10:20:03 GMT+0200 (Mitteleuropäische Sommerzeit)","1","84","0","1729069159466"
"735","j","SpeechGestureMatch","../RequiredFiles/videos/JaKopfJa_f_no_gesture.mp4","Ist der Ball in der grünen Box?","Blue","Green","J","affirmation","na","speech","yes","na","female","speech-gesture","1536","864","chrome","60.62","Windows 10","22","female","left","Wed Oct 16 2024 10:20:09 GMT+0200 (Mitteleuropäische Sommerzeit)","1","85","0","1729069159466"
"777","f","SpeechGestureMatch","../RequiredFiles/videos/NeinKopfNein_f.mp4","Ist der Ball in der blauen Box?","Green","Blue","F","negation","match","speech","no","HeadShake","female","speech-gesture","1536","864","chrome","60.62","Windows 10","22","female","left","Wed Oct 16 2024 10:20:15 GMT+0200 (Mitteleuropäische Sommerzeit)","1","86","0","1729069159466"
"833","j","SpeechGestureMatch","../RequiredFiles/videos/JaKopfJa_m_no_gesture.mp4","Ist der Ball in der blauen Box?","Green","Blue","J","affirmation","na","speech","yes","na","male","speech-gesture","1536","864","chrome","60.62","Windows 10","22","female","left","Wed Oct 16 2024 10:20:22 GMT+0200 (Mitteleuropäische Sommerzeit)","1","87","0","1729069159466"
"993","f","SpeechGestureMatch","../RequiredFiles/videos/JaKopfNein_m.mp4","Ist der Ball in der grünen Box?","Green","Blue","F","affirmation","mismatch","speech","yes","HeadShake","male","speech-gesture","1536","864","chrome","60.62","Windows 10","22","female","left","Wed Oct 16 2024 10:20:28 GMT+0200 (Mitteleuropäische Sommerzeit)","1","88","0","1729069159466"
"756","j","SpeechGestureMatch","../RequiredFiles/videos/JaKopfJa_m.mp4","Ist der Ball in der blauen Box?","Green","Blue","J","affirmation","match","speech","yes","HeadNod","male","speech-gesture","1536","864","chrome","60.62","Windows 10","22","female","left","Wed Oct 16 2024 10:20:34 GMT+0200 (Mitteleuropäische Sommerzeit)","1","89","0","1729069159466"
"884","j","SpeechGestureMatch","../RequiredFiles/videos/JaKopfNein_f.mp4","Ist der Ball in der blauen Box?","Green","Blue","J","affirmation","mismatch","speech","yes","HeadShake","female","speech-gesture","1536","864","chrome","60.62","Windows 10","22","female","left","Wed Oct 16 2024 10:20:41 GMT+0200 (Mitteleuropäische Sommerzeit)","1","90","0","1729069159466"
"828","j","SpeechGestureMatch","../RequiredFiles/videos/JaKopfNein_f.mp4","Ist der Ball in der grünen Box?","Blue","Green","J","affirmation","mismatch","speech","yes","HeadShake","female","speech-gesture","1536","864","chrome","60.62","Windows 10","22","female","left","Wed Oct 16 2024 10:20:47 GMT+0200 (Mitteleuropäische Sommerzeit)","1","91","0","1729069159466"
"1077","f","SpeechGestureMatch","../RequiredFiles/videos/NeinKopfNein_m.mp4","Ist der Ball in der blauen Box?","Green","Blue","F","negation","match","speech","no","HeadShake","male","speech-gesture","1536","864","chrome","60.62","Windows 10","22","female","left","Wed Oct 16 2024 10:20:54 GMT+0200 (Mitteleuropäische Sommerzeit)","1","92","0","1729069159466"
"1040","f","SpeechGestureMatch","../RequiredFiles/videos/NeinKopfNein_f.mp4","Ist der Ball in der grünen Box?","Blue","Green","F","negation","match","speech","no","HeadShake","female","speech-gesture","1536","864","chrome","60.62","Windows 10","22","female","left","Wed Oct 16 2024 10:21:00 GMT+0200 (Mitteleuropäische Sommerzeit)","1","93","0","1729069159466"
"765","f","SpeechGestureMatch","../RequiredFiles/videos/JaKopfJa_f_no_gesture.mp4","Ist der Ball in der grünen Box?","Green","Blue","F","affirmation","na","speech","yes","na","female","speech-gesture","1536","864","chrome","60.62","Windows 10","22","female","left","Wed Oct 16 2024 10:21:07 GMT+0200 (Mitteleuropäische Sommerzeit)","1","94","0","1729069159466"
"781","f","SpeechGestureMatch","../RequiredFiles/videos/JaKopfJa_f_no_gesture.mp4","Ist der Ball in der blauen Box?","Blue","Green","F","affirmation","na","speech","yes","na","female","speech-gesture","1536","864","chrome","60.62","Windows 10","22","female","left","Wed Oct 16 2024 10:21:13 GMT+0200 (Mitteleuropäische Sommerzeit)","1","95","0","1729069159466"
"808","f","SpeechGestureMatch","../RequiredFiles/videos/NeinKopfJa_m.mp4","Ist der Ball in der grünen Box?","Blue","Green","F","negation","mismatch","speech","no","HeadNod","male","speech-gesture","1536","864","chrome","60.62","Windows 10","22","female","left","Wed Oct 16 2024 10:21:19 GMT+0200 (Mitteleuropäische Sommerzeit)","1","96","0","1729069159466"
"2216","f","SpeechGestureMatch","../RequiredFiles/videos/NeinKopfJa_m.mp4","Ist der Ball in der blauen Box?","Green","Blue","F","negation","mismatch","speech","no","HeadNod","male","speech-gesture","1536","864","chrome","60.62","Windows 10","22","female","left","Wed Oct 16 2024 10:21:53 GMT+0200 (Mitteleuropäische Sommerzeit)","2","1","0","1729069159466"
"946","j","SpeechGestureMatch","../RequiredFiles/videos/JaKopfNein_f.mp4","Ist der Ball in der grünen Box?","Blue","Green","J","affirmation","mismatch","speech","yes","HeadShake","female","speech-gesture","1536","864","chrome","60.62","Windows 10","22","female","left","Wed Oct 16 2024 10:21:59 GMT+0200 (Mitteleuropäische Sommerzeit)","2","2","0","1729069159466"
"919","f","SpeechGestureMatch","../RequiredFiles/videos/JaKopfJa_m.mp4","Ist der Ball in der blauen Box?","Blue","Green","F","affirmation","match","speech","yes","HeadNod","male","speech-gesture","1536","864","chrome","60.62","Windows 10","22","female","left","Wed Oct 16 2024 10:22:05 GMT+0200 (Mitteleuropäische Sommerzeit)","2","3","0","1729069159466"
"826","j","SpeechGestureMatch","../RequiredFiles/videos/JaKopfNein_f_no_gesture.mp4","Ist der Ball in der grünen Box?","Blue","Green","J","affirmation","na","speech","yes","na","female","speech-gesture","1536","864","chrome","60.62","Windows 10","22","female","left","Wed Oct 16 2024 10:22:12 GMT+0200 (Mitteleuropäische Sommerzeit)","2","4","0","1729069159466"
"802","j","SpeechGestureMatch","../RequiredFiles/videos/JaKopfJa_f.mp4","Ist der Ball in der grünen Box?","Blue","Green","J","affirmation","match","speech","yes","HeadNod","female","speech-gesture","1536","864","chrome","60.62","Windows 10","22","female","left","Wed Oct 16 2024 10:22:18 GMT+0200 (Mitteleuropäische Sommerzeit)","2","5","0","1729069159466"
"809","j","SpeechGestureMatch","../RequiredFiles/videos/JaKopfNein_m_no_gesture.mp4","Ist der Ball in der grünen Box?","Blue","Green","J","affirmation","na","speech","yes","na","male","speech-gesture","1536","864","chrome","60.62","Windows 10","22","female","left","Wed Oct 16 2024 10:22:25 GMT+0200 (Mitteleuropäische Sommerzeit)","2","6","0","1729069159466"
"744","j","SpeechGestureMatch","../RequiredFiles/videos/JaKopfJa_m.mp4","Ist der Ball in der blauen Box?","Green","Blue","J","affirmation","match","speech","yes","HeadNod","male","speech-gesture","1536","864","chrome","60.62","Windows 10","22","female","left","Wed Oct 16 2024 10:22:31 GMT+0200 (Mitteleuropäische Sommerzeit)","2","7","0","1729069159466"
"1324","j","SpeechGestureMatch","../RequiredFiles/videos/NeinKopfJa_f.mp4","Ist der Ball in der grünen Box?","Green","Blue","J","negation","mismatch","speech","no","HeadNod","female","speech-gesture","1536","864","chrome","60.62","Windows 10","22","female","left","Wed Oct 16 2024 10:22:38 GMT+0200 (Mitteleuropäische Sommerzeit)","2","8","0","1729069159466"
"874","j","SpeechGestureMatch","../RequiredFiles/videos/NeinKopfJa_f.mp4","Ist der Ball in der grünen Box?","Green","Blue","J","negation","mismatch","speech","no","HeadNod","female","speech-gesture","1536","864","chrome","60.62","Windows 10","22","female","left","Wed Oct 16 2024 10:22:44 GMT+0200 (Mitteleuropäische Sommerzeit)","2","9","0","1729069159466"
"1341","f","SpeechGestureMatch","../RequiredFiles/videos/NeinKopfNein_f_no_gesture.mp4","Ist der Ball in der grünen Box?","Blue","Green","F","negation","na","speech","no","na","female","speech-gesture","1536","864","chrome","60.62","Windows 10","22","female","left","Wed Oct 16 2024 10:22:51 GMT+0200 (Mitteleuropäische Sommerzeit)","2","10","0","1729069159466"
"982","f","SpeechGestureMatch","../RequiredFiles/videos/NeinKopfJa_f_no_gesture.mp4","Ist der Ball in der grünen Box?","Blue","Green","F","negation","na","speech","no","na","female","speech-gesture","1536","864","chrome","60.62","Windows 10","22","female","left","Wed Oct 16 2024 10:22:58 GMT+0200 (Mitteleuropäische Sommerzeit)","2","11","0","1729069159466"
"1300","f","SpeechGestureMatch","../RequiredFiles/videos/NeinKopfJa_f.mp4","Ist der Ball in der blauen Box?","Blue","Green","J","negation","mismatch","speech","no","HeadNod","female","speech-gesture","1536","864","chrome","60.62","Windows 10","22","female","left","Wed Oct 16 2024 10:23:04 GMT+0200 (Mitteleuropäische Sommerzeit)","2","12","1","1729069159466"
"993","j","SpeechGestureMatch","../RequiredFiles/videos/JaKopfJa_m.mp4","Ist der Ball in der grünen Box?","Blue","Green","J","affirmation","match","speech","yes","HeadNod","male","speech-gesture","1536","864","chrome","60.62","Windows 10","22","female","left","Wed Oct 16 2024 10:23:11 GMT+0200 (Mitteleuropäische Sommerzeit)","2","13","0","1729069159466"
"1242","f","SpeechGestureMatch","../RequiredFiles/videos/JaKopfNein_f.mp4","Ist der Ball in der grünen Box?","Green","Blue","F","affirmation","mismatch","speech","yes","HeadShake","female","speech-gesture","1536","864","chrome","60.62","Windows 10","22","female","left","Wed Oct 16 2024 10:23:18 GMT+0200 (Mitteleuropäische Sommerzeit)","2","14","0","1729069159466"
"892","j","SpeechGestureMatch","../RequiredFiles/videos/JaKopfJa_f.mp4","Ist der Ball in der blauen Box?","Blue","Green","F","affirmation","match","speech","yes","HeadNod","female","speech-gesture","1536","864","chrome","60.62","Windows 10","22","female","left","Wed Oct 16 2024 10:23:24 GMT+0200 (Mitteleuropäische Sommerzeit)","2","15","1","1729069159466"
"715","j","SpeechGestureMatch","../RequiredFiles/videos/JaKopfJa_m.mp4","Ist der Ball in der grünen Box?","Blue","Green","J","affirmation","match","speech","yes","HeadNod","male","speech-gesture","1536","864","chrome","60.62","Windows 10","22","female","left","Wed Oct 16 2024 10:23:30 GMT+0200 (Mitteleuropäische Sommerzeit)","2","16","0","1729069159466"
"1013","j","SpeechGestureMatch","../RequiredFiles/videos/JaKopfJa_f.mp4","Ist der Ball in der grünen Box?","Green","Blue","F","affirmation","match","speech","yes","HeadNod","female","speech-gesture","1536","864","chrome","60.62","Windows 10","22","female","left","Wed Oct 16 2024 10:23:37 GMT+0200 (Mitteleuropäische Sommerzeit)","2","17","1","1729069159466"
"900","j","SpeechGestureMatch","../RequiredFiles/videos/JaKopfNein_f.mp4","Ist der Ball in der blauen Box?","Green","Blue","J","affirmation","mismatch","speech","yes","HeadShake","female","speech-gesture","1536","864","chrome","60.62","Windows 10","22","female","left","Wed Oct 16 2024 10:23:43 GMT+0200 (Mitteleuropäische Sommerzeit)","2","18","0","1729069159466"
"760","j","SpeechGestureMatch","../RequiredFiles/videos/NeinKopfJa_m.mp4","Ist der Ball in der blauen Box?","Blue","Green","J","negation","mismatch","speech","no","HeadNod","male","speech-gesture","1536","864","chrome","60.62","Windows 10","22","female","left","Wed Oct 16 2024 10:23:50 GMT+0200 (Mitteleuropäische Sommerzeit)","2","19","0","1729069159466"
"1375","j","SpeechGestureMatch","../RequiredFiles/videos/NeinKopfNein_f_no_gesture.mp4","Ist der Ball in der blauen Box?","Blue","Green","J","negation","na","speech","no","na","female","speech-gesture","1536","864","chrome","60.62","Windows 10","22","female","left","Wed Oct 16 2024 10:23:57 GMT+0200 (Mitteleuropäische Sommerzeit)","2","20","0","1729069159466"
"962","j","SpeechGestureMatch","../RequiredFiles/videos/JaKopfNein_m.mp4","Ist der Ball in der blauen Box?","Green","Blue","J","affirmation","mismatch","speech","yes","HeadShake","male","speech-gesture","1536","864","chrome","60.62","Windows 10","22","female","left","Wed Oct 16 2024 10:24:03 GMT+0200 (Mitteleuropäische Sommerzeit)","2","21","0","1729069159466"
"1270","j","SpeechGestureMatch","../RequiredFiles/videos/NeinKopfJa_f_no_gesture.mp4","Ist der Ball in der blauen Box?","Green","Blue","F","negation","na","speech","no","na","female","speech-gesture","1536","864","chrome","60.62","Windows 10","22","female","left","Wed Oct 16 2024 10:24:10 GMT+0200 (Mitteleuropäische Sommerzeit)","2","22","1","1729069159466"
"912","j","SpeechGestureMatch","../RequiredFiles/videos/JaKopfNein_f.mp4","Ist der Ball in der blauen Box?","Green","Blue","J","affirmation","mismatch","speech","yes","HeadShake","female","speech-gesture","1536","864","chrome","60.62","Windows 10","22","female","left","Wed Oct 16 2024 10:24:16 GMT+0200 (Mitteleuropäische Sommerzeit)","2","23","0","1729069159466"
"820","j","SpeechGestureMatch","../RequiredFiles/videos/NeinKopfNein_m.mp4","Ist der Ball in der grünen Box?","Green","Blue","J","negation","match","speech","no","HeadShake","male","speech-gesture","1536","864","chrome","60.62","Windows 10","22","female","left","Wed Oct 16 2024 10:24:23 GMT+0200 (Mitteleuropäische Sommerzeit)","2","24","0","1729069159466"
"812","j","SpeechGestureMatch","../RequiredFiles/videos/NeinKopfNein_m.mp4","Ist der Ball in der blauen Box?","Blue","Green","J","negation","match","speech","no","HeadShake","male","speech-gesture","1536","864","chrome","60.62","Windows 10","22","female","left","Wed Oct 16 2024 10:24:29 GMT+0200 (Mitteleuropäische Sommerzeit)","2","25","0","1729069159466"
"1159","f","SpeechGestureMatch","../RequiredFiles/videos/JaKopfJa_m_no_gesture.mp4","Ist der Ball in der blauen Box?","Blue","Green","F","affirmation","na","speech","yes","na","male","speech-gesture","1536","864","chrome","60.62","Windows 10","22","female","left","Wed Oct 16 2024 10:24:36 GMT+0200 (Mitteleuropäische Sommerzeit)","2","26","0","1729069159466"
"867","f","SpeechGestureMatch","../RequiredFiles/videos/NeinKopfNein_m.mp4","Ist der Ball in der blauen Box?","Green","Blue","F","negation","match","speech","no","HeadShake","male","speech-gesture","1536","864","chrome","60.62","Windows 10","22","female","left","Wed Oct 16 2024 10:24:42 GMT+0200 (Mitteleuropäische Sommerzeit)","2","27","0","1729069159466"
"2511","f","SpeechGestureMatch","../RequiredFiles/videos/JaKopfJa_f.mp4","Ist der Ball in der blauen Box?","Blue","Green","F","affirmation","match","speech","yes","HeadNod","female","speech-gesture","1536","864","chrome","60.62","Windows 10","22","female","left","Wed Oct 16 2024 10:24:50 GMT+0200 (Mitteleuropäische Sommerzeit)","2","28","0","1729069159466"
"788","j","SpeechGestureMatch","../RequiredFiles/videos/JaKopfJa_m_no_gesture.mp4","Ist der Ball in der grünen Box?","Blue","Green","J","affirmation","na","speech","yes","na","male","speech-gesture","1536","864","chrome","60.62","Windows 10","22","female","left","Wed Oct 16 2024 10:24:57 GMT+0200 (Mitteleuropäische Sommerzeit)","2","29","0","1729069159466"
"1025","f","SpeechGestureMatch","../RequiredFiles/videos/JaKopfNein_m.mp4","Ist der Ball in der grünen Box?","Green","Blue","F","affirmation","mismatch","speech","yes","HeadShake","male","speech-gesture","1536","864","chrome","60.62","Windows 10","22","female","left","Wed Oct 16 2024 10:25:03 GMT+0200 (Mitteleuropäische Sommerzeit)","2","30","0","1729069159466"
"713","f","SpeechGestureMatch","../RequiredFiles/videos/JaKopfJa_m.mp4","Ist der Ball in der grünen Box?","Green","Blue","F","affirmation","match","speech","yes","HeadNod","male","speech-gesture","1536","864","chrome","60.62","Windows 10","22","female","left","Wed Oct 16 2024 10:25:09 GMT+0200 (Mitteleuropäische Sommerzeit)","2","31","0","1729069159466"
"1261","f","SpeechGestureMatch","../RequiredFiles/videos/NeinKopfNein_f.mp4","Ist der Ball in der grünen Box?","Blue","Green","F","negation","match","speech","no","HeadShake","female","speech-gesture","1536","864","chrome","60.62","Windows 10","22","female","left","Wed Oct 16 2024 10:25:16 GMT+0200 (Mitteleuropäische Sommerzeit)","2","32","0","1729069159466"
"891","f","SpeechGestureMatch","../RequiredFiles/videos/NeinKopfNein_f.mp4","Ist der Ball in der blauen Box?","Green","Blue","F","negation","match","speech","no","HeadShake","female","speech-gesture","1536","864","chrome","60.62","Windows 10","22","female","left","Wed Oct 16 2024 10:25:23 GMT+0200 (Mitteleuropäische Sommerzeit)","2","33","0","1729069159466"
"881","f","SpeechGestureMatch","../RequiredFiles/videos/NeinKopfNein_m_no_gesture.mp4","Ist der Ball in der blauen Box?","Green","Blue","F","negation","na","speech","no","na","male","speech-gesture","1536","864","chrome","60.62","Windows 10","22","female","left","Wed Oct 16 2024 10:25:29 GMT+0200 (Mitteleuropäische Sommerzeit)","2","34","0","1729069159466"
"1014","f","SpeechGestureMatch","../RequiredFiles/videos/NeinKopfNein_f_no_gesture.mp4","Ist der Ball in der grünen Box?","Green","Blue","J","negation","na","speech","no","na","female","speech-gesture","1536","864","chrome","60.62","Windows 10","22","female","left","Wed Oct 16 2024 10:25:36 GMT+0200 (Mitteleuropäische Sommerzeit)","2","35","1","1729069159466"
"999","j","SpeechGestureMatch","../RequiredFiles/videos/NeinKopfJa_m.mp4","Ist der Ball in der grünen Box?","Green","Blue","J","negation","mismatch","speech","no","HeadNod","male","speech-gesture","1536","864","chrome","60.62","Windows 10","22","female","left","Wed Oct 16 2024 10:25:42 GMT+0200 (Mitteleuropäische Sommerzeit)","2","36","0","1729069159466"
"979","j","SpeechGestureMatch","../RequiredFiles/videos/JaKopfJa_f.mp4","Ist der Ball in der blauen Box?","Green","Blue","J","affirmation","match","speech","yes","HeadNod","female","speech-gesture","1536","864","chrome","60.62","Windows 10","22","female","left","Wed Oct 16 2024 10:25:49 GMT+0200 (Mitteleuropäische Sommerzeit)","2","37","0","1729069159466"
"1464","j","SpeechGestureMatch","../RequiredFiles/videos/NeinKopfJa_f_no_gesture.mp4","Ist der Ball in der blauen Box?","Blue","Green","J","negation","na","speech","no","na","female","speech-gesture","1536","864","chrome","60.62","Windows 10","22","female","left","Wed Oct 16 2024 10:25:56 GMT+0200 (Mitteleuropäische Sommerzeit)","2","38","0","1729069159466"
"862","j","SpeechGestureMatch","../RequiredFiles/videos/NeinKopfJa_m_no_gesture.mp4","Ist der Ball in der grünen Box?","Green","Blue","J","negation","na","speech","no","na","male","speech-gesture","1536","864","chrome","60.62","Windows 10","22","female","left","Wed Oct 16 2024 10:26:02 GMT+0200 (Mitteleuropäische Sommerzeit)","2","39","0","1729069159466"
"1381","j","SpeechGestureMatch","../RequiredFiles/videos/NeinKopfJa_f_no_gesture.mp4","Ist der Ball in der grünen Box?","Green","Blue","J","negation","na","speech","no","na","female","speech-gesture","1536","864","chrome","60.62","Windows 10","22","female","left","Wed Oct 16 2024 10:26:09 GMT+0200 (Mitteleuropäische Sommerzeit)","2","40","0","1729069159466"
"1799","j","SpeechGestureMatch","../RequiredFiles/videos/JaKopfNein_m.mp4","Ist der Ball in der grünen Box?","Blue","Green","J","affirmation","mismatch","speech","yes","HeadShake","male","speech-gesture","1536","864","chrome","60.62","Windows 10","22","female","left","Wed Oct 16 2024 10:26:16 GMT+0200 (Mitteleuropäische Sommerzeit)","2","41","0","1729069159466"
"926","f","SpeechGestureMatch","../RequiredFiles/videos/NeinKopfJa_m.mp4","Ist der Ball in der grünen Box?","Blue","Green","F","negation","mismatch","speech","no","HeadNod","male","speech-gesture","1536","864","chrome","60.62","Windows 10","22","female","left","Wed Oct 16 2024 10:26:23 GMT+0200 (Mitteleuropäische Sommerzeit)","2","42","0","1729069159466"
"1371","j","SpeechGestureMatch","../RequiredFiles/videos/JaKopfJa_f.mp4","Ist der Ball in der blauen Box?","Green","Blue","J","affirmation","match","speech","yes","HeadNod","female","speech-gesture","1536","864","chrome","60.62","Windows 10","22","female","left","Wed Oct 16 2024 10:26:30 GMT+0200 (Mitteleuropäische Sommerzeit)","2","43","0","1729069159466"
"788","j","SpeechGestureMatch","../RequiredFiles/videos/NeinKopfNein_m.mp4","Ist der Ball in der grünen Box?","Green","Blue","J","negation","match","speech","no","HeadShake","male","speech-gesture","1536","864","chrome","60.62","Windows 10","22","female","left","Wed Oct 16 2024 10:26:36 GMT+0200 (Mitteleuropäische Sommerzeit)","2","44","0","1729069159466"
"728","f","SpeechGestureMatch","../RequiredFiles/videos/JaKopfNein_m_no_gesture.mp4","Ist der Ball in der grünen Box?","Green","Blue","F","affirmation","na","speech","yes","na","male","speech-gesture","1536","864","chrome","60.62","Windows 10","22","female","left","Wed Oct 16 2024 10:26:42 GMT+0200 (Mitteleuropäische Sommerzeit)","2","45","0","1729069159466"
"1257","j","SpeechGestureMatch","../RequiredFiles/videos/JaKopfJa_m.mp4","Ist der Ball in der grünen Box?","Green","Blue","F","affirmation","match","speech","yes","HeadNod","male","speech-gesture","1536","864","chrome","60.62","Windows 10","22","female","left","Wed Oct 16 2024 10:26:49 GMT+0200 (Mitteleuropäische Sommerzeit)","2","46","1","1729069159466"
"964","f","SpeechGestureMatch","../RequiredFiles/videos/JaKopfNein_m.mp4","Ist der Ball in der blauen Box?","Blue","Green","F","affirmation","mismatch","speech","yes","HeadShake","male","speech-gesture","1536","864","chrome","60.62","Windows 10","22","female","left","Wed Oct 16 2024 10:26:56 GMT+0200 (Mitteleuropäische Sommerzeit)","2","47","0","1729069159466"
"1748","f","SpeechGestureMatch","../RequiredFiles/videos/NeinKopfJa_f.mp4","Ist der Ball in der blauen Box?","Green","Blue","F","negation","mismatch","speech","no","HeadNod","female","speech-gesture","1536","864","chrome","60.62","Windows 10","22","female","left","Wed Oct 16 2024 10:27:03 GMT+0200 (Mitteleuropäische Sommerzeit)","2","48","0","1729069159466"
"1145","j","SpeechGestureMatch","../RequiredFiles/videos/NeinKopfNein_f.mp4","Ist der Ball in der blauen Box?","Blue","Green","J","negation","match","speech","no","HeadShake","female","speech-gesture","1536","864","chrome","60.62","Windows 10","22","female","left","Wed Oct 16 2024 10:27:10 GMT+0200 (Mitteleuropäische Sommerzeit)","2","49","0","1729069159466"
"790","j","SpeechGestureMatch","../RequiredFiles/videos/JaKopfNein_m.mp4","Ist der Ball in der grünen Box?","Blue","Green","J","affirmation","mismatch","speech","yes","HeadShake","male","speech-gesture","1536","864","chrome","60.62","Windows 10","22","female","left","Wed Oct 16 2024 10:27:16 GMT+0200 (Mitteleuropäische Sommerzeit)","2","50","0","1729069159466"
"1489","f","SpeechGestureMatch","../RequiredFiles/videos/NeinKopfJa_m.mp4","Ist der Ball in der blauen Box?","Green","Blue","F","negation","mismatch","speech","no","HeadNod","male","speech-gesture","1536","864","chrome","60.62","Windows 10","22","female","left","Wed Oct 16 2024 10:27:23 GMT+0200 (Mitteleuropäische Sommerzeit)","2","51","0","1729069159466"
"1006","f","SpeechGestureMatch","../RequiredFiles/videos/JaKopfNein_f.mp4","Ist der Ball in der grünen Box?","Green","Blue","F","affirmation","mismatch","speech","yes","HeadShake","female","speech-gesture","1536","864","chrome","60.62","Windows 10","22","female","left","Wed Oct 16 2024 10:27:30 GMT+0200 (Mitteleuropäische Sommerzeit)","2","52","0","1729069159466"
"863","j","SpeechGestureMatch","../RequiredFiles/videos/JaKopfJa_f_no_gesture.mp4","Ist der Ball in der grünen Box?","Blue","Green","J","affirmation","na","speech","yes","na","female","speech-gesture","1536","864","chrome","60.62","Windows 10","22","female","left","Wed Oct 16 2024 10:27:36 GMT+0200 (Mitteleuropäische Sommerzeit)","2","53","0","1729069159466"
"1043","f","SpeechGestureMatch","../RequiredFiles/videos/JaKopfJa_f_no_gesture.mp4","Ist der Ball in der grünen Box?","Green","Blue","F","affirmation","na","speech","yes","na","female","speech-gesture","1536","864","chrome","60.62","Windows 10","22","female","left","Wed Oct 16 2024 10:27:43 GMT+0200 (Mitteleuropäische Sommerzeit)","2","54","0","1729069159466"
"871","j","SpeechGestureMatch","../RequiredFiles/videos/NeinKopfJa_m.mp4","Ist der Ball in der grünen Box?","Green","Blue","J","negation","mismatch","speech","no","HeadNod","male","speech-gesture","1536","864","chrome","60.62","Windows 10","22","female","left","Wed Oct 16 2024 10:27:49 GMT+0200 (Mitteleuropäische Sommerzeit)","2","55","0","1729069159466"
"741","f","SpeechGestureMatch","../RequiredFiles/videos/NeinKopfJa_m_no_gesture.mp4","Ist der Ball in der grünen Box?","Blue","Green","F","negation","na","speech","no","na","male","speech-gesture","1536","864","chrome","60.62","Windows 10","22","female","left","Wed Oct 16 2024 10:27:55 GMT+0200 (Mitteleuropäische Sommerzeit)","2","56","0","1729069159466"
"802","j","SpeechGestureMatch","../RequiredFiles/videos/JaKopfNein_m.mp4","Ist der Ball in der grünen Box?","Green","Blue","F","affirmation","mismatch","speech","yes","HeadShake","male","speech-gesture","1536","864","chrome","60.62","Windows 10","22","female","left","Wed Oct 16 2024 10:28:02 GMT+0200 (Mitteleuropäische Sommerzeit)","2","57","1","1729069159466"
"2191","f","SpeechGestureMatch","../RequiredFiles/videos/NeinKopfJa_f.mp4","Ist der Ball in der grünen Box?","Blue","Green","F","negation","mismatch","speech","no","HeadNod","female","speech-gesture","1536","864","chrome","60.62","Windows 10","22","female","left","Wed Oct 16 2024 10:28:09 GMT+0200 (Mitteleuropäische Sommerzeit)","2","58","0","1729069159466"
"1248","j","SpeechGestureMatch","../RequiredFiles/videos/JaKopfNein_f_no_gesture.mp4","Ist der Ball in der blauen Box?","Green","Blue","J","affirmation","na","speech","yes","na","female","speech-gesture","1536","864","chrome","60.62","Windows 10","22","female","left","Wed Oct 16 2024 10:28:16 GMT+0200 (Mitteleuropäische Sommerzeit)","2","59","0","1729069159466"
"739","j","SpeechGestureMatch","../RequiredFiles/videos/JaKopfJa_m.mp4","Ist der Ball in der blauen Box?","Green","Blue","J","affirmation","match","speech","yes","HeadNod","male","speech-gesture","1536","864","chrome","60.62","Windows 10","22","female","left","Wed Oct 16 2024 10:28:22 GMT+0200 (Mitteleuropäische Sommerzeit)","2","60","0","1729069159466"
"808","f","SpeechGestureMatch","../RequiredFiles/videos/NeinKopfJa_f.mp4","Ist der Ball in der blauen Box?","Green","Blue","F","negation","mismatch","speech","no","HeadNod","female","speech-gesture","1536","864","chrome","60.62","Windows 10","22","female","left","Wed Oct 16 2024 10:28:29 GMT+0200 (Mitteleuropäische Sommerzeit)","2","61","0","1729069159466"
"1396","f","SpeechGestureMatch","../RequiredFiles/videos/JaKopfNein_f.mp4","Ist der Ball in der blauen Box?","Blue","Green","F","affirmation","mismatch","speech","yes","HeadShake","female","speech-gesture","1536","864","chrome","60.62","Windows 10","22","female","left","Wed Oct 16 2024 10:28:36 GMT+0200 (Mitteleuropäische Sommerzeit)","2","62","0","1729069159466"
"1164","f","SpeechGestureMatch","../RequiredFiles/videos/JaKopfNein_m_no_gesture.mp4","Ist der Ball in der blauen Box?","Blue","Green","F","affirmation","na","speech","yes","na","male","speech-gesture","1536","864","chrome","60.62","Windows 10","22","female","left","Wed Oct 16 2024 10:28:42 GMT+0200 (Mitteleuropäische Sommerzeit)","2","63","0","1729069159466"
"789","j","SpeechGestureMatch","../RequiredFiles/videos/NeinKopfNein_m.mp4","Ist der Ball in der blauen Box?","Blue","Green","J","negation","match","speech","no","HeadShake","male","speech-gesture","1536","864","chrome","60.62","Windows 10","22","female","left","Wed Oct 16 2024 10:28:49 GMT+0200 (Mitteleuropäische Sommerzeit)","2","64","0","1729069159466"
"1405","f","SpeechGestureMatch","../RequiredFiles/videos/NeinKopfNein_f_no_gesture.mp4","Ist der Ball in der blauen Box?","Green","Blue","F","negation","na","speech","no","na","female","speech-gesture","1536","864","chrome","60.62","Windows 10","22","female","left","Wed Oct 16 2024 10:28:56 GMT+0200 (Mitteleuropäische Sommerzeit)","2","65","0","1729069159466"
"782","j","SpeechGestureMatch","../RequiredFiles/videos/JaKopfJa_f.mp4","Ist der Ball in der grünen Box?","Blue","Green","J","affirmation","match","speech","yes","HeadNod","female","speech-gesture","1536","864","chrome","60.62","Windows 10","22","female","left","Wed Oct 16 2024 10:29:02 GMT+0200 (Mitteleuropäische Sommerzeit)","2","66","0","1729069159466"
"1147","f","SpeechGestureMatch","../RequiredFiles/videos/JaKopfJa_m_no_gesture.mp4","Ist der Ball in der grünen Box?","Green","Blue","F","affirmation","na","speech","yes","na","male","speech-gesture","1536","864","chrome","60.62","Windows 10","22","female","left","Wed Oct 16 2024 10:29:09 GMT+0200 (Mitteleuropäische Sommerzeit)","2","67","0","1729069159466"
"765","f","SpeechGestureMatch","../RequiredFiles/videos/NeinKopfNein_f.mp4","Ist der Ball in der grünen Box?","Blue","Green","F","negation","match","speech","no","HeadShake","female","speech-gesture","1536","864","chrome","60.62","Windows 10","22","female","left","Wed Oct 16 2024 10:29:15 GMT+0200 (Mitteleuropäische Sommerzeit)","2","68","0","1729069159466"
"759","f","SpeechGestureMatch","../RequiredFiles/videos/JaKopfJa_m.mp4","Ist der Ball in der blauen Box?","Blue","Green","F","affirmation","match","speech","yes","HeadNod","male","speech-gesture","1536","864","chrome","60.62","Windows 10","22","female","left","Wed Oct 16 2024 10:29:21 GMT+0200 (Mitteleuropäische Sommerzeit)","2","69","0","1729069159466"
"869","j","SpeechGestureMatch","../RequiredFiles/videos/JaKopfNein_f.mp4","Ist der Ball in der grünen Box?","Blue","Green","J","affirmation","mismatch","speech","yes","HeadShake","female","speech-gesture","1536","864","chrome","60.62","Windows 10","22","female","left","Wed Oct 16 2024 10:29:28 GMT+0200 (Mitteleuropäische Sommerzeit)","2","70","0","1729069159466"
"916","f","SpeechGestureMatch","../RequiredFiles/videos/NeinKopfJa_f.mp4","Ist der Ball in der grünen Box?","Blue","Green","F","negation","mismatch","speech","no","HeadNod","female","speech-gesture","1536","864","chrome","60.62","Windows 10","22","female","left","Wed Oct 16 2024 10:29:34 GMT+0200 (Mitteleuropäische Sommerzeit)","2","71","0","1729069159466"
"881","f","SpeechGestureMatch","../RequiredFiles/videos/NeinKopfNein_m.mp4","Ist der Ball in der blauen Box?","Green","Blue","F","negation","match","speech","no","HeadShake","male","speech-gesture","1536","864","chrome","60.62","Windows 10","22","female","left","Wed Oct 16 2024 10:29:41 GMT+0200 (Mitteleuropäische Sommerzeit)","2","72","0","1729069159466"
"743","j","SpeechGestureMatch","../RequiredFiles/videos/JaKopfJa_m_no_gesture.mp4","Ist der Ball in der blauen Box?","Green","Blue","J","affirmation","na","speech","yes","na","male","speech-gesture","1536","864","chrome","60.62","Windows 10","22","female","left","Wed Oct 16 2024 10:29:47 GMT+0200 (Mitteleuropäische Sommerzeit)","2","73","0","1729069159466"
"1182","f","SpeechGestureMatch","../RequiredFiles/videos/NeinKopfNein_f.mp4","Ist der Ball in der blauen Box?","Green","Blue","F","negation","match","speech","no","HeadShake","female","speech-gesture","1536","864","chrome","60.62","Windows 10","22","female","left","Wed Oct 16 2024 10:29:54 GMT+0200 (Mitteleuropäische Sommerzeit)","2","74","0","1729069159466"
"1615","f","SpeechGestureMatch","../RequiredFiles/videos/NeinKopfNein_f.mp4","Ist der Ball in der blauen Box?","Blue","Green","J","negation","match","speech","no","HeadShake","female","speech-gesture","1536","864","chrome","60.62","Windows 10","22","female","left","Wed Oct 16 2024 10:30:01 GMT+0200 (Mitteleuropäische Sommerzeit)","2","75","1","1729069159466"
"1112","j","SpeechGestureMatch","../RequiredFiles/videos/JaKopfJa_f_no_gesture.mp4","Ist der Ball in der blauen Box?","Green","Blue","J","affirmation","na","speech","yes","na","female","speech-gesture","1536","864","chrome","60.62","Windows 10","22","female","left","Wed Oct 16 2024 10:30:07 GMT+0200 (Mitteleuropäische Sommerzeit)","2","76","0","1729069159466"
"933","j","SpeechGestureMatch","../RequiredFiles/videos/NeinKopfJa_m_no_gesture.mp4","Ist der Ball in der blauen Box?","Blue","Green","J","negation","na","speech","no","na","male","speech-gesture","1536","864","chrome","60.62","Windows 10","22","female","left","Wed Oct 16 2024 10:30:14 GMT+0200 (Mitteleuropäische Sommerzeit)","2","77","0","1729069159466"
"1105","f","SpeechGestureMatch","../RequiredFiles/videos/NeinKopfNein_m_no_gesture.mp4","Ist der Ball in der grünen Box?","Blue","Green","F","negation","na","speech","no","na","male","speech-gesture","1536","864","chrome","60.62","Windows 10","22","female","left","Wed Oct 16 2024 10:30:21 GMT+0200 (Mitteleuropäische Sommerzeit)","2","78","0","1729069159466"
"902","f","SpeechGestureMatch","../RequiredFiles/videos/NeinKopfNein_m.mp4","Ist der Ball in der grünen Box?","Blue","Green","F","negation","match","speech","no","HeadShake","male","speech-gesture","1536","864","chrome","60.62","Windows 10","22","female","left","Wed Oct 16 2024 10:30:27 GMT+0200 (Mitteleuropäische Sommerzeit)","2","79","0","1729069159466"
"1007","f","SpeechGestureMatch","../RequiredFiles/videos/JaKopfNein_f.mp4","Ist der Ball in der blauen Box?","Blue","Green","F","affirmation","mismatch","speech","yes","HeadShake","female","speech-gesture","1536","864","chrome","60.62","Windows 10","22","female","left","Wed Oct 16 2024 10:30:34 GMT+0200 (Mitteleuropäische Sommerzeit)","2","80","0","1729069159466"
"2183","j","SpeechGestureMatch","../RequiredFiles/videos/NeinKopfJa_m.mp4","Ist der Ball in der blauen Box?","Blue","Green","J","negation","mismatch","speech","no","HeadNod","male","speech-gesture","1536","864","chrome","60.62","Windows 10","22","female","left","Wed Oct 16 2024 10:30:41 GMT+0200 (Mitteleuropäische Sommerzeit)","2","81","0","1729069159466"
"892","f","SpeechGestureMatch","../RequiredFiles/videos/JaKopfNein_f_no_gesture.mp4","Ist der Ball in der grünen Box?","Green","Blue","F","affirmation","na","speech","yes","na","female","speech-gesture","1536","864","chrome","60.62","Windows 10","22","female","left","Wed Oct 16 2024 10:30:48 GMT+0200 (Mitteleuropäische Sommerzeit)","2","82","0","1729069159466"
"1189","f","SpeechGestureMatch","../RequiredFiles/videos/NeinKopfNein_m.mp4","Ist der Ball in der grünen Box?","Blue","Green","F","negation","match","speech","no","HeadShake","male","speech-gesture","1536","864","chrome","60.62","Windows 10","22","female","left","Wed Oct 16 2024 10:30:55 GMT+0200 (Mitteleuropäische Sommerzeit)","2","83","0","1729069159466"
"988","j","SpeechGestureMatch","../RequiredFiles/videos/NeinKopfNein_f.mp4","Ist der Ball in der grünen Box?","Green","Blue","J","negation","match","speech","no","HeadShake","female","speech-gesture","1536","864","chrome","60.62","Windows 10","22","female","left","Wed Oct 16 2024 10:31:01 GMT+0200 (Mitteleuropäische Sommerzeit)","2","84","0","1729069159466"
"965","j","SpeechGestureMatch","../RequiredFiles/videos/JaKopfNein_m_no_gesture.mp4","Ist der Ball in der blauen Box?","Green","Blue","J","affirmation","na","speech","yes","na","male","speech-gesture","1536","864","chrome","60.62","Windows 10","22","female","left","Wed Oct 16 2024 10:31:08 GMT+0200 (Mitteleuropäische Sommerzeit)","2","85","0","1729069159466"
"1043","j","SpeechGestureMatch","../RequiredFiles/videos/NeinKopfNein_m_no_gesture.mp4","Ist der Ball in der blauen Box?","Blue","Green","J","negation","na","speech","no","na","male","speech-gesture","1536","864","chrome","60.62","Windows 10","22","female","left","Wed Oct 16 2024 10:31:14 GMT+0200 (Mitteleuropäische Sommerzeit)","2","86","0","1729069159466"
"881","j","SpeechGestureMatch","../RequiredFiles/videos/NeinKopfNein_f.mp4","Ist der Ball in der grünen Box?","Green","Blue","J","negation","match","speech","no","HeadShake","female","speech-gesture","1536","864","chrome","60.62","Windows 10","22","female","left","Wed Oct 16 2024 10:31:21 GMT+0200 (Mitteleuropäische Sommerzeit)","2","87","0","1729069159466"
"746","f","SpeechGestureMatch","../RequiredFiles/videos/JaKopfJa_f.mp4","Ist der Ball in der grünen Box?","Green","Blue","F","affirmation","match","speech","yes","HeadNod","female","speech-gesture","1536","864","chrome","60.62","Windows 10","22","female","left","Wed Oct 16 2024 10:31:27 GMT+0200 (Mitteleuropäische Sommerzeit)","2","88","0","1729069159466"
"865","f","SpeechGestureMatch","../RequiredFiles/videos/JaKopfNein_m.mp4","Ist der Ball in der blauen Box?","Blue","Green","F","affirmation","mismatch","speech","yes","HeadShake","male","speech-gesture","1536","864","chrome","60.62","Windows 10","22","female","left","Wed Oct 16 2024 10:31:33 GMT+0200 (Mitteleuropäische Sommerzeit)","2","89","0","1729069159466"
"1737","f","SpeechGestureMatch","../RequiredFiles/videos/JaKopfJa_f_no_gesture.mp4","Ist der Ball in der blauen Box?","Blue","Green","F","affirmation","na","speech","yes","na","female","speech-gesture","1536","864","chrome","60.62","Windows 10","22","female","left","Wed Oct 16 2024 10:31:41 GMT+0200 (Mitteleuropäische Sommerzeit)","2","90","0","1729069159466"
"768","j","SpeechGestureMatch","../RequiredFiles/videos/NeinKopfNein_m_no_gesture.mp4","Ist der Ball in der grünen Box?","Green","Blue","J","negation","na","speech","no","na","male","speech-gesture","1536","864","chrome","60.62","Windows 10","22","female","left","Wed Oct 16 2024 10:31:47 GMT+0200 (Mitteleuropäische Sommerzeit)","2","91","0","1729069159466"
"774","j","SpeechGestureMatch","../RequiredFiles/videos/JaKopfNein_m.mp4","Ist der Ball in der blauen Box?","Green","Blue","J","affirmation","mismatch","speech","yes","HeadShake","male","speech-gesture","1536","864","chrome","60.62","Windows 10","22","female","left","Wed Oct 16 2024 10:31:53 GMT+0200 (Mitteleuropäische Sommerzeit)","2","92","0","1729069159466"
"758","j","SpeechGestureMatch","../RequiredFiles/videos/NeinKopfJa_f.mp4","Ist der Ball in der blauen Box?","Blue","Green","J","negation","mismatch","speech","no","HeadNod","female","speech-gesture","1536","864","chrome","60.62","Windows 10","22","female","left","Wed Oct 16 2024 10:32:00 GMT+0200 (Mitteleuropäische Sommerzeit)","2","93","0","1729069159466"
"1816","f","SpeechGestureMatch","../RequiredFiles/videos/NeinKopfJa_m.mp4","Ist der Ball in der grünen Box?","Blue","Green","F","negation","mismatch","speech","no","HeadNod","male","speech-gesture","1536","864","chrome","60.62","Windows 10","22","female","left","Wed Oct 16 2024 10:32:07 GMT+0200 (Mitteleuropäische Sommerzeit)","2","94","0","1729069159466"
"998","f","SpeechGestureMatch","../RequiredFiles/videos/NeinKopfJa_m_no_gesture.mp4","Ist der Ball in der blauen Box?","Green","Blue","F","negation","na","speech","no","na","male","speech-gesture","1536","864","chrome","60.62","Windows 10","22","female","left","Wed Oct 16 2024 10:32:13 GMT+0200 (Mitteleuropäische Sommerzeit)","2","95","0","1729069159466"
"865","f","SpeechGestureMatch","../RequiredFiles/videos/JaKopfNein_f_no_gesture.mp4","Ist der Ball in der blauen Box?","Blue","Green","F","affirmation","na","speech","yes","na","female","speech-gesture","1536","864","chrome","60.62","Windows 10","22","female","left","Wed Oct 16 2024 10:32:20 GMT+0200 (Mitteleuropäische Sommerzeit)","2","96","0","1729069159466"
"778","f","SpeechGestureMatch","../RequiredFiles/videos/NeinKopfJa_f_no_sound.mp4","Ist der Ball in der grünen Box?","Green","Blue","F","affirmation","na","gesture","na","HeadNod","female","speech-gesture","1536","864","chrome","60.62","Windows 10","22","female","left","Wed Oct 16 2024 10:37:50 GMT+0200 (Mitteleuropäische Sommerzeit)","3","1","0","1729069159466"
"1454","j","SpeechGestureMatch","../RequiredFiles/videos/NeinKopfJa_f.mp4","Ist der Ball in der grünen Box?","Blue","Green","J","affirmation","mismatch","gesture","no","HeadNod","female","speech-gesture","1536","864","chrome","60.62","Windows 10","22","female","left","Wed Oct 16 2024 10:37:57 GMT+0200 (Mitteleuropäische Sommerzeit)","3","2","0","1729069159466"
"783","f","SpeechGestureMatch","../RequiredFiles/videos/JaKopfJa_f_no_sound.mp4","Ist der Ball in der blauen Box?","Blue","Green","F","affirmation","na","gesture","na","HeadNod","female","speech-gesture","1536","864","chrome","60.62","Windows 10","22","female","left","Wed Oct 16 2024 10:38:04 GMT+0200 (Mitteleuropäische Sommerzeit)","3","3","0","1729069159466"
"1162","j","SpeechGestureMatch","../RequiredFiles/videos/JaKopfJa_f.mp4","Ist der Ball in der blauen Box?","Green","Blue","J","affirmation","match","gesture","yes","HeadNod","female","speech-gesture","1536","864","chrome","60.62","Windows 10","22","female","left","Wed Oct 16 2024 10:38:10 GMT+0200 (Mitteleuropäische Sommerzeit)","3","4","0","1729069159466"
"2005","f","SpeechGestureMatch","../RequiredFiles/videos/NeinKopfNein_f.mp4","Ist der Ball in der blauen Box?","Green","Blue","F","negation","match","gesture","no","HeadShake","female","speech-gesture","1536","864","chrome","60.62","Windows 10","22","female","left","Wed Oct 16 2024 10:38:18 GMT+0200 (Mitteleuropäische Sommerzeit)","3","5","0","1729069159466"
"961","j","SpeechGestureMatch","../RequiredFiles/videos/NeinKopfJa_f.mp4","Ist der Ball in der blauen Box?","Green","Blue","J","affirmation","mismatch","gesture","no","HeadNod","female","speech-gesture","1536","864","chrome","60.62","Windows 10","22","female","left","Wed Oct 16 2024 10:38:24 GMT+0200 (Mitteleuropäische Sommerzeit)","3","6","0","1729069159466"
"902","j","SpeechGestureMatch","../RequiredFiles/videos/JaKopfJa_f_no_sound.mp4","Ist der Ball in der blauen Box?","Green","Blue","J","affirmation","na","gesture","na","HeadNod","female","speech-gesture","1536","864","chrome","60.62","Windows 10","22","female","left","Wed Oct 16 2024 10:38:31 GMT+0200 (Mitteleuropäische Sommerzeit)","3","7","0","1729069159466"
"1329","j","SpeechGestureMatch","../RequiredFiles/videos/NeinKopfNein_f_no_sound.mp4","Ist der Ball in der grünen Box?","Green","Blue","J","negation","na","gesture","na","HeadShake","female","speech-gesture","1536","864","chrome","60.62","Windows 10","22","female","left","Wed Oct 16 2024 10:38:38 GMT+0200 (Mitteleuropäische Sommerzeit)","3","8","0","1729069159466"
"1340","f","SpeechGestureMatch","../RequiredFiles/videos/NeinKopfJa_f.mp4","Ist der Ball in der blauen Box?","Blue","Green","F","affirmation","mismatch","gesture","no","HeadNod","female","speech-gesture","1536","864","chrome","60.62","Windows 10","22","female","left","Wed Oct 16 2024 10:38:45 GMT+0200 (Mitteleuropäische Sommerzeit)","3","9","0","1729069159466"
"840","j","SpeechGestureMatch","../RequiredFiles/videos/JaKopfJa_m.mp4","Ist der Ball in der blauen Box?","Green","Blue","J","affirmation","match","gesture","yes","HeadNod","male","speech-gesture","1536","864","chrome","60.62","Windows 10","22","female","left","Wed Oct 16 2024 10:38:51 GMT+0200 (Mitteleuropäische Sommerzeit)","3","10","0","1729069159466"
"1528","j","SpeechGestureMatch","../RequiredFiles/videos/NeinKopfNein_m.mp4","Ist der Ball in der blauen Box?","Blue","Green","J","negation","match","gesture","no","HeadShake","male","speech-gesture","1536","864","chrome","60.62","Windows 10","22","female","left","Wed Oct 16 2024 10:38:58 GMT+0200 (Mitteleuropäische Sommerzeit)","3","11","0","1729069159466"
"874","f","SpeechGestureMatch","../RequiredFiles/videos/NeinKopfNein_m_no_sound.mp4","Ist der Ball in der grünen Box?","Blue","Green","F","negation","na","gesture","na","HeadShake","male","speech-gesture","1536","864","chrome","60.62","Windows 10","22","female","left","Wed Oct 16 2024 10:39:04 GMT+0200 (Mitteleuropäische Sommerzeit)","3","12","0","1729069159466"
"1185","j","SpeechGestureMatch","../RequiredFiles/videos/NeinKopfJa_m.mp4","Ist der Ball in der blauen Box?","Green","Blue","J","affirmation","mismatch","gesture","no","HeadNod","male","speech-gesture","1536","864","chrome","60.62","Windows 10","22","female","left","Wed Oct 16 2024 10:39:11 GMT+0200 (Mitteleuropäische Sommerzeit)","3","13","0","1729069159466"
"939","f","SpeechGestureMatch","../RequiredFiles/videos/JaKopfNein_f.mp4","Ist der Ball in der blauen Box?","Green","Blue","F","negation","mismatch","gesture","yes","HeadShake","female","speech-gesture","1536","864","chrome","60.62","Windows 10","22","female","left","Wed Oct 16 2024 10:39:18 GMT+0200 (Mitteleuropäische Sommerzeit)","3","14","0","1729069159466"
"775","j","SpeechGestureMatch","../RequiredFiles/videos/JaKopfNein_m_no_sound.mp4","Ist der Ball in der blauen Box?","Blue","Green","J","negation","na","gesture","na","HeadShake","male","speech-gesture","1536","864","chrome","60.62","Windows 10","22","female","left","Wed Oct 16 2024 10:39:24 GMT+0200 (Mitteleuropäische Sommerzeit)","3","15","0","1729069159466"
"963","f","SpeechGestureMatch","../RequiredFiles/videos/JaKopfNein_f_no_sound.mp4","Ist der Ball in der grünen Box?","Blue","Green","F","negation","na","gesture","na","HeadShake","female","speech-gesture","1536","864","chrome","60.62","Windows 10","22","female","left","Wed Oct 16 2024 10:39:30 GMT+0200 (Mitteleuropäische Sommerzeit)","3","16","0","1729069159466"
"1173","j","SpeechGestureMatch","../RequiredFiles/videos/JaKopfJa_m.mp4","Ist der Ball in der grünen Box?","Blue","Green","J","affirmation","match","gesture","yes","HeadNod","male","speech-gesture","1536","864","chrome","60.62","Windows 10","22","female","left","Wed Oct 16 2024 10:39:37 GMT+0200 (Mitteleuropäische Sommerzeit)","3","17","0","1729069159466"
"922","f","SpeechGestureMatch","../RequiredFiles/videos/NeinKopfNein_f.mp4","Ist der Ball in der blauen Box?","Green","Blue","F","negation","match","gesture","no","HeadShake","female","speech-gesture","1536","864","chrome","60.62","Windows 10","22","female","left","Wed Oct 16 2024 10:39:44 GMT+0200 (Mitteleuropäische Sommerzeit)","3","18","0","1729069159466"
"1047","f","SpeechGestureMatch","../RequiredFiles/videos/JaKopfJa_f.mp4","Ist der Ball in der grünen Box?","Green","Blue","F","affirmation","match","gesture","yes","HeadNod","female","speech-gesture","1536","864","chrome","60.62","Windows 10","22","female","left","Wed Oct 16 2024 10:39:50 GMT+0200 (Mitteleuropäische Sommerzeit)","3","19","0","1729069159466"
"933","j","SpeechGestureMatch","../RequiredFiles/videos/NeinKopfNein_f.mp4","Ist der Ball in der blauen Box?","Blue","Green","J","negation","match","gesture","no","HeadShake","female","speech-gesture","1536","864","chrome","60.62","Windows 10","22","female","left","Wed Oct 16 2024 10:39:57 GMT+0200 (Mitteleuropäische Sommerzeit)","3","20","0","1729069159466"
"865","f","SpeechGestureMatch","../RequiredFiles/videos/NeinKopfJa_m.mp4","Ist der Ball in der grünen Box?","Green","Blue","F","affirmation","mismatch","gesture","no","HeadNod","male","speech-gesture","1536","864","chrome","60.62","Windows 10","22","female","left","Wed Oct 16 2024 10:40:03 GMT+0200 (Mitteleuropäische Sommerzeit)","3","21","0","1729069159466"
"1996","f","SpeechGestureMatch","../RequiredFiles/videos/JaKopfNein_m.mp4","Ist der Ball in der blauen Box?","Blue","Green","J","negation","mismatch","gesture","yes","HeadShake","male","speech-gesture","1536","864","chrome","60.62","Windows 10","22","female","left","Wed Oct 16 2024 10:40:11 GMT+0200 (Mitteleuropäische Sommerzeit)","3","22","1","1729069159466"
"1782","j","SpeechGestureMatch","../RequiredFiles/videos/NeinKopfNein_m.mp4","Ist der Ball in der blauen Box?","Blue","Green","J","negation","match","gesture","no","HeadShake","male","speech-gesture","1536","864","chrome","60.62","Windows 10","22","female","left","Wed Oct 16 2024 10:40:18 GMT+0200 (Mitteleuropäische Sommerzeit)","3","23","0","1729069159466"
"1020","f","SpeechGestureMatch","../RequiredFiles/videos/JaKopfNein_f.mp4","Ist der Ball in der blauen Box?","Green","Blue","F","negation","mismatch","gesture","yes","HeadShake","female","speech-gesture","1536","864","chrome","60.62","Windows 10","22","female","left","Wed Oct 16 2024 10:40:25 GMT+0200 (Mitteleuropäische Sommerzeit)","3","24","0","1729069159466"
"2142","f","SpeechGestureMatch","../RequiredFiles/videos/JaKopfNein_m.mp4","Ist der Ball in der blauen Box?","Green","Blue","F","negation","mismatch","gesture","yes","HeadShake","male","speech-gesture","1536","864","chrome","60.62","Windows 10","22","female","left","Wed Oct 16 2024 10:40:32 GMT+0200 (Mitteleuropäische Sommerzeit)","3","25","0","1729069159466"
"1090","j","SpeechGestureMatch","../RequiredFiles/videos/NeinKopfNein_m.mp4","Ist der Ball in der grünen Box?","Green","Blue","J","negation","match","gesture","no","HeadShake","male","speech-gesture","1536","864","chrome","60.62","Windows 10","22","female","left","Wed Oct 16 2024 10:40:39 GMT+0200 (Mitteleuropäische Sommerzeit)","3","26","0","1729069159466"
"846","f","SpeechGestureMatch","../RequiredFiles/videos/JaKopfNein_m.mp4","Ist der Ball in der grünen Box?","Blue","Green","F","negation","mismatch","gesture","yes","HeadShake","male","speech-gesture","1536","864","chrome","60.62","Windows 10","22","female","left","Wed Oct 16 2024 10:40:45 GMT+0200 (Mitteleuropäische Sommerzeit)","3","27","0","1729069159466"
"768","j","SpeechGestureMatch","../RequiredFiles/videos/JaKopfNein_m_no_sound.mp4","Ist der Ball in der grünen Box?","Green","Blue","J","negation","na","gesture","na","HeadShake","male","speech-gesture","1536","864","chrome","60.62","Windows 10","22","female","left","Wed Oct 16 2024 10:40:52 GMT+0200 (Mitteleuropäische Sommerzeit)","3","28","0","1729069159466"
"2927","j","SpeechGestureMatch","../RequiredFiles/videos/NeinKopfJa_f_no_sound.mp4","Ist der Ball in der grünen Box?","Blue","Green","J","affirmation","na","gesture","na","HeadNod","female","speech-gesture","1536","864","chrome","60.62","Windows 10","22","female","left","Wed Oct 16 2024 10:41:00 GMT+0200 (Mitteleuropäische Sommerzeit)","3","29","0","1729069159466"
"1573","f","SpeechGestureMatch","../RequiredFiles/videos/JaKopfJa_m.mp4","Ist der Ball in der blauen Box?","Blue","Green","F","affirmation","match","gesture","yes","HeadNod","male","speech-gesture","1536","864","chrome","60.62","Windows 10","22","female","left","Wed Oct 16 2024 10:41:07 GMT+0200 (Mitteleuropäische Sommerzeit)","3","30","0","1729069159466"
"1021","f","SpeechGestureMatch","../RequiredFiles/videos/NeinKopfNein_m.mp4","Ist der Ball in der grünen Box?","Blue","Green","F","negation","match","gesture","no","HeadShake","male","speech-gesture","1536","864","chrome","60.62","Windows 10","22","female","left","Wed Oct 16 2024 10:41:14 GMT+0200 (Mitteleuropäische Sommerzeit)","3","31","0","1729069159466"
"1118","f","SpeechGestureMatch","../RequiredFiles/videos/NeinKopfJa_m.mp4","Ist der Ball in der blauen Box?","Blue","Green","F","affirmation","mismatch","gesture","no","HeadNod","male","speech-gesture","1536","864","chrome","60.62","Windows 10","22","female","left","Wed Oct 16 2024 10:41:20 GMT+0200 (Mitteleuropäische Sommerzeit)","3","32","0","1729069159466"
"960","f","SpeechGestureMatch","../RequiredFiles/videos/NeinKopfJa_f.mp4","Ist der Ball in der grünen Box?","Green","Blue","F","affirmation","mismatch","gesture","no","HeadNod","female","speech-gesture","1536","864","chrome","60.62","Windows 10","22","female","left","Wed Oct 16 2024 10:41:27 GMT+0200 (Mitteleuropäische Sommerzeit)","3","33","0","1729069159466"
"1164","j","SpeechGestureMatch","../RequiredFiles/videos/JaKopfNein_f.mp4","Ist der Ball in der blauen Box?","Blue","Green","J","negation","mismatch","gesture","yes","HeadShake","female","speech-gesture","1536","864","chrome","60.62","Windows 10","22","female","left","Wed Oct 16 2024 10:41:34 GMT+0200 (Mitteleuropäische Sommerzeit)","3","34","0","1729069159466"
"943","f","SpeechGestureMatch","../RequiredFiles/videos/NeinKopfNein_m.mp4","Ist der Ball in der grünen Box?","Blue","Green","F","negation","match","gesture","no","HeadShake","male","speech-gesture","1536","864","chrome","60.62","Windows 10","22","female","left","Wed Oct 16 2024 10:41:40 GMT+0200 (Mitteleuropäische Sommerzeit)","3","35","0","1729069159466"
"879","f","SpeechGestureMatch","../RequiredFiles/videos/JaKopfNein_m_no_sound.mp4","Ist der Ball in der blauen Box?","Green","Blue","F","negation","na","gesture","na","HeadShake","male","speech-gesture","1536","864","chrome","60.62","Windows 10","22","female","left","Wed Oct 16 2024 10:41:47 GMT+0200 (Mitteleuropäische Sommerzeit)","3","36","0","1729069159466"
"1168","f","SpeechGestureMatch","../RequiredFiles/videos/NeinKopfNein_f.mp4","Ist der Ball in der grünen Box?","Blue","Green","F","negation","match","gesture","no","HeadShake","female","speech-gesture","1536","864","chrome","60.62","Windows 10","22","female","left","Wed Oct 16 2024 10:41:53 GMT+0200 (Mitteleuropäische Sommerzeit)","3","37","0","1729069159466"
"815","j","SpeechGestureMatch","../RequiredFiles/videos/NeinKopfJa_m.mp4","Ist der Ball in der blauen Box?","Green","Blue","J","affirmation","mismatch","gesture","no","HeadNod","male","speech-gesture","1536","864","chrome","60.62","Windows 10","22","female","left","Wed Oct 16 2024 10:42:00 GMT+0200 (Mitteleuropäische Sommerzeit)","3","38","0","1729069159466"
"794","f","SpeechGestureMatch","../RequiredFiles/videos/JaKopfNein_m_no_sound.mp4","Ist der Ball in der grünen Box?","Blue","Green","F","negation","na","gesture","na","HeadShake","male","speech-gesture","1536","864","chrome","60.62","Windows 10","22","female","left","Wed Oct 16 2024 10:42:06 GMT+0200 (Mitteleuropäische Sommerzeit)","3","39","0","1729069159466"
"1052","f","SpeechGestureMatch","../RequiredFiles/videos/NeinKopfJa_f.mp4","Ist der Ball in der blauen Box?","Blue","Green","F","affirmation","mismatch","gesture","no","HeadNod","female","speech-gesture","1536","864","chrome","60.62","Windows 10","22","female","left","Wed Oct 16 2024 10:42:13 GMT+0200 (Mitteleuropäische Sommerzeit)","3","40","0","1729069159466"
"1621","j","SpeechGestureMatch","../RequiredFiles/videos/JaKopfNein_f.mp4","Ist der Ball in der grünen Box?","Green","Blue","J","negation","mismatch","gesture","yes","HeadShake","female","speech-gesture","1536","864","chrome","60.62","Windows 10","22","female","left","Wed Oct 16 2024 10:42:20 GMT+0200 (Mitteleuropäische Sommerzeit)","3","41","0","1729069159466"
"1083","f","SpeechGestureMatch","../RequiredFiles/videos/NeinKopfJa_m_no_sound.mp4","Ist der Ball in der blauen Box?","Blue","Green","F","affirmation","na","gesture","na","HeadNod","male","speech-gesture","1536","864","chrome","60.62","Windows 10","22","female","left","Wed Oct 16 2024 10:42:26 GMT+0200 (Mitteleuropäische Sommerzeit)","3","42","0","1729069159466"
"968","f","SpeechGestureMatch","../RequiredFiles/videos/NeinKopfJa_f.mp4","Ist der Ball in der grünen Box?","Green","Blue","F","affirmation","mismatch","gesture","no","HeadNod","female","speech-gesture","1536","864","chrome","60.62","Windows 10","22","female","left","Wed Oct 16 2024 10:42:33 GMT+0200 (Mitteleuropäische Sommerzeit)","3","43","0","1729069159466"
"980","j","SpeechGestureMatch","../RequiredFiles/videos/JaKopfNein_f.mp4","Ist der Ball in der grünen Box?","Green","Blue","J","negation","mismatch","gesture","yes","HeadShake","female","speech-gesture","1536","864","chrome","60.62","Windows 10","22","female","left","Wed Oct 16 2024 10:42:39 GMT+0200 (Mitteleuropäische Sommerzeit)","3","44","0","1729069159466"
"794","f","SpeechGestureMatch","../RequiredFiles/videos/JaKopfJa_f.mp4","Ist der Ball in der blauen Box?","Blue","Green","F","affirmation","match","gesture","yes","HeadNod","female","speech-gesture","1536","864","chrome","60.62","Windows 10","22","female","left","Wed Oct 16 2024 10:42:46 GMT+0200 (Mitteleuropäische Sommerzeit)","3","45","0","1729069159466"
"793","f","SpeechGestureMatch","../RequiredFiles/videos/NeinKopfNein_m_no_sound.mp4","Ist der Ball in der blauen Box?","Green","Blue","F","negation","na","gesture","na","HeadShake","male","speech-gesture","1536","864","chrome","60.62","Windows 10","22","female","left","Wed Oct 16 2024 10:42:52 GMT+0200 (Mitteleuropäische Sommerzeit)","3","46","0","1729069159466"
"1691","j","SpeechGestureMatch","../RequiredFiles/videos/JaKopfNein_m.mp4","Ist der Ball in der blauen Box?","Blue","Green","J","negation","mismatch","gesture","yes","HeadShake","male","speech-gesture","1536","864","chrome","60.62","Windows 10","22","female","left","Wed Oct 16 2024 10:42:59 GMT+0200 (Mitteleuropäische Sommerzeit)","3","47","0","1729069159466"
"1391","f","SpeechGestureMatch","../RequiredFiles/videos/JaKopfJa_f.mp4","Ist der Ball in der blauen Box?","Blue","Green","F","affirmation","match","gesture","yes","HeadNod","female","speech-gesture","1536","864","chrome","60.62","Windows 10","22","female","left","Wed Oct 16 2024 10:43:06 GMT+0200 (Mitteleuropäische Sommerzeit)","3","48","0","1729069159466"
"1507","f","SpeechGestureMatch","../RequiredFiles/videos/NeinKopfNein_f.mp4","Ist der Ball in der blauen Box?","Blue","Green","J","negation","match","gesture","no","HeadShake","female","speech-gesture","1536","864","chrome","60.62","Windows 10","22","female","left","Wed Oct 16 2024 10:43:13 GMT+0200 (Mitteleuropäische Sommerzeit)","3","49","1","1729069159466"
"813","f","SpeechGestureMatch","../RequiredFiles/videos/JaKopfJa_f_no_sound.mp4","Ist der Ball in der grünen Box?","Green","Blue","F","affirmation","na","gesture","na","HeadNod","female","speech-gesture","1536","864","chrome","60.62","Windows 10","22","female","left","Wed Oct 16 2024 10:43:20 GMT+0200 (Mitteleuropäische Sommerzeit)","3","50","0","1729069159466"
"1209","f","SpeechGestureMatch","../RequiredFiles/videos/JaKopfNein_f.mp4","Ist der Ball in der grünen Box?","Blue","Green","F","negation","mismatch","gesture","yes","HeadShake","female","speech-gesture","1536","864","chrome","60.62","Windows 10","22","female","left","Wed Oct 16 2024 10:43:27 GMT+0200 (Mitteleuropäische Sommerzeit)","3","51","0","1729069159466"
"1115","j","SpeechGestureMatch","../RequiredFiles/videos/NeinKopfJa_m_no_sound.mp4","Ist der Ball in der grünen Box?","Blue","Green","J","affirmation","na","gesture","na","HeadNod","male","speech-gesture","1536","864","chrome","60.62","Windows 10","22","female","left","Wed Oct 16 2024 10:43:33 GMT+0200 (Mitteleuropäische Sommerzeit)","3","52","0","1729069159466"
"816","f","SpeechGestureMatch","../RequiredFiles/videos/NeinKopfJa_f_no_sound.mp4","Ist der Ball in der blauen Box?","Blue","Green","F","affirmation","na","gesture","na","HeadNod","female","speech-gesture","1536","864","chrome","60.62","Windows 10","22","female","left","Wed Oct 16 2024 10:43:40 GMT+0200 (Mitteleuropäische Sommerzeit)","3","53","0","1729069159466"
"1147","f","SpeechGestureMatch","../RequiredFiles/videos/NeinKopfJa_m.mp4","Ist der Ball in der blauen Box?","Blue","Green","F","affirmation","mismatch","gesture","no","HeadNod","male","speech-gesture","1536","864","chrome","60.62","Windows 10","22","female","left","Wed Oct 16 2024 10:43:46 GMT+0200 (Mitteleuropäische Sommerzeit)","3","54","0","1729069159466"
"943","j","SpeechGestureMatch","../RequiredFiles/videos/NeinKopfNein_f.mp4","Ist der Ball in der grünen Box?","Blue","Green","F","negation","match","gesture","no","HeadShake","female","speech-gesture","1536","864","chrome","60.62","Windows 10","22","female","left","Wed Oct 16 2024 10:43:53 GMT+0200 (Mitteleuropäische Sommerzeit)","3","55","1","1729069159466"
"1219","f","SpeechGestureMatch","../RequiredFiles/videos/JaKopfNein_m.mp4","Ist der Ball in der grünen Box?","Blue","Green","F","negation","mismatch","gesture","yes","HeadShake","male","speech-gesture","1536","864","chrome","60.62","Windows 10","22","female","left","Wed Oct 16 2024 10:43:59 GMT+0200 (Mitteleuropäische Sommerzeit)","3","56","0","1729069159466"
"1580","j","SpeechGestureMatch","../RequiredFiles/videos/JaKopfJa_f.mp4","Ist der Ball in der grünen Box?","Blue","Green","J","affirmation","match","gesture","yes","HeadNod","female","speech-gesture","1536","864","chrome","60.62","Windows 10","22","female","left","Wed Oct 16 2024 10:44:07 GMT+0200 (Mitteleuropäische Sommerzeit)","3","57","0","1729069159466"
"989","f","SpeechGestureMatch","../RequiredFiles/videos/JaKopfJa_m.mp4","Ist der Ball in der blauen Box?","Blue","Green","F","affirmation","match","gesture","yes","HeadNod","male","speech-gesture","1536","864","chrome","60.62","Windows 10","22","female","left","Wed Oct 16 2024 10:44:13 GMT+0200 (Mitteleuropäische Sommerzeit)","3","58","0","1729069159466"
"1380","f","SpeechGestureMatch","../RequiredFiles/videos/JaKopfJa_m.mp4","Ist der Ball in der grünen Box?","Green","Blue","F","affirmation","match","gesture","yes","HeadNod","male","speech-gesture","1536","864","chrome","60.62","Windows 10","22","female","left","Wed Oct 16 2024 10:44:20 GMT+0200 (Mitteleuropäische Sommerzeit)","3","59","0","1729069159466"
"865","j","SpeechGestureMatch","../RequiredFiles/videos/JaKopfJa_m.mp4","Ist der Ball in der grünen Box?","Blue","Green","J","affirmation","match","gesture","yes","HeadNod","male","speech-gesture","1536","864","chrome","60.62","Windows 10","22","female","left","Wed Oct 16 2024 10:44:26 GMT+0200 (Mitteleuropäische Sommerzeit)","3","60","0","1729069159466"
"1015","f","SpeechGestureMatch","../RequiredFiles/videos/NeinKopfNein_m.mp4","Ist der Ball in der blauen Box?","Green","Blue","F","negation","match","gesture","no","HeadShake","male","speech-gesture","1536","864","chrome","60.62","Windows 10","22","female","left","Wed Oct 16 2024 10:44:33 GMT+0200 (Mitteleuropäische Sommerzeit)","3","61","0","1729069159466"
"897","f","SpeechGestureMatch","../RequiredFiles/videos/JaKopfJa_m_no_sound.mp4","Ist der Ball in der blauen Box?","Blue","Green","F","affirmation","na","gesture","na","HeadNod","male","speech-gesture","1536","864","chrome","60.62","Windows 10","22","female","left","Wed Oct 16 2024 10:44:39 GMT+0200 (Mitteleuropäische Sommerzeit)","3","62","0","1729069159466"
"1142","f","SpeechGestureMatch","../RequiredFiles/videos/NeinKopfJa_m.mp4","Ist der Ball in der grünen Box?","Green","Blue","F","affirmation","mismatch","gesture","no","HeadNod","male","speech-gesture","1536","864","chrome","60.62","Windows 10","22","female","left","Wed Oct 16 2024 10:44:46 GMT+0200 (Mitteleuropäische Sommerzeit)","3","63","0","1729069159466"
"925","j","SpeechGestureMatch","../RequiredFiles/videos/NeinKopfJa_f.mp4","Ist der Ball in der blauen Box?","Green","Blue","J","affirmation","mismatch","gesture","no","HeadNod","female","speech-gesture","1536","864","chrome","60.62","Windows 10","22","female","left","Wed Oct 16 2024 10:44:53 GMT+0200 (Mitteleuropäische Sommerzeit)","3","64","0","1729069159466"
"819","f","SpeechGestureMatch","../RequiredFiles/videos/JaKopfJa_m.mp4","Ist der Ball in der grünen Box?","Green","Blue","F","affirmation","match","gesture","yes","HeadNod","male","speech-gesture","1536","864","chrome","60.62","Windows 10","22","female","left","Wed Oct 16 2024 10:44:59 GMT+0200 (Mitteleuropäische Sommerzeit)","3","65","0","1729069159466"
"665","j","SpeechGestureMatch","../RequiredFiles/videos/NeinKopfJa_f_no_sound.mp4","Ist der Ball in der blauen Box?","Green","Blue","J","affirmation","na","gesture","na","HeadNod","female","speech-gesture","1536","864","chrome","60.62","Windows 10","22","female","left","Wed Oct 16 2024 10:45:05 GMT+0200 (Mitteleuropäische Sommerzeit)","3","66","0","1729069159466"
"709","j","SpeechGestureMatch","../RequiredFiles/videos/JaKopfJa_m_no_sound.mp4","Ist der Ball in der grünen Box?","Blue","Green","J","affirmation","na","gesture","na","HeadNod","male","speech-gesture","1536","864","chrome","60.62","Windows 10","22","female","left","Wed Oct 16 2024 10:45:11 GMT+0200 (Mitteleuropäische Sommerzeit)","3","67","0","1729069159466"
"1092","j","SpeechGestureMatch","../RequiredFiles/videos/NeinKopfNein_m.mp4","Ist der Ball in der grünen Box?","Green","Blue","J","negation","match","gesture","no","HeadShake","male","speech-gesture","1536","864","chrome","60.62","Windows 10","22","female","left","Wed Oct 16 2024 10:45:18 GMT+0200 (Mitteleuropäische Sommerzeit)","3","68","0","1729069159466"
"836","j","SpeechGestureMatch","../RequiredFiles/videos/NeinKopfJa_m.mp4","Ist der Ball in der grünen Box?","Blue","Green","J","affirmation","mismatch","gesture","no","HeadNod","male","speech-gesture","1536","864","chrome","60.62","Windows 10","22","female","left","Wed Oct 16 2024 10:45:24 GMT+0200 (Mitteleuropäische Sommerzeit)","3","69","0","1729069159466"
"829","f","SpeechGestureMatch","../RequiredFiles/videos/NeinKopfNein_m.mp4","Ist der Ball in der blauen Box?","Green","Blue","F","negation","match","gesture","no","HeadShake","male","speech-gesture","1536","864","chrome","60.62","Windows 10","22","female","left","Wed Oct 16 2024 10:45:31 GMT+0200 (Mitteleuropäische Sommerzeit)","3","70","0","1729069159466"
"740","f","SpeechGestureMatch","../RequiredFiles/videos/JaKopfJa_f.mp4","Ist der Ball in der grünen Box?","Green","Blue","F","affirmation","match","gesture","yes","HeadNod","female","speech-gesture","1536","864","chrome","60.62","Windows 10","22","female","left","Wed Oct 16 2024 10:45:37 GMT+0200 (Mitteleuropäische Sommerzeit)","3","71","0","1729069159466"
"895","j","SpeechGestureMatch","../RequiredFiles/videos/JaKopfNein_m.mp4","Ist der Ball in der grünen Box?","Green","Blue","J","negation","mismatch","gesture","yes","HeadShake","male","speech-gesture","1536","864","chrome","60.62","Windows 10","22","female","left","Wed Oct 16 2024 10:45:44 GMT+0200 (Mitteleuropäische Sommerzeit)","3","72","0","1729069159466"
"944","f","SpeechGestureMatch","../RequiredFiles/videos/JaKopfNein_m.mp4","Ist der Ball in der blauen Box?","Green","Blue","F","negation","mismatch","gesture","yes","HeadShake","male","speech-gesture","1536","864","chrome","60.62","Windows 10","22","female","left","Wed Oct 16 2024 10:45:50 GMT+0200 (Mitteleuropäische Sommerzeit)","3","73","0","1729069159466"
"693","f","SpeechGestureMatch","../RequiredFiles/videos/JaKopfJa_m_no_sound.mp4","Ist der Ball in der grünen Box?","Green","Blue","F","affirmation","na","gesture","na","HeadNod","male","speech-gesture","1536","864","chrome","60.62","Windows 10","22","female","left","Wed Oct 16 2024 10:45:56 GMT+0200 (Mitteleuropäische Sommerzeit)","3","74","0","1729069159466"
"689","j","SpeechGestureMatch","../RequiredFiles/videos/JaKopfNein_f_no_sound.mp4","Ist der Ball in der blauen Box?","Blue","Green","J","negation","na","gesture","na","HeadShake","female","speech-gesture","1536","864","chrome","60.62","Windows 10","22","female","left","Wed Oct 16 2024 10:46:03 GMT+0200 (Mitteleuropäische Sommerzeit)","3","75","0","1729069159466"
"789","f","SpeechGestureMatch","../RequiredFiles/videos/NeinKopfJa_m_no_sound.mp4","Ist der Ball in der grünen Box?","Green","Blue","F","affirmation","na","gesture","na","HeadNod","male","speech-gesture","1536","864","chrome","60.62","Windows 10","22","female","left","Wed Oct 16 2024 10:46:09 GMT+0200 (Mitteleuropäische Sommerzeit)","3","76","0","1729069159466"
"1169","j","SpeechGestureMatch","../RequiredFiles/videos/NeinKopfNein_f.mp4","Ist der Ball in der grünen Box?","Green","Blue","J","negation","match","gesture","no","HeadShake","female","speech-gesture","1536","864","chrome","60.62","Windows 10","22","female","left","Wed Oct 16 2024 10:46:16 GMT+0200 (Mitteleuropäische Sommerzeit)","3","77","0","1729069159466"
"872","f","SpeechGestureMatch","../RequiredFiles/videos/NeinKopfJa_f.mp4","Ist der Ball in der grünen Box?","Blue","Green","J","affirmation","mismatch","gesture","no","HeadNod","female","speech-gesture","1536","864","chrome","60.62","Windows 10","22","female","left","Wed Oct 16 2024 10:46:22 GMT+0200 (Mitteleuropäische Sommerzeit)","3","78","1","1729069159466"
"873","j","SpeechGestureMatch","../RequiredFiles/videos/JaKopfJa_m_no_sound.mp4","Ist der Ball in der blauen Box?","Green","Blue","J","affirmation","na","gesture","na","HeadNod","male","speech-gesture","1536","864","chrome","60.62","Windows 10","22","female","left","Wed Oct 16 2024 10:46:28 GMT+0200 (Mitteleuropäische Sommerzeit)","3","79","0","1729069159466"
"1410","f","SpeechGestureMatch","../RequiredFiles/videos/NeinKopfNein_f_no_sound.mp4","Ist der Ball in der blauen Box?","Green","Blue","F","negation","na","gesture","na","HeadShake","female","speech-gesture","1536","864","chrome","60.62","Windows 10","22","female","left","Wed Oct 16 2024 10:46:35 GMT+0200 (Mitteleuropäische Sommerzeit)","3","80","0","1729069159466"
"1114","j","SpeechGestureMatch","../RequiredFiles/videos/JaKopfJa_m.mp4","Ist der Ball in der blauen Box?","Green","Blue","J","affirmation","match","gesture","yes","HeadNod","male","speech-gesture","1536","864","chrome","60.62","Windows 10","22","female","left","Wed Oct 16 2024 10:46:42 GMT+0200 (Mitteleuropäische Sommerzeit)","3","81","0","1729069159466"
"779","j","SpeechGestureMatch","../RequiredFiles/videos/JaKopfJa_f.mp4","Ist der Ball in der blauen Box?","Green","Blue","J","affirmation","match","gesture","yes","HeadNod","female","speech-gesture","1536","864","chrome","60.62","Windows 10","22","female","left","Wed Oct 16 2024 10:46:48 GMT+0200 (Mitteleuropäische Sommerzeit)","3","82","0","1729069159466"
"1067","j","SpeechGestureMatch","../RequiredFiles/videos/JaKopfJa_f.mp4","Ist der Ball in der grünen Box?","Blue","Green","J","affirmation","match","gesture","yes","HeadNod","female","speech-gesture","1536","864","chrome","60.62","Windows 10","22","female","left","Wed Oct 16 2024 10:46:55 GMT+0200 (Mitteleuropäische Sommerzeit)","3","83","0","1729069159466"
