"rt","response","stim","video","question","box_colour_left","box_colour_right","correct_key","polarity","matching","modality","verbal","gesture","speaker","order","width","height","browser","vsync_rate","os","age","gender","handedness","date","blockNum","trialNum","error","vpNum"
"1527","f","SpeechGestureMatch","../RequiredFiles/videos/JaKopfNein_m.mp4","Ist der Ball in der grünen Box?","Green","Blue","F","affirmation","mismatch","speech","yes","HeadShake","male","speech-gesture","1280","720","chrome","60.08","Windows 10","19","female","right","Sat Oct 12 2024 15:03:45 GMT+0200 (közép-európai nyári idő)","1","1","0","1728743953433"
"1108","j","SpeechGestureMatch","../RequiredFiles/videos/NeinKopfJa_m_no_gesture.mp4","Ist der Ball in der blauen Box?","Blue","Green","J","negation","na","speech","no","na","male","speech-gesture","1280","720","chrome","60.08","Windows 10","19","female","right","Sat Oct 12 2024 15:03:51 GMT+0200 (közép-európai nyári idő)","1","2","0","1728743953433"
"941","j","SpeechGestureMatch","../RequiredFiles/videos/JaKopfJa_f.mp4","Ist der Ball in der blauen Box?","Green","Blue","J","affirmation","match","speech","yes","HeadNod","female","speech-gesture","1280","720","chrome","60.08","Windows 10","19","female","right","Sat Oct 12 2024 15:03:58 GMT+0200 (közép-európai nyári idő)","1","3","0","1728743953433"
"910","f","SpeechGestureMatch","../RequiredFiles/videos/NeinKopfJa_f.mp4","Ist der Ball in der blauen Box?","Green","Blue","F","negation","mismatch","speech","no","HeadNod","female","speech-gesture","1280","720","chrome","60.08","Windows 10","19","female","right","Sat Oct 12 2024 15:04:04 GMT+0200 (közép-európai nyári idő)","1","4","0","1728743953433"
"1125","f","SpeechGestureMatch","../RequiredFiles/videos/JaKopfJa_f_no_gesture.mp4","Ist der Ball in der grünen Box?","Green","Blue","F","affirmation","na","speech","yes","na","female","speech-gesture","1280","720","chrome","60.08","Windows 10","19","female","right","Sat Oct 12 2024 15:04:11 GMT+0200 (közép-európai nyári idő)","1","5","0","1728743953433"
"840","j","SpeechGestureMatch","../RequiredFiles/videos/NeinKopfNein_f_no_gesture.mp4","Ist der Ball in der grünen Box?","Green","Blue","J","negation","na","speech","no","na","female","speech-gesture","1280","720","chrome","60.08","Windows 10","19","female","right","Sat Oct 12 2024 15:04:17 GMT+0200 (közép-európai nyári idő)","1","6","0","1728743953433"
"948","j","SpeechGestureMatch","../RequiredFiles/videos/NeinKopfJa_m_no_gesture.mp4","Ist der Ball in der grünen Box?","Green","Blue","J","negation","na","speech","no","na","male","speech-gesture","1280","720","chrome","60.08","Windows 10","19","female","right","Sat Oct 12 2024 15:04:24 GMT+0200 (közép-európai nyári idő)","1","7","0","1728743953433"
"912","j","SpeechGestureMatch","../RequiredFiles/videos/JaKopfJa_f_no_gesture.mp4","Ist der Ball in der grünen Box?","Blue","Green","J","affirmation","na","speech","yes","na","female","speech-gesture","1280","720","chrome","60.08","Windows 10","19","female","right","Sat Oct 12 2024 15:04:30 GMT+0200 (közép-európai nyári idő)","1","8","0","1728743953433"
"811","j","SpeechGestureMatch","../RequiredFiles/videos/JaKopfJa_m.mp4","Ist der Ball in der grünen Box?","Green","Blue","F","affirmation","match","speech","yes","HeadNod","male","speech-gesture","1280","720","chrome","60.08","Windows 10","19","female","right","Sat Oct 12 2024 15:04:37 GMT+0200 (közép-európai nyári idő)","1","9","1","1728743953433"
"989","f","SpeechGestureMatch","../RequiredFiles/videos/JaKopfJa_m_no_gesture.mp4","Ist der Ball in der blauen Box?","Blue","Green","F","affirmation","na","speech","yes","na","male","speech-gesture","1280","720","chrome","60.08","Windows 10","19","female","right","Sat Oct 12 2024 15:04:43 GMT+0200 (közép-európai nyári idő)","1","10","0","1728743953433"
"956","f","SpeechGestureMatch","../RequiredFiles/videos/NeinKopfJa_m.mp4","Ist der Ball in der blauen Box?","Green","Blue","F","negation","mismatch","speech","no","HeadNod","male","speech-gesture","1280","720","chrome","60.08","Windows 10","19","female","right","Sat Oct 12 2024 15:04:50 GMT+0200 (közép-európai nyári idő)","1","11","0","1728743953433"
"891","j","SpeechGestureMatch","../RequiredFiles/videos/JaKopfJa_f.mp4","Ist der Ball in der blauen Box?","Green","Blue","J","affirmation","match","speech","yes","HeadNod","female","speech-gesture","1280","720","chrome","60.08","Windows 10","19","female","right","Sat Oct 12 2024 15:04:56 GMT+0200 (közép-európai nyári idő)","1","12","0","1728743953433"
"861","j","SpeechGestureMatch","../RequiredFiles/videos/JaKopfNein_m.mp4","Ist der Ball in der blauen Box?","Blue","Green","F","affirmation","mismatch","speech","yes","HeadShake","male","speech-gesture","1280","720","chrome","60.08","Windows 10","19","female","right","Sat Oct 12 2024 15:05:03 GMT+0200 (közép-európai nyári idő)","1","13","1","1728743953433"
"945","f","SpeechGestureMatch","../RequiredFiles/videos/NeinKopfNein_f_no_gesture.mp4","Ist der Ball in der blauen Box?","Blue","Green","J","negation","na","speech","no","na","female","speech-gesture","1280","720","chrome","60.08","Windows 10","19","female","right","Sat Oct 12 2024 15:05:09 GMT+0200 (közép-európai nyári idő)","1","14","1","1728743953433"
"1252","f","SpeechGestureMatch","../RequiredFiles/videos/JaKopfJa_m_no_gesture.mp4","Ist der Ball in der grünen Box?","Green","Blue","F","affirmation","na","speech","yes","na","male","speech-gesture","1280","720","chrome","60.08","Windows 10","19","female","right","Sat Oct 12 2024 15:05:16 GMT+0200 (közép-európai nyári idő)","1","15","0","1728743953433"
"1055","f","SpeechGestureMatch","../RequiredFiles/videos/JaKopfJa_f.mp4","Ist der Ball in der blauen Box?","Blue","Green","F","affirmation","match","speech","yes","HeadNod","female","speech-gesture","1280","720","chrome","60.08","Windows 10","19","female","right","Sat Oct 12 2024 15:05:23 GMT+0200 (közép-európai nyári idő)","1","16","0","1728743953433"
"803","f","SpeechGestureMatch","../RequiredFiles/videos/JaKopfJa_f.mp4","Ist der Ball in der grünen Box?","Green","Blue","F","affirmation","match","speech","yes","HeadNod","female","speech-gesture","1280","720","chrome","60.08","Windows 10","19","female","right","Sat Oct 12 2024 15:05:29 GMT+0200 (közép-európai nyári idő)","1","17","0","1728743953433"
"866","f","SpeechGestureMatch","../RequiredFiles/videos/NeinKopfNein_m_no_gesture.mp4","Ist der Ball in der grünen Box?","Blue","Green","F","negation","na","speech","no","na","male","speech-gesture","1280","720","chrome","60.08","Windows 10","19","female","right","Sat Oct 12 2024 15:05:35 GMT+0200 (közép-európai nyári idő)","1","18","0","1728743953433"
"1242","f","SpeechGestureMatch","../RequiredFiles/videos/NeinKopfNein_f.mp4","Ist der Ball in der grünen Box?","Blue","Green","F","negation","match","speech","no","HeadShake","female","speech-gesture","1280","720","chrome","60.08","Windows 10","19","female","right","Sat Oct 12 2024 15:05:42 GMT+0200 (közép-európai nyári idő)","1","19","0","1728743953433"
"1637","f","SpeechGestureMatch","../RequiredFiles/videos/NeinKopfJa_f.mp4","Ist der Ball in der grünen Box?","Blue","Green","F","negation","mismatch","speech","no","HeadNod","female","speech-gesture","1280","720","chrome","60.08","Windows 10","19","female","right","Sat Oct 12 2024 15:05:49 GMT+0200 (közép-európai nyári idő)","1","20","0","1728743953433"
"1258","j","SpeechGestureMatch","../RequiredFiles/videos/NeinKopfNein_f.mp4","Ist der Ball in der grünen Box?","Green","Blue","J","negation","match","speech","no","HeadShake","female","speech-gesture","1280","720","chrome","60.08","Windows 10","19","female","right","Sat Oct 12 2024 15:05:56 GMT+0200 (közép-európai nyári idő)","1","21","0","1728743953433"
"910","f","SpeechGestureMatch","../RequiredFiles/videos/NeinKopfNein_m_no_gesture.mp4","Ist der Ball in der blauen Box?","Green","Blue","F","negation","na","speech","no","na","male","speech-gesture","1280","720","chrome","60.08","Windows 10","19","female","right","Sat Oct 12 2024 15:06:03 GMT+0200 (közép-európai nyári idő)","1","22","0","1728743953433"
"941","f","SpeechGestureMatch","../RequiredFiles/videos/NeinKopfJa_f.mp4","Ist der Ball in der grünen Box?","Blue","Green","F","negation","mismatch","speech","no","HeadNod","female","speech-gesture","1280","720","chrome","60.08","Windows 10","19","female","right","Sat Oct 12 2024 15:06:09 GMT+0200 (közép-európai nyári idő)","1","23","0","1728743953433"
"995","j","SpeechGestureMatch","../RequiredFiles/videos/NeinKopfJa_f.mp4","Ist der Ball in der grünen Box?","Green","Blue","J","negation","mismatch","speech","no","HeadNod","female","speech-gesture","1280","720","chrome","60.08","Windows 10","19","female","right","Sat Oct 12 2024 15:06:16 GMT+0200 (közép-európai nyári idő)","1","24","0","1728743953433"
"1011","j","SpeechGestureMatch","../RequiredFiles/videos/NeinKopfNein_m.mp4","Ist der Ball in der blauen Box?","Blue","Green","J","negation","match","speech","no","HeadShake","male","speech-gesture","1280","720","chrome","60.08","Windows 10","19","female","right","Sat Oct 12 2024 15:06:22 GMT+0200 (közép-európai nyári idő)","1","25","0","1728743953433"
"916","f","SpeechGestureMatch","../RequiredFiles/videos/NeinKopfNein_m.mp4","Ist der Ball in der grünen Box?","Blue","Green","F","negation","match","speech","no","HeadShake","male","speech-gesture","1280","720","chrome","60.08","Windows 10","19","female","right","Sat Oct 12 2024 15:06:29 GMT+0200 (közép-európai nyári idő)","1","26","0","1728743953433"
"1545","j","SpeechGestureMatch","../RequiredFiles/videos/JaKopfNein_m.mp4","Ist der Ball in der blauen Box?","Green","Blue","J","affirmation","mismatch","speech","yes","HeadShake","male","speech-gesture","1280","720","chrome","60.08","Windows 10","19","female","right","Sat Oct 12 2024 15:06:36 GMT+0200 (közép-európai nyári idő)","1","27","0","1728743953433"
"861","j","SpeechGestureMatch","../RequiredFiles/videos/JaKopfJa_m.mp4","Ist der Ball in der grünen Box?","Blue","Green","J","affirmation","match","speech","yes","HeadNod","male","speech-gesture","1280","720","chrome","60.08","Windows 10","19","female","right","Sat Oct 12 2024 15:06:42 GMT+0200 (közép-európai nyári idő)","1","28","0","1728743953433"
"995","j","SpeechGestureMatch","../RequiredFiles/videos/JaKopfNein_m.mp4","Ist der Ball in der grünen Box?","Blue","Green","J","affirmation","mismatch","speech","yes","HeadShake","male","speech-gesture","1280","720","chrome","60.08","Windows 10","19","female","right","Sat Oct 12 2024 15:06:49 GMT+0200 (közép-európai nyári idő)","1","29","0","1728743953433"
"954","f","SpeechGestureMatch","../RequiredFiles/videos/JaKopfJa_f.mp4","Ist der Ball in der grünen Box?","Green","Blue","F","affirmation","match","speech","yes","HeadNod","female","speech-gesture","1280","720","chrome","60.08","Windows 10","19","female","right","Sat Oct 12 2024 15:06:55 GMT+0200 (közép-európai nyári idő)","1","30","0","1728743953433"
"945","j","SpeechGestureMatch","../RequiredFiles/videos/NeinKopfJa_m.mp4","Ist der Ball in der blauen Box?","Blue","Green","J","negation","mismatch","speech","no","HeadNod","male","speech-gesture","1280","720","chrome","60.08","Windows 10","19","female","right","Sat Oct 12 2024 15:07:02 GMT+0200 (közép-európai nyári idő)","1","31","0","1728743953433"
"1140","j","SpeechGestureMatch","../RequiredFiles/videos/JaKopfNein_f.mp4","Ist der Ball in der blauen Box?","Green","Blue","J","affirmation","mismatch","speech","yes","HeadShake","female","speech-gesture","1280","720","chrome","60.08","Windows 10","19","female","right","Sat Oct 12 2024 15:07:08 GMT+0200 (közép-európai nyári idő)","1","32","0","1728743953433"
"894","j","SpeechGestureMatch","../RequiredFiles/videos/JaKopfJa_m.mp4","Ist der Ball in der blauen Box?","Blue","Green","F","affirmation","match","speech","yes","HeadNod","male","speech-gesture","1280","720","chrome","60.08","Windows 10","19","female","right","Sat Oct 12 2024 15:07:15 GMT+0200 (közép-európai nyári idő)","1","33","1","1728743953433"
"853","f","SpeechGestureMatch","../RequiredFiles/videos/NeinKopfJa_f_no_gesture.mp4","Ist der Ball in der grünen Box?","Blue","Green","F","negation","na","speech","no","na","female","speech-gesture","1280","720","chrome","60.08","Windows 10","19","female","right","Sat Oct 12 2024 15:07:21 GMT+0200 (közép-európai nyári idő)","1","34","0","1728743953433"
"839","j","SpeechGestureMatch","../RequiredFiles/videos/JaKopfJa_m.mp4","Ist der Ball in der grünen Box?","Blue","Green","J","affirmation","match","speech","yes","HeadNod","male","speech-gesture","1280","720","chrome","60.08","Windows 10","19","female","right","Sat Oct 12 2024 15:07:28 GMT+0200 (közép-európai nyári idő)","1","35","0","1728743953433"
"1339","j","SpeechGestureMatch","../RequiredFiles/videos/NeinKopfJa_f.mp4","Ist der Ball in der grünen Box?","Green","Blue","J","negation","mismatch","speech","no","HeadNod","female","speech-gesture","1280","720","chrome","60.08","Windows 10","19","female","right","Sat Oct 12 2024 15:07:34 GMT+0200 (közép-európai nyári idő)","1","36","0","1728743953433"
"849","j","SpeechGestureMatch","../RequiredFiles/videos/JaKopfJa_m.mp4","Ist der Ball in der blauen Box?","Green","Blue","J","affirmation","match","speech","yes","HeadNod","male","speech-gesture","1280","720","chrome","60.08","Windows 10","19","female","right","Sat Oct 12 2024 15:07:41 GMT+0200 (közép-európai nyári idő)","1","37","0","1728743953433"
"1115","f","SpeechGestureMatch","../RequiredFiles/videos/JaKopfNein_f.mp4","Ist der Ball in der blauen Box?","Blue","Green","F","affirmation","mismatch","speech","yes","HeadShake","female","speech-gesture","1280","720","chrome","60.08","Windows 10","19","female","right","Sat Oct 12 2024 15:07:48 GMT+0200 (közép-európai nyári idő)","1","38","0","1728743953433"
"846","f","SpeechGestureMatch","../RequiredFiles/videos/NeinKopfJa_m_no_gesture.mp4","Ist der Ball in der blauen Box?","Green","Blue","F","negation","na","speech","no","na","male","speech-gesture","1280","720","chrome","60.08","Windows 10","19","female","right","Sat Oct 12 2024 15:07:54 GMT+0200 (közép-európai nyári idő)","1","39","0","1728743953433"
"877","f","SpeechGestureMatch","../RequiredFiles/videos/JaKopfNein_f_no_gesture.mp4","Ist der Ball in der grünen Box?","Green","Blue","F","affirmation","na","speech","yes","na","female","speech-gesture","1280","720","chrome","60.08","Windows 10","19","female","right","Sat Oct 12 2024 15:08:00 GMT+0200 (közép-európai nyári idő)","1","40","0","1728743953433"
"914","f","SpeechGestureMatch","../RequiredFiles/videos/NeinKopfJa_f_no_gesture.mp4","Ist der Ball in der blauen Box?","Green","Blue","F","negation","na","speech","no","na","female","speech-gesture","1280","720","chrome","60.08","Windows 10","19","female","right","Sat Oct 12 2024 15:08:07 GMT+0200 (közép-európai nyári idő)","1","41","0","1728743953433"
"912","j","SpeechGestureMatch","../RequiredFiles/videos/NeinKopfNein_m.mp4","Ist der Ball in der blauen Box?","Blue","Green","J","negation","match","speech","no","HeadShake","male","speech-gesture","1280","720","chrome","60.08","Windows 10","19","female","right","Sat Oct 12 2024 15:08:13 GMT+0200 (közép-európai nyári idő)","1","42","0","1728743953433"
"748","j","SpeechGestureMatch","../RequiredFiles/videos/NeinKopfNein_m.mp4","Ist der Ball in der grünen Box?","Green","Blue","J","negation","match","speech","no","HeadShake","male","speech-gesture","1280","720","chrome","60.08","Windows 10","19","female","right","Sat Oct 12 2024 15:08:20 GMT+0200 (közép-európai nyári idő)","1","43","0","1728743953433"
"946","j","SpeechGestureMatch","../RequiredFiles/videos/NeinKopfNein_m_no_gesture.mp4","Ist der Ball in der grünen Box?","Green","Blue","J","negation","na","speech","no","na","male","speech-gesture","1280","720","chrome","60.08","Windows 10","19","female","right","Sat Oct 12 2024 15:08:26 GMT+0200 (közép-európai nyári idő)","1","44","0","1728743953433"
"875","f","SpeechGestureMatch","../RequiredFiles/videos/NeinKopfJa_m.mp4","Ist der Ball in der grünen Box?","Blue","Green","F","negation","mismatch","speech","no","HeadNod","male","speech-gesture","1280","720","chrome","60.08","Windows 10","19","female","right","Sat Oct 12 2024 15:08:32 GMT+0200 (közép-európai nyári idő)","1","45","0","1728743953433"
"1168","j","SpeechGestureMatch","../RequiredFiles/videos/JaKopfNein_f.mp4","Ist der Ball in der blauen Box?","Green","Blue","J","affirmation","mismatch","speech","yes","HeadShake","female","speech-gesture","1280","720","chrome","60.08","Windows 10","19","female","right","Sat Oct 12 2024 15:08:39 GMT+0200 (közép-európai nyári idő)","1","46","0","1728743953433"
"865","f","SpeechGestureMatch","../RequiredFiles/videos/JaKopfJa_m.mp4","Ist der Ball in der grünen Box?","Green","Blue","F","affirmation","match","speech","yes","HeadNod","male","speech-gesture","1280","720","chrome","60.08","Windows 10","19","female","right","Sat Oct 12 2024 15:08:46 GMT+0200 (közép-európai nyári idő)","1","47","0","1728743953433"
"875","f","SpeechGestureMatch","../RequiredFiles/videos/NeinKopfNein_m.mp4","Ist der Ball in der blauen Box?","Green","Blue","F","negation","match","speech","no","HeadShake","male","speech-gesture","1280","720","chrome","60.08","Windows 10","19","female","right","Sat Oct 12 2024 15:08:52 GMT+0200 (közép-európai nyári idő)","1","48","0","1728743953433"
"884","f","SpeechGestureMatch","../RequiredFiles/videos/NeinKopfJa_m.mp4","Ist der Ball in der blauen Box?","Green","Blue","F","negation","mismatch","speech","no","HeadNod","male","speech-gesture","1280","720","chrome","60.08","Windows 10","19","female","right","Sat Oct 12 2024 15:08:58 GMT+0200 (közép-európai nyári idő)","1","49","0","1728743953433"
"980","j","SpeechGestureMatch","../RequiredFiles/videos/JaKopfNein_f.mp4","Ist der Ball in der grünen Box?","Blue","Green","J","affirmation","mismatch","speech","yes","HeadShake","female","speech-gesture","1280","720","chrome","60.08","Windows 10","19","female","right","Sat Oct 12 2024 15:09:05 GMT+0200 (közép-európai nyári idő)","1","50","0","1728743953433"
"943","j","SpeechGestureMatch","../RequiredFiles/videos/JaKopfJa_m.mp4","Ist der Ball in der blauen Box?","Green","Blue","J","affirmation","match","speech","yes","HeadNod","male","speech-gesture","1280","720","chrome","60.08","Windows 10","19","female","right","Sat Oct 12 2024 15:09:11 GMT+0200 (közép-európai nyári idő)","1","51","0","1728743953433"
"1014","f","SpeechGestureMatch","../RequiredFiles/videos/JaKopfNein_f.mp4","Ist der Ball in der blauen Box?","Blue","Green","F","affirmation","mismatch","speech","yes","HeadShake","female","speech-gesture","1280","720","chrome","60.08","Windows 10","19","female","right","Sat Oct 12 2024 15:09:18 GMT+0200 (közép-európai nyári idő)","1","52","0","1728743953433"
"1010","f","SpeechGestureMatch","../RequiredFiles/videos/NeinKopfNein_f.mp4","Ist der Ball in der blauen Box?","Green","Blue","F","negation","match","speech","no","HeadShake","female","speech-gesture","1280","720","chrome","60.08","Windows 10","19","female","right","Sat Oct 12 2024 15:09:25 GMT+0200 (közép-európai nyári idő)","1","53","0","1728743953433"
"1167","j","SpeechGestureMatch","../RequiredFiles/videos/NeinKopfJa_m.mp4","Ist der Ball in der blauen Box?","Blue","Green","J","negation","mismatch","speech","no","HeadNod","male","speech-gesture","1280","720","chrome","60.08","Windows 10","19","female","right","Sat Oct 12 2024 15:09:31 GMT+0200 (közép-európai nyári idő)","1","54","0","1728743953433"
"1002","f","SpeechGestureMatch","../RequiredFiles/videos/JaKopfNein_m.mp4","Ist der Ball in der blauen Box?","Blue","Green","F","affirmation","mismatch","speech","yes","HeadShake","male","speech-gesture","1280","720","chrome","60.08","Windows 10","19","female","right","Sat Oct 12 2024 15:09:38 GMT+0200 (közép-európai nyári idő)","1","55","0","1728743953433"
"932","f","SpeechGestureMatch","../RequiredFiles/videos/NeinKopfNein_m.mp4","Ist der Ball in der blauen Box?","Green","Blue","F","negation","match","speech","no","HeadShake","male","speech-gesture","1280","720","chrome","60.08","Windows 10","19","female","right","Sat Oct 12 2024 15:09:44 GMT+0200 (közép-európai nyári idő)","1","56","0","1728743953433"
"899","j","SpeechGestureMatch","../RequiredFiles/videos/NeinKopfJa_f_no_gesture.mp4","Ist der Ball in der grünen Box?","Green","Blue","J","negation","na","speech","no","na","female","speech-gesture","1280","720","chrome","60.08","Windows 10","19","female","right","Sat Oct 12 2024 15:09:51 GMT+0200 (közép-európai nyári idő)","1","57","0","1728743953433"
"928","j","SpeechGestureMatch","../RequiredFiles/videos/NeinKopfJa_f.mp4","Ist der Ball in der blauen Box?","Blue","Green","J","negation","mismatch","speech","no","HeadNod","female","speech-gesture","1280","720","chrome","60.08","Windows 10","19","female","right","Sat Oct 12 2024 15:09:57 GMT+0200 (közép-európai nyári idő)","1","58","0","1728743953433"
"920","f","SpeechGestureMatch","../RequiredFiles/videos/JaKopfNein_f_no_gesture.mp4","Ist der Ball in der blauen Box?","Blue","Green","F","affirmation","na","speech","yes","na","female","speech-gesture","1280","720","chrome","60.08","Windows 10","19","female","right","Sat Oct 12 2024 15:10:04 GMT+0200 (közép-európai nyári idő)","1","59","0","1728743953433"
"920","j","SpeechGestureMatch","../RequiredFiles/videos/NeinKopfNein_f.mp4","Ist der Ball in der blauen Box?","Blue","Green","J","negation","match","speech","no","HeadShake","female","speech-gesture","1280","720","chrome","60.08","Windows 10","19","female","right","Sat Oct 12 2024 15:10:10 GMT+0200 (közép-európai nyári idő)","1","60","0","1728743953433"
"847","j","SpeechGestureMatch","../RequiredFiles/videos/JaKopfNein_f_no_gesture.mp4","Ist der Ball in der grünen Box?","Blue","Green","J","affirmation","na","speech","yes","na","female","speech-gesture","1280","720","chrome","60.08","Windows 10","19","female","right","Sat Oct 12 2024 15:10:17 GMT+0200 (közép-európai nyári idő)","1","61","0","1728743953433"
"804","f","SpeechGestureMatch","../RequiredFiles/videos/NeinKopfNein_m.mp4","Ist der Ball in der grünen Box?","Blue","Green","F","negation","match","speech","no","HeadShake","male","speech-gesture","1280","720","chrome","60.08","Windows 10","19","female","right","Sat Oct 12 2024 15:10:23 GMT+0200 (közép-európai nyári idő)","1","62","0","1728743953433"
"1083","j","SpeechGestureMatch","../RequiredFiles/videos/NeinKopfNein_m.mp4","Ist der Ball in der grünen Box?","Green","Blue","J","negation","match","speech","no","HeadShake","male","speech-gesture","1280","720","chrome","60.08","Windows 10","19","female","right","Sat Oct 12 2024 15:10:30 GMT+0200 (közép-európai nyári idő)","1","63","0","1728743953433"
"959","j","SpeechGestureMatch","../RequiredFiles/videos/NeinKopfJa_m.mp4","Ist der Ball in der grünen Box?","Green","Blue","J","negation","mismatch","speech","no","HeadNod","male","speech-gesture","1280","720","chrome","60.08","Windows 10","19","female","right","Sat Oct 12 2024 15:10:36 GMT+0200 (közép-európai nyári idő)","1","64","0","1728743953433"
"957","j","SpeechGestureMatch","../RequiredFiles/videos/JaKopfJa_f.mp4","Ist der Ball in der grünen Box?","Blue","Green","J","affirmation","match","speech","yes","HeadNod","female","speech-gesture","1280","720","chrome","60.08","Windows 10","19","female","right","Sat Oct 12 2024 15:10:43 GMT+0200 (közép-európai nyári idő)","1","65","0","1728743953433"
"877","j","SpeechGestureMatch","../RequiredFiles/videos/NeinKopfJa_m.mp4","Ist der Ball in der grünen Box?","Green","Blue","J","negation","mismatch","speech","no","HeadNod","male","speech-gesture","1280","720","chrome","60.08","Windows 10","19","female","right","Sat Oct 12 2024 15:10:49 GMT+0200 (közép-európai nyári idő)","1","66","0","1728743953433"
"964","f","SpeechGestureMatch","../RequiredFiles/videos/NeinKopfJa_m.mp4","Ist der Ball in der grünen Box?","Blue","Green","F","negation","mismatch","speech","no","HeadNod","male","speech-gesture","1280","720","chrome","60.08","Windows 10","19","female","right","Sat Oct 12 2024 15:10:56 GMT+0200 (közép-európai nyári idő)","1","67","0","1728743953433"
"988","j","SpeechGestureMatch","../RequiredFiles/videos/JaKopfNein_f_no_gesture.mp4","Ist der Ball in der blauen Box?","Green","Blue","J","affirmation","na","speech","yes","na","female","speech-gesture","1280","720","chrome","60.08","Windows 10","19","female","right","Sat Oct 12 2024 15:11:02 GMT+0200 (közép-európai nyári idő)","1","68","0","1728743953433"
"847","f","SpeechGestureMatch","../RequiredFiles/videos/NeinKopfJa_m_no_gesture.mp4","Ist der Ball in der grünen Box?","Blue","Green","F","negation","na","speech","no","na","male","speech-gesture","1280","720","chrome","60.08","Windows 10","19","female","right","Sat Oct 12 2024 15:11:08 GMT+0200 (közép-európai nyári idő)","1","69","0","1728743953433"
"992","f","SpeechGestureMatch","../RequiredFiles/videos/JaKopfNein_f.mp4","Ist der Ball in der grünen Box?","Green","Blue","F","affirmation","mismatch","speech","yes","HeadShake","female","speech-gesture","1280","720","chrome","60.08","Windows 10","19","female","right","Sat Oct 12 2024 15:11:15 GMT+0200 (közép-európai nyári idő)","1","70","0","1728743953433"
"892","f","SpeechGestureMatch","../RequiredFiles/videos/NeinKopfJa_f.mp4","Ist der Ball in der blauen Box?","Green","Blue","F","negation","mismatch","speech","no","HeadNod","female","speech-gesture","1280","720","chrome","60.08","Windows 10","19","female","right","Sat Oct 12 2024 15:11:21 GMT+0200 (közép-európai nyári idő)","1","71","0","1728743953433"
"927","j","SpeechGestureMatch","../RequiredFiles/videos/JaKopfNein_m_no_gesture.mp4","Ist der Ball in der blauen Box?","Green","Blue","J","affirmation","na","speech","yes","na","male","speech-gesture","1280","720","chrome","60.08","Windows 10","19","female","right","Sat Oct 12 2024 15:11:28 GMT+0200 (közép-európai nyári idő)","1","72","0","1728743953433"
"1069","f","SpeechGestureMatch","../RequiredFiles/videos/JaKopfNein_m_no_gesture.mp4","Ist der Ball in der grünen Box?","Green","Blue","F","affirmation","na","speech","yes","na","male","speech-gesture","1280","720","chrome","60.08","Windows 10","19","female","right","Sat Oct 12 2024 15:11:35 GMT+0200 (közép-európai nyári idő)","1","73","0","1728743953433"
"847","j","SpeechGestureMatch","../RequiredFiles/videos/NeinKopfNein_f.mp4","Ist der Ball in der blauen Box?","Blue","Green","J","negation","match","speech","no","HeadShake","female","speech-gesture","1280","720","chrome","60.08","Windows 10","19","female","right","Sat Oct 12 2024 15:11:41 GMT+0200 (közép-európai nyári idő)","1","74","0","1728743953433"
"925","f","SpeechGestureMatch","../RequiredFiles/videos/NeinKopfNein_f.mp4","Ist der Ball in der blauen Box?","Green","Blue","F","negation","match","speech","no","HeadShake","female","speech-gesture","1280","720","chrome","60.08","Windows 10","19","female","right","Sat Oct 12 2024 15:11:47 GMT+0200 (közép-európai nyári idő)","1","75","0","1728743953433"
"797","f","SpeechGestureMatch","../RequiredFiles/videos/NeinKopfNein_f_no_gesture.mp4","Ist der Ball in der blauen Box?","Green","Blue","F","negation","na","speech","no","na","female","speech-gesture","1280","720","chrome","60.08","Windows 10","19","female","right","Sat Oct 12 2024 15:11:54 GMT+0200 (közép-európai nyári idő)","1","76","0","1728743953433"
"843","f","SpeechGestureMatch","../RequiredFiles/videos/NeinKopfNein_f_no_gesture.mp4","Ist der Ball in der grünen Box?","Blue","Green","F","negation","na","speech","no","na","female","speech-gesture","1280","720","chrome","60.08","Windows 10","19","female","right","Sat Oct 12 2024 15:12:00 GMT+0200 (közép-európai nyári idő)","1","77","0","1728743953433"
"955","f","SpeechGestureMatch","../RequiredFiles/videos/JaKopfJa_f.mp4","Ist der Ball in der blauen Box?","Blue","Green","F","affirmation","match","speech","yes","HeadNod","female","speech-gesture","1280","720","chrome","60.08","Windows 10","19","female","right","Sat Oct 12 2024 15:12:07 GMT+0200 (közép-európai nyári idő)","1","78","0","1728743953433"
"897","j","SpeechGestureMatch","../RequiredFiles/videos/JaKopfJa_m_no_gesture.mp4","Ist der Ball in der blauen Box?","Green","Blue","J","affirmation","na","speech","yes","na","male","speech-gesture","1280","720","chrome","60.08","Windows 10","19","female","right","Sat Oct 12 2024 15:12:13 GMT+0200 (közép-európai nyári idő)","1","79","0","1728743953433"
"984","f","SpeechGestureMatch","../RequiredFiles/videos/JaKopfNein_m.mp4","Ist der Ball in der grünen Box?","Green","Blue","F","affirmation","mismatch","speech","yes","HeadShake","male","speech-gesture","1280","720","chrome","60.08","Windows 10","19","female","right","Sat Oct 12 2024 15:12:20 GMT+0200 (közép-európai nyári idő)","1","80","0","1728743953433"
"907","j","SpeechGestureMatch","../RequiredFiles/videos/NeinKopfJa_f.mp4","Ist der Ball in der blauen Box?","Blue","Green","J","negation","mismatch","speech","no","HeadNod","female","speech-gesture","1280","720","chrome","60.08","Windows 10","19","female","right","Sat Oct 12 2024 15:12:26 GMT+0200 (közép-európai nyári idő)","1","81","0","1728743953433"
"1068","f","SpeechGestureMatch","../RequiredFiles/videos/JaKopfJa_m.mp4","Ist der Ball in der blauen Box?","Blue","Green","F","affirmation","match","speech","yes","HeadNod","male","speech-gesture","1280","720","chrome","60.08","Windows 10","19","female","right","Sat Oct 12 2024 15:12:33 GMT+0200 (közép-európai nyári idő)","1","82","0","1728743953433"
"788","j","SpeechGestureMatch","../RequiredFiles/videos/JaKopfJa_f_no_gesture.mp4","Ist der Ball in der blauen Box?","Green","Blue","J","affirmation","na","speech","yes","na","female","speech-gesture","1280","720","chrome","60.08","Windows 10","19","female","right","Sat Oct 12 2024 15:12:39 GMT+0200 (közép-európai nyári idő)","1","83","0","1728743953433"
"1102","j","SpeechGestureMatch","../RequiredFiles/videos/JaKopfNein_m.mp4","Ist der Ball in der grünen Box?","Blue","Green","J","affirmation","mismatch","speech","yes","HeadShake","male","speech-gesture","1280","720","chrome","60.08","Windows 10","19","female","right","Sat Oct 12 2024 15:12:46 GMT+0200 (közép-európai nyári idő)","1","84","0","1728743953433"
"856","j","SpeechGestureMatch","../RequiredFiles/videos/JaKopfJa_m_no_gesture.mp4","Ist der Ball in der grünen Box?","Blue","Green","J","affirmation","na","speech","yes","na","male","speech-gesture","1280","720","chrome","60.08","Windows 10","19","female","right","Sat Oct 12 2024 15:12:52 GMT+0200 (közép-európai nyári idő)","1","85","0","1728743953433"
"952","j","SpeechGestureMatch","../RequiredFiles/videos/JaKopfNein_f.mp4","Ist der Ball in der grünen Box?","Blue","Green","J","affirmation","mismatch","speech","yes","HeadShake","female","speech-gesture","1280","720","chrome","60.08","Windows 10","19","female","right","Sat Oct 12 2024 15:12:58 GMT+0200 (közép-európai nyári idő)","1","86","0","1728743953433"
"961","f","SpeechGestureMatch","../RequiredFiles/videos/JaKopfJa_f_no_gesture.mp4","Ist der Ball in der blauen Box?","Blue","Green","F","affirmation","na","speech","yes","na","female","speech-gesture","1280","720","chrome","60.08","Windows 10","19","female","right","Sat Oct 12 2024 15:13:05 GMT+0200 (közép-európai nyári idő)","1","87","0","1728743953433"
"943","f","SpeechGestureMatch","../RequiredFiles/videos/NeinKopfNein_f.mp4","Ist der Ball in der grünen Box?","Blue","Green","F","negation","match","speech","no","HeadShake","female","speech-gesture","1280","720","chrome","60.08","Windows 10","19","female","right","Sat Oct 12 2024 15:13:11 GMT+0200 (közép-európai nyári idő)","1","88","0","1728743953433"
"830","j","SpeechGestureMatch","../RequiredFiles/videos/NeinKopfNein_f.mp4","Ist der Ball in der grünen Box?","Green","Blue","J","negation","match","speech","no","HeadShake","female","speech-gesture","1280","720","chrome","60.08","Windows 10","19","female","right","Sat Oct 12 2024 15:13:18 GMT+0200 (közép-európai nyári idő)","1","89","0","1728743953433"
"903","f","SpeechGestureMatch","../RequiredFiles/videos/JaKopfNein_f.mp4","Ist der Ball in der grünen Box?","Green","Blue","F","affirmation","mismatch","speech","yes","HeadShake","female","speech-gesture","1280","720","chrome","60.08","Windows 10","19","female","right","Sat Oct 12 2024 15:13:24 GMT+0200 (közép-európai nyári idő)","1","90","0","1728743953433"
"1010","j","SpeechGestureMatch","../RequiredFiles/videos/NeinKopfNein_m_no_gesture.mp4","Ist der Ball in der blauen Box?","Blue","Green","J","negation","na","speech","no","na","male","speech-gesture","1280","720","chrome","60.08","Windows 10","19","female","right","Sat Oct 12 2024 15:13:31 GMT+0200 (közép-európai nyári idő)","1","91","0","1728743953433"
"884","j","SpeechGestureMatch","../RequiredFiles/videos/NeinKopfJa_f_no_gesture.mp4","Ist der Ball in der blauen Box?","Blue","Green","J","negation","na","speech","no","na","female","speech-gesture","1280","720","chrome","60.08","Windows 10","19","female","right","Sat Oct 12 2024 15:13:37 GMT+0200 (közép-európai nyári idő)","1","92","0","1728743953433"
"975","j","SpeechGestureMatch","../RequiredFiles/videos/JaKopfNein_m_no_gesture.mp4","Ist der Ball in der grünen Box?","Blue","Green","J","affirmation","na","speech","yes","na","male","speech-gesture","1280","720","chrome","60.08","Windows 10","19","female","right","Sat Oct 12 2024 15:13:44 GMT+0200 (közép-európai nyári idő)","1","93","0","1728743953433"
"934","j","SpeechGestureMatch","../RequiredFiles/videos/JaKopfJa_f.mp4","Ist der Ball in der grünen Box?","Blue","Green","J","affirmation","match","speech","yes","HeadNod","female","speech-gesture","1280","720","chrome","60.08","Windows 10","19","female","right","Sat Oct 12 2024 15:13:50 GMT+0200 (közép-európai nyári idő)","1","94","0","1728743953433"
"915","j","SpeechGestureMatch","../RequiredFiles/videos/JaKopfNein_m.mp4","Ist der Ball in der blauen Box?","Green","Blue","J","affirmation","mismatch","speech","yes","HeadShake","male","speech-gesture","1280","720","chrome","60.08","Windows 10","19","female","right","Sat Oct 12 2024 15:13:57 GMT+0200 (közép-európai nyári idő)","1","95","0","1728743953433"
"913","f","SpeechGestureMatch","../RequiredFiles/videos/JaKopfNein_m_no_gesture.mp4","Ist der Ball in der blauen Box?","Blue","Green","F","affirmation","na","speech","yes","na","male","speech-gesture","1280","720","chrome","60.08","Windows 10","19","female","right","Sat Oct 12 2024 15:14:03 GMT+0200 (közép-európai nyári idő)","1","96","0","1728743953433"
"1490","f","SpeechGestureMatch","../RequiredFiles/videos/JaKopfNein_f_no_gesture.mp4","Ist der Ball in der grünen Box?","Green","Blue","F","affirmation","na","speech","yes","na","female","speech-gesture","1280","720","chrome","60.08","Windows 10","19","female","right","Sat Oct 12 2024 15:25:52 GMT+0200 (közép-európai nyári idő)","2","1","0","1728743953433"
"1268","j","SpeechGestureMatch","../RequiredFiles/videos/JaKopfNein_m.mp4","Ist der Ball in der blauen Box?","Green","Blue","J","affirmation","mismatch","speech","yes","HeadShake","male","speech-gesture","1280","720","chrome","60.08","Windows 10","19","female","right","Sat Oct 12 2024 15:25:59 GMT+0200 (közép-európai nyári idő)","2","2","0","1728743953433"
"850","j","SpeechGestureMatch","../RequiredFiles/videos/NeinKopfJa_m_no_gesture.mp4","Ist der Ball in der blauen Box?","Blue","Green","J","negation","na","speech","no","na","male","speech-gesture","1280","720","chrome","60.08","Windows 10","19","female","right","Sat Oct 12 2024 15:26:05 GMT+0200 (közép-európai nyári idő)","2","3","0","1728743953433"
"1390","f","SpeechGestureMatch","../RequiredFiles/videos/NeinKopfNein_f.mp4","Ist der Ball in der grünen Box?","Green","Blue","J","negation","match","speech","no","HeadShake","female","speech-gesture","1280","720","chrome","60.08","Windows 10","19","female","right","Sat Oct 12 2024 15:26:12 GMT+0200 (közép-európai nyári idő)","2","4","1","1728743953433"
"745","f","SpeechGestureMatch","../RequiredFiles/videos/JaKopfNein_f.mp4","Ist der Ball in der blauen Box?","Blue","Green","F","affirmation","mismatch","speech","yes","HeadShake","female","speech-gesture","1280","720","chrome","60.08","Windows 10","19","female","right","Sat Oct 12 2024 15:26:18 GMT+0200 (közép-európai nyári idő)","2","5","0","1728743953433"
"848","f","SpeechGestureMatch","../RequiredFiles/videos/JaKopfJa_f.mp4","Ist der Ball in der blauen Box?","Blue","Green","F","affirmation","match","speech","yes","HeadNod","female","speech-gesture","1280","720","chrome","60.08","Windows 10","19","female","right","Sat Oct 12 2024 15:26:25 GMT+0200 (közép-európai nyári idő)","2","6","0","1728743953433"
"792","j","SpeechGestureMatch","../RequiredFiles/videos/JaKopfJa_m_no_gesture.mp4","Ist der Ball in der grünen Box?","Blue","Green","J","affirmation","na","speech","yes","na","male","speech-gesture","1280","720","chrome","60.08","Windows 10","19","female","right","Sat Oct 12 2024 15:26:31 GMT+0200 (közép-európai nyári idő)","2","7","0","1728743953433"
"796","f","SpeechGestureMatch","../RequiredFiles/videos/NeinKopfJa_m_no_gesture.mp4","Ist der Ball in der blauen Box?","Green","Blue","F","negation","na","speech","no","na","male","speech-gesture","1280","720","chrome","60.08","Windows 10","19","female","right","Sat Oct 12 2024 15:26:38 GMT+0200 (közép-európai nyári idő)","2","8","0","1728743953433"
"862","j","SpeechGestureMatch","../RequiredFiles/videos/JaKopfNein_m.mp4","Ist der Ball in der grünen Box?","Blue","Green","J","affirmation","mismatch","speech","yes","HeadShake","male","speech-gesture","1280","720","chrome","60.08","Windows 10","19","female","right","Sat Oct 12 2024 15:26:44 GMT+0200 (közép-európai nyári idő)","2","9","0","1728743953433"
"854","f","SpeechGestureMatch","../RequiredFiles/videos/NeinKopfJa_f.mp4","Ist der Ball in der grünen Box?","Blue","Green","F","negation","mismatch","speech","no","HeadNod","female","speech-gesture","1280","720","chrome","60.08","Windows 10","19","female","right","Sat Oct 12 2024 15:26:50 GMT+0200 (közép-európai nyári idő)","2","10","0","1728743953433"
"908","j","SpeechGestureMatch","../RequiredFiles/videos/NeinKopfJa_m.mp4","Ist der Ball in der blauen Box?","Blue","Green","J","negation","mismatch","speech","no","HeadNod","male","speech-gesture","1280","720","chrome","60.08","Windows 10","19","female","right","Sat Oct 12 2024 15:26:57 GMT+0200 (közép-európai nyári idő)","2","11","0","1728743953433"
"1113","j","SpeechGestureMatch","../RequiredFiles/videos/NeinKopfJa_m.mp4","Ist der Ball in der grünen Box?","Blue","Green","F","negation","mismatch","speech","no","HeadNod","male","speech-gesture","1280","720","chrome","60.08","Windows 10","19","female","right","Sat Oct 12 2024 15:27:03 GMT+0200 (közép-európai nyári idő)","2","12","1","1728743953433"
"769","f","SpeechGestureMatch","../RequiredFiles/videos/NeinKopfNein_m.mp4","Ist der Ball in der blauen Box?","Green","Blue","F","negation","match","speech","no","HeadShake","male","speech-gesture","1280","720","chrome","60.08","Windows 10","19","female","right","Sat Oct 12 2024 15:27:10 GMT+0200 (közép-európai nyári idő)","2","13","0","1728743953433"
"965","j","SpeechGestureMatch","../RequiredFiles/videos/NeinKopfJa_m.mp4","Ist der Ball in der grünen Box?","Green","Blue","J","negation","mismatch","speech","no","HeadNod","male","speech-gesture","1280","720","chrome","60.08","Windows 10","19","female","right","Sat Oct 12 2024 15:27:16 GMT+0200 (közép-európai nyári idő)","2","14","0","1728743953433"
"823","f","SpeechGestureMatch","../RequiredFiles/videos/NeinKopfJa_f_no_gesture.mp4","Ist der Ball in der grünen Box?","Blue","Green","F","negation","na","speech","no","na","female","speech-gesture","1280","720","chrome","60.08","Windows 10","19","female","right","Sat Oct 12 2024 15:27:23 GMT+0200 (közép-európai nyári idő)","2","15","0","1728743953433"
"766","j","SpeechGestureMatch","../RequiredFiles/videos/NeinKopfNein_m_no_gesture.mp4","Ist der Ball in der grünen Box?","Green","Blue","J","negation","na","speech","no","na","male","speech-gesture","1280","720","chrome","60.08","Windows 10","19","female","right","Sat Oct 12 2024 15:27:29 GMT+0200 (közép-európai nyári idő)","2","16","0","1728743953433"
"805","j","SpeechGestureMatch","../RequiredFiles/videos/NeinKopfNein_f.mp4","Ist der Ball in der blauen Box?","Blue","Green","J","negation","match","speech","no","HeadShake","female","speech-gesture","1280","720","chrome","60.08","Windows 10","19","female","right","Sat Oct 12 2024 15:27:35 GMT+0200 (közép-európai nyári idő)","2","17","0","1728743953433"
"733","j","SpeechGestureMatch","../RequiredFiles/videos/NeinKopfNein_m.mp4","Ist der Ball in der grünen Box?","Green","Blue","J","negation","match","speech","no","HeadShake","male","speech-gesture","1280","720","chrome","60.08","Windows 10","19","female","right","Sat Oct 12 2024 15:27:42 GMT+0200 (közép-európai nyári idő)","2","18","0","1728743953433"
"929","j","SpeechGestureMatch","../RequiredFiles/videos/NeinKopfJa_f.mp4","Ist der Ball in der blauen Box?","Blue","Green","J","negation","mismatch","speech","no","HeadNod","female","speech-gesture","1280","720","chrome","60.08","Windows 10","19","female","right","Sat Oct 12 2024 15:27:48 GMT+0200 (közép-európai nyári idő)","2","19","0","1728743953433"
"758","j","SpeechGestureMatch","../RequiredFiles/videos/JaKopfJa_f_no_gesture.mp4","Ist der Ball in der blauen Box?","Green","Blue","J","affirmation","na","speech","yes","na","female","speech-gesture","1280","720","chrome","60.08","Windows 10","19","female","right","Sat Oct 12 2024 15:27:54 GMT+0200 (közép-európai nyári idő)","2","20","0","1728743953433"
"980","f","SpeechGestureMatch","../RequiredFiles/videos/JaKopfNein_m.mp4","Ist der Ball in der blauen Box?","Blue","Green","F","affirmation","mismatch","speech","yes","HeadShake","male","speech-gesture","1280","720","chrome","60.08","Windows 10","19","female","right","Sat Oct 12 2024 15:28:01 GMT+0200 (közép-európai nyári idő)","2","21","0","1728743953433"
"791","f","SpeechGestureMatch","../RequiredFiles/videos/NeinKopfNein_f.mp4","Ist der Ball in der grünen Box?","Blue","Green","F","negation","match","speech","no","HeadShake","female","speech-gesture","1280","720","chrome","60.08","Windows 10","19","female","right","Sat Oct 12 2024 15:28:07 GMT+0200 (közép-európai nyári idő)","2","22","0","1728743953433"
"746","j","SpeechGestureMatch","../RequiredFiles/videos/JaKopfJa_m.mp4","Ist der Ball in der blauen Box?","Green","Blue","J","affirmation","match","speech","yes","HeadNod","male","speech-gesture","1280","720","chrome","60.08","Windows 10","19","female","right","Sat Oct 12 2024 15:28:14 GMT+0200 (közép-európai nyári idő)","2","23","0","1728743953433"
"879","j","SpeechGestureMatch","../RequiredFiles/videos/NeinKopfJa_f.mp4","Ist der Ball in der grünen Box?","Green","Blue","J","negation","mismatch","speech","no","HeadNod","female","speech-gesture","1280","720","chrome","60.08","Windows 10","19","female","right","Sat Oct 12 2024 15:28:20 GMT+0200 (közép-európai nyári idő)","2","24","0","1728743953433"
"858","f","SpeechGestureMatch","../RequiredFiles/videos/NeinKopfJa_f.mp4","Ist der Ball in der grünen Box?","Blue","Green","F","negation","mismatch","speech","no","HeadNod","female","speech-gesture","1280","720","chrome","60.08","Windows 10","19","female","right","Sat Oct 12 2024 15:28:26 GMT+0200 (közép-európai nyári idő)","2","25","0","1728743953433"
"922","j","SpeechGestureMatch","../RequiredFiles/videos/JaKopfNein_m_no_gesture.mp4","Ist der Ball in der blauen Box?","Green","Blue","J","affirmation","na","speech","yes","na","male","speech-gesture","1280","720","chrome","60.08","Windows 10","19","female","right","Sat Oct 12 2024 15:28:33 GMT+0200 (közép-európai nyári idő)","2","26","0","1728743953433"
"840","f","SpeechGestureMatch","../RequiredFiles/videos/JaKopfNein_m.mp4","Ist der Ball in der blauen Box?","Blue","Green","F","affirmation","mismatch","speech","yes","HeadShake","male","speech-gesture","1280","720","chrome","60.08","Windows 10","19","female","right","Sat Oct 12 2024 15:28:39 GMT+0200 (közép-európai nyári idő)","2","27","0","1728743953433"
"768","j","SpeechGestureMatch","../RequiredFiles/videos/JaKopfJa_f.mp4","Ist der Ball in der grünen Box?","Blue","Green","J","affirmation","match","speech","yes","HeadNod","female","speech-gesture","1280","720","chrome","60.08","Windows 10","19","female","right","Sat Oct 12 2024 15:28:46 GMT+0200 (közép-európai nyári idő)","2","28","0","1728743953433"
"888","j","SpeechGestureMatch","../RequiredFiles/videos/NeinKopfJa_m.mp4","Ist der Ball in der grünen Box?","Green","Blue","J","negation","mismatch","speech","no","HeadNod","male","speech-gesture","1280","720","chrome","60.08","Windows 10","19","female","right","Sat Oct 12 2024 15:28:52 GMT+0200 (közép-európai nyári idő)","2","29","0","1728743953433"
"951","f","SpeechGestureMatch","../RequiredFiles/videos/NeinKopfNein_f.mp4","Ist der Ball in der blauen Box?","Green","Blue","F","negation","match","speech","no","HeadShake","female","speech-gesture","1280","720","chrome","60.08","Windows 10","19","female","right","Sat Oct 12 2024 15:28:59 GMT+0200 (közép-európai nyári idő)","2","30","0","1728743953433"
"743","f","SpeechGestureMatch","../RequiredFiles/videos/NeinKopfNein_f.mp4","Ist der Ball in der grünen Box?","Blue","Green","F","negation","match","speech","no","HeadShake","female","speech-gesture","1280","720","chrome","60.08","Windows 10","19","female","right","Sat Oct 12 2024 15:29:05 GMT+0200 (közép-európai nyári idő)","2","31","0","1728743953433"
"907","f","SpeechGestureMatch","../RequiredFiles/videos/JaKopfNein_m.mp4","Ist der Ball in der grünen Box?","Green","Blue","F","affirmation","mismatch","speech","yes","HeadShake","male","speech-gesture","1280","720","chrome","60.08","Windows 10","19","female","right","Sat Oct 12 2024 15:29:11 GMT+0200 (közép-európai nyári idő)","2","32","0","1728743953433"
"801","j","SpeechGestureMatch","../RequiredFiles/videos/NeinKopfNein_m.mp4","Ist der Ball in der blauen Box?","Blue","Green","J","negation","match","speech","no","HeadShake","male","speech-gesture","1280","720","chrome","60.08","Windows 10","19","female","right","Sat Oct 12 2024 15:29:18 GMT+0200 (közép-európai nyári idő)","2","33","0","1728743953433"
"848","j","SpeechGestureMatch","../RequiredFiles/videos/JaKopfNein_f.mp4","Ist der Ball in der blauen Box?","Green","Blue","J","affirmation","mismatch","speech","yes","HeadShake","female","speech-gesture","1280","720","chrome","60.08","Windows 10","19","female","right","Sat Oct 12 2024 15:29:24 GMT+0200 (közép-európai nyári idő)","2","34","0","1728743953433"
"865","f","SpeechGestureMatch","../RequiredFiles/videos/JaKopfNein_m.mp4","Ist der Ball in der grünen Box?","Green","Blue","F","affirmation","mismatch","speech","yes","HeadShake","male","speech-gesture","1280","720","chrome","60.08","Windows 10","19","female","right","Sat Oct 12 2024 15:29:30 GMT+0200 (közép-európai nyári idő)","2","35","0","1728743953433"
"684","j","SpeechGestureMatch","../RequiredFiles/videos/JaKopfJa_m.mp4","Ist der Ball in der grünen Box?","Blue","Green","J","affirmation","match","speech","yes","HeadNod","male","speech-gesture","1280","720","chrome","60.08","Windows 10","19","female","right","Sat Oct 12 2024 15:29:37 GMT+0200 (közép-európai nyári idő)","2","36","0","1728743953433"
"843","j","SpeechGestureMatch","../RequiredFiles/videos/NeinKopfNein_m.mp4","Ist der Ball in der grünen Box?","Green","Blue","J","negation","match","speech","no","HeadShake","male","speech-gesture","1280","720","chrome","60.08","Windows 10","19","female","right","Sat Oct 12 2024 15:29:43 GMT+0200 (közép-európai nyári idő)","2","37","0","1728743953433"
"743","j","SpeechGestureMatch","../RequiredFiles/videos/JaKopfJa_f.mp4","Ist der Ball in der grünen Box?","Blue","Green","J","affirmation","match","speech","yes","HeadNod","female","speech-gesture","1280","720","chrome","60.08","Windows 10","19","female","right","Sat Oct 12 2024 15:29:49 GMT+0200 (közép-európai nyári idő)","2","38","0","1728743953433"
"720","j","SpeechGestureMatch","../RequiredFiles/videos/NeinKopfNein_m.mp4","Ist der Ball in der blauen Box?","Blue","Green","J","negation","match","speech","no","HeadShake","male","speech-gesture","1280","720","chrome","60.08","Windows 10","19","female","right","Sat Oct 12 2024 15:29:55 GMT+0200 (közép-európai nyári idő)","2","39","0","1728743953433"
"807","f","SpeechGestureMatch","../RequiredFiles/videos/JaKopfJa_f_no_gesture.mp4","Ist der Ball in der grünen Box?","Green","Blue","F","affirmation","na","speech","yes","na","female","speech-gesture","1280","720","chrome","60.08","Windows 10","19","female","right","Sat Oct 12 2024 15:30:02 GMT+0200 (közép-európai nyári idő)","2","40","0","1728743953433"
"745","f","SpeechGestureMatch","../RequiredFiles/videos/NeinKopfNein_m.mp4","Ist der Ball in der blauen Box?","Green","Blue","F","negation","match","speech","no","HeadShake","male","speech-gesture","1280","720","chrome","60.08","Windows 10","19","female","right","Sat Oct 12 2024 15:30:08 GMT+0200 (közép-európai nyári idő)","2","41","0","1728743953433"
"782","j","SpeechGestureMatch","../RequiredFiles/videos/NeinKopfNein_f_no_gesture.mp4","Ist der Ball in der grünen Box?","Green","Blue","J","negation","na","speech","no","na","female","speech-gesture","1280","720","chrome","60.08","Windows 10","19","female","right","Sat Oct 12 2024 15:30:14 GMT+0200 (közép-európai nyári idő)","2","42","0","1728743953433"
"1091","f","SpeechGestureMatch","../RequiredFiles/videos/NeinKopfJa_f.mp4","Ist der Ball in der blauen Box?","Green","Blue","F","negation","mismatch","speech","no","HeadNod","female","speech-gesture","1280","720","chrome","60.08","Windows 10","19","female","right","Sat Oct 12 2024 15:30:21 GMT+0200 (közép-európai nyári idő)","2","43","0","1728743953433"
"807","j","SpeechGestureMatch","../RequiredFiles/videos/NeinKopfJa_m_no_gesture.mp4","Ist der Ball in der grünen Box?","Green","Blue","J","negation","na","speech","no","na","male","speech-gesture","1280","720","chrome","60.08","Windows 10","19","female","right","Sat Oct 12 2024 15:30:27 GMT+0200 (közép-európai nyári idő)","2","44","0","1728743953433"
"796","f","SpeechGestureMatch","../RequiredFiles/videos/NeinKopfJa_m.mp4","Ist der Ball in der grünen Box?","Blue","Green","F","negation","mismatch","speech","no","HeadNod","male","speech-gesture","1280","720","chrome","60.08","Windows 10","19","female","right","Sat Oct 12 2024 15:30:34 GMT+0200 (közép-európai nyári idő)","2","45","0","1728743953433"
"1016","j","SpeechGestureMatch","../RequiredFiles/videos/NeinKopfJa_f_no_gesture.mp4","Ist der Ball in der grünen Box?","Green","Blue","J","negation","na","speech","no","na","female","speech-gesture","1280","720","chrome","60.08","Windows 10","19","female","right","Sat Oct 12 2024 15:30:40 GMT+0200 (közép-európai nyári idő)","2","46","0","1728743953433"
"858","j","SpeechGestureMatch","../RequiredFiles/videos/JaKopfJa_m.mp4","Ist der Ball in der grünen Box?","Blue","Green","J","affirmation","match","speech","yes","HeadNod","male","speech-gesture","1280","720","chrome","60.08","Windows 10","19","female","right","Sat Oct 12 2024 15:30:47 GMT+0200 (közép-európai nyári idő)","2","47","0","1728743953433"
"833","j","SpeechGestureMatch","../RequiredFiles/videos/JaKopfNein_f.mp4","Ist der Ball in der grünen Box?","Blue","Green","J","affirmation","mismatch","speech","yes","HeadShake","female","speech-gesture","1280","720","chrome","60.08","Windows 10","19","female","right","Sat Oct 12 2024 15:30:53 GMT+0200 (közép-európai nyári idő)","2","48","0","1728743953433"
"690","f","SpeechGestureMatch","../RequiredFiles/videos/JaKopfJa_f.mp4","Ist der Ball in der grünen Box?","Green","Blue","F","affirmation","match","speech","yes","HeadNod","female","speech-gesture","1280","720","chrome","60.08","Windows 10","19","female","right","Sat Oct 12 2024 15:30:59 GMT+0200 (közép-európai nyári idő)","2","49","0","1728743953433"
"782","j","SpeechGestureMatch","../RequiredFiles/videos/NeinKopfJa_f.mp4","Ist der Ball in der blauen Box?","Blue","Green","J","negation","mismatch","speech","no","HeadNod","female","speech-gesture","1280","720","chrome","60.08","Windows 10","19","female","right","Sat Oct 12 2024 15:31:06 GMT+0200 (közép-európai nyári idő)","2","50","0","1728743953433"
"766","f","SpeechGestureMatch","../RequiredFiles/videos/JaKopfJa_f.mp4","Ist der Ball in der grünen Box?","Green","Blue","F","affirmation","match","speech","yes","HeadNod","female","speech-gesture","1280","720","chrome","60.08","Windows 10","19","female","right","Sat Oct 12 2024 15:31:12 GMT+0200 (közép-európai nyári idő)","2","51","0","1728743953433"
"842","f","SpeechGestureMatch","../RequiredFiles/videos/NeinKopfNein_m.mp4","Ist der Ball in der grünen Box?","Blue","Green","F","negation","match","speech","no","HeadShake","male","speech-gesture","1280","720","chrome","60.08","Windows 10","19","female","right","Sat Oct 12 2024 15:31:18 GMT+0200 (közép-európai nyári idő)","2","52","0","1728743953433"
"967","j","SpeechGestureMatch","../RequiredFiles/videos/NeinKopfJa_m.mp4","Ist der Ball in der blauen Box?","Blue","Green","J","negation","mismatch","speech","no","HeadNod","male","speech-gesture","1280","720","chrome","60.08","Windows 10","19","female","right","Sat Oct 12 2024 15:31:25 GMT+0200 (közép-európai nyári idő)","2","53","0","1728743953433"
"864","f","SpeechGestureMatch","../RequiredFiles/videos/JaKopfNein_m_no_gesture.mp4","Ist der Ball in der blauen Box?","Blue","Green","F","affirmation","na","speech","yes","na","male","speech-gesture","1280","720","chrome","60.08","Windows 10","19","female","right","Sat Oct 12 2024 15:31:31 GMT+0200 (közép-európai nyári idő)","2","54","0","1728743953433"
"875","j","SpeechGestureMatch","../RequiredFiles/videos/JaKopfNein_f.mp4","Ist der Ball in der grünen Box?","Blue","Green","J","affirmation","mismatch","speech","yes","HeadShake","female","speech-gesture","1280","720","chrome","60.08","Windows 10","19","female","right","Sat Oct 12 2024 15:31:38 GMT+0200 (közép-európai nyári idő)","2","55","0","1728743953433"
"881","j","SpeechGestureMatch","../RequiredFiles/videos/JaKopfJa_f.mp4","Ist der Ball in der blauen Box?","Green","Blue","J","affirmation","match","speech","yes","HeadNod","female","speech-gesture","1280","720","chrome","60.08","Windows 10","19","female","right","Sat Oct 12 2024 15:31:44 GMT+0200 (közép-európai nyári idő)","2","56","0","1728743953433"
"884","f","SpeechGestureMatch","../RequiredFiles/videos/JaKopfJa_m_no_gesture.mp4","Ist der Ball in der grünen Box?","Green","Blue","F","affirmation","na","speech","yes","na","male","speech-gesture","1280","720","chrome","60.08","Windows 10","19","female","right","Sat Oct 12 2024 15:31:51 GMT+0200 (közép-európai nyári idő)","2","57","0","1728743953433"
"1038","f","SpeechGestureMatch","../RequiredFiles/videos/JaKopfNein_f.mp4","Ist der Ball in der blauen Box?","Blue","Green","F","affirmation","mismatch","speech","yes","HeadShake","female","speech-gesture","1280","720","chrome","60.08","Windows 10","19","female","right","Sat Oct 12 2024 15:31:57 GMT+0200 (közép-európai nyári idő)","2","58","0","1728743953433"
"835","j","SpeechGestureMatch","../RequiredFiles/videos/NeinKopfNein_f.mp4","Ist der Ball in der grünen Box?","Green","Blue","J","negation","match","speech","no","HeadShake","female","speech-gesture","1280","720","chrome","60.08","Windows 10","19","female","right","Sat Oct 12 2024 15:32:04 GMT+0200 (közép-európai nyári idő)","2","59","0","1728743953433"
"807","f","SpeechGestureMatch","../RequiredFiles/videos/JaKopfJa_m.mp4","Ist der Ball in der blauen Box?","Blue","Green","F","affirmation","match","speech","yes","HeadNod","male","speech-gesture","1280","720","chrome","60.08","Windows 10","19","female","right","Sat Oct 12 2024 15:32:10 GMT+0200 (közép-európai nyári idő)","2","60","0","1728743953433"
"811","f","SpeechGestureMatch","../RequiredFiles/videos/NeinKopfNein_m_no_gesture.mp4","Ist der Ball in der grünen Box?","Blue","Green","F","negation","na","speech","no","na","male","speech-gesture","1280","720","chrome","60.08","Windows 10","19","female","right","Sat Oct 12 2024 15:32:16 GMT+0200 (közép-európai nyári idő)","2","61","0","1728743953433"
"793","f","SpeechGestureMatch","../RequiredFiles/videos/NeinKopfNein_f_no_gesture.mp4","Ist der Ball in der blauen Box?","Green","Blue","F","negation","na","speech","no","na","female","speech-gesture","1280","720","chrome","60.08","Windows 10","19","female","right","Sat Oct 12 2024 15:32:23 GMT+0200 (közép-európai nyári idő)","2","62","0","1728743953433"
"836","f","SpeechGestureMatch","../RequiredFiles/videos/NeinKopfNein_m_no_gesture.mp4","Ist der Ball in der blauen Box?","Green","Blue","F","negation","na","speech","no","na","male","speech-gesture","1280","720","chrome","60.08","Windows 10","19","female","right","Sat Oct 12 2024 15:32:29 GMT+0200 (közép-európai nyári idő)","2","63","0","1728743953433"
"872","f","SpeechGestureMatch","../RequiredFiles/videos/NeinKopfJa_f_no_gesture.mp4","Ist der Ball in der blauen Box?","Green","Blue","F","negation","na","speech","no","na","female","speech-gesture","1280","720","chrome","60.08","Windows 10","19","female","right","Sat Oct 12 2024 15:32:35 GMT+0200 (közép-európai nyári idő)","2","64","0","1728743953433"
"935","f","SpeechGestureMatch","../RequiredFiles/videos/JaKopfJa_f_no_gesture.mp4","Ist der Ball in der blauen Box?","Blue","Green","F","affirmation","na","speech","yes","na","female","speech-gesture","1280","720","chrome","60.08","Windows 10","19","female","right","Sat Oct 12 2024 15:32:42 GMT+0200 (közép-európai nyári idő)","2","65","0","1728743953433"
"762","f","SpeechGestureMatch","../RequiredFiles/videos/NeinKopfNein_f.mp4","Ist der Ball in der blauen Box?","Green","Blue","F","negation","match","speech","no","HeadShake","female","speech-gesture","1280","720","chrome","60.08","Windows 10","19","female","right","Sat Oct 12 2024 15:32:48 GMT+0200 (közép-európai nyári idő)","2","66","0","1728743953433"
"841","j","SpeechGestureMatch","../RequiredFiles/videos/JaKopfNein_f_no_gesture.mp4","Ist der Ball in der grünen Box?","Blue","Green","J","affirmation","na","speech","yes","na","female","speech-gesture","1280","720","chrome","60.08","Windows 10","19","female","right","Sat Oct 12 2024 15:32:55 GMT+0200 (közép-európai nyári idő)","2","67","0","1728743953433"
"846","f","SpeechGestureMatch","../RequiredFiles/videos/JaKopfNein_f.mp4","Ist der Ball in der grünen Box?","Green","Blue","F","affirmation","mismatch","speech","yes","HeadShake","female","speech-gesture","1280","720","chrome","60.08","Windows 10","19","female","right","Sat Oct 12 2024 15:33:01 GMT+0200 (közép-európai nyári idő)","2","68","0","1728743953433"
"807","j","SpeechGestureMatch","../RequiredFiles/videos/NeinKopfJa_f.mp4","Ist der Ball in der grünen Box?","Green","Blue","J","negation","mismatch","speech","no","HeadNod","female","speech-gesture","1280","720","chrome","60.08","Windows 10","19","female","right","Sat Oct 12 2024 15:33:07 GMT+0200 (közép-európai nyári idő)","2","69","0","1728743953433"
"895","f","SpeechGestureMatch","../RequiredFiles/videos/JaKopfNein_m_no_gesture.mp4","Ist der Ball in der grünen Box?","Green","Blue","F","affirmation","na","speech","yes","na","male","speech-gesture","1280","720","chrome","60.08","Windows 10","19","female","right","Sat Oct 12 2024 15:33:14 GMT+0200 (közép-európai nyári idő)","2","70","0","1728743953433"
"848","f","SpeechGestureMatch","../RequiredFiles/videos/NeinKopfNein_f_no_gesture.mp4","Ist der Ball in der grünen Box?","Blue","Green","F","negation","na","speech","no","na","female","speech-gesture","1280","720","chrome","60.08","Windows 10","19","female","right","Sat Oct 12 2024 15:33:20 GMT+0200 (közép-európai nyári idő)","2","71","0","1728743953433"
"789","j","SpeechGestureMatch","../RequiredFiles/videos/JaKopfJa_f.mp4","Ist der Ball in der blauen Box?","Green","Blue","J","affirmation","match","speech","yes","HeadNod","female","speech-gesture","1280","720","chrome","60.08","Windows 10","19","female","right","Sat Oct 12 2024 15:33:27 GMT+0200 (közép-európai nyári idő)","2","72","0","1728743953433"
"749","f","SpeechGestureMatch","../RequiredFiles/videos/JaKopfNein_f_no_gesture.mp4","Ist der Ball in der blauen Box?","Blue","Green","F","affirmation","na","speech","yes","na","female","speech-gesture","1280","720","chrome","60.08","Windows 10","19","female","right","Sat Oct 12 2024 15:33:33 GMT+0200 (közép-európai nyári idő)","2","73","0","1728743953433"
"971","j","SpeechGestureMatch","../RequiredFiles/videos/NeinKopfJa_f_no_gesture.mp4","Ist der Ball in der blauen Box?","Blue","Green","J","negation","na","speech","no","na","female","speech-gesture","1280","720","chrome","60.08","Windows 10","19","female","right","Sat Oct 12 2024 15:33:39 GMT+0200 (közép-európai nyári idő)","2","74","0","1728743953433"
"867","j","SpeechGestureMatch","../RequiredFiles/videos/NeinKopfNein_m_no_gesture.mp4","Ist der Ball in der blauen Box?","Blue","Green","J","negation","na","speech","no","na","male","speech-gesture","1280","720","chrome","60.08","Windows 10","19","female","right","Sat Oct 12 2024 15:33:46 GMT+0200 (közép-európai nyári idő)","2","75","0","1728743953433"
"928","j","SpeechGestureMatch","../RequiredFiles/videos/JaKopfJa_m_no_gesture.mp4","Ist der Ball in der blauen Box?","Green","Blue","J","affirmation","na","speech","yes","na","male","speech-gesture","1280","720","chrome","60.08","Windows 10","19","female","right","Sat Oct 12 2024 15:33:52 GMT+0200 (közép-európai nyári idő)","2","76","0","1728743953433"
"1167","j","SpeechGestureMatch","../RequiredFiles/videos/JaKopfNein_m.mp4","Ist der Ball in der grünen Box?","Blue","Green","J","affirmation","mismatch","speech","yes","HeadShake","male","speech-gesture","1280","720","chrome","60.08","Windows 10","19","female","right","Sat Oct 12 2024 15:33:59 GMT+0200 (közép-európai nyári idő)","2","77","0","1728743953433"
"822","j","SpeechGestureMatch","../RequiredFiles/videos/JaKopfNein_m_no_gesture.mp4","Ist der Ball in der grünen Box?","Blue","Green","J","affirmation","na","speech","yes","na","male","speech-gesture","1280","720","chrome","60.08","Windows 10","19","female","right","Sat Oct 12 2024 15:34:05 GMT+0200 (közép-európai nyári idő)","2","78","0","1728743953433"
"752","f","SpeechGestureMatch","../RequiredFiles/videos/NeinKopfJa_m_no_gesture.mp4","Ist der Ball in der grünen Box?","Blue","Green","F","negation","na","speech","no","na","male","speech-gesture","1280","720","chrome","60.08","Windows 10","19","female","right","Sat Oct 12 2024 15:34:12 GMT+0200 (közép-európai nyári idő)","2","79","0","1728743953433"
"819","f","SpeechGestureMatch","../RequiredFiles/videos/NeinKopfJa_m.mp4","Ist der Ball in der blauen Box?","Green","Blue","F","negation","mismatch","speech","no","HeadNod","male","speech-gesture","1280","720","chrome","60.08","Windows 10","19","female","right","Sat Oct 12 2024 15:34:18 GMT+0200 (közép-európai nyári idő)","2","80","0","1728743953433"
"838","j","SpeechGestureMatch","../RequiredFiles/videos/NeinKopfNein_f_no_gesture.mp4","Ist der Ball in der blauen Box?","Blue","Green","J","negation","na","speech","no","na","female","speech-gesture","1280","720","chrome","60.08","Windows 10","19","female","right","Sat Oct 12 2024 15:34:24 GMT+0200 (közép-európai nyári idő)","2","81","0","1728743953433"
"732","j","SpeechGestureMatch","../RequiredFiles/videos/JaKopfJa_m.mp4","Ist der Ball in der blauen Box?","Green","Blue","J","affirmation","match","speech","yes","HeadNod","male","speech-gesture","1280","720","chrome","60.08","Windows 10","19","female","right","Sat Oct 12 2024 15:34:31 GMT+0200 (közép-európai nyári idő)","2","82","0","1728743953433"
"759","j","SpeechGestureMatch","../RequiredFiles/videos/NeinKopfNein_f.mp4","Ist der Ball in der blauen Box?","Blue","Green","J","negation","match","speech","no","HeadShake","female","speech-gesture","1280","720","chrome","60.08","Windows 10","19","female","right","Sat Oct 12 2024 15:34:37 GMT+0200 (közép-európai nyári idő)","2","83","0","1728743953433"
"760","f","SpeechGestureMatch","../RequiredFiles/videos/JaKopfJa_m.mp4","Ist der Ball in der blauen Box?","Blue","Green","F","affirmation","match","speech","yes","HeadNod","male","speech-gesture","1280","720","chrome","60.08","Windows 10","19","female","right","Sat Oct 12 2024 15:34:43 GMT+0200 (közép-európai nyári idő)","2","84","0","1728743953433"
"785","f","SpeechGestureMatch","../RequiredFiles/videos/NeinKopfJa_m.mp4","Ist der Ball in der blauen Box?","Green","Blue","F","negation","mismatch","speech","no","HeadNod","male","speech-gesture","1280","720","chrome","60.08","Windows 10","19","female","right","Sat Oct 12 2024 15:34:50 GMT+0200 (közép-európai nyári idő)","2","85","0","1728743953433"
"972","f","SpeechGestureMatch","../RequiredFiles/videos/JaKopfJa_m_no_gesture.mp4","Ist der Ball in der blauen Box?","Blue","Green","F","affirmation","na","speech","yes","na","male","speech-gesture","1280","720","chrome","60.08","Windows 10","19","female","right","Sat Oct 12 2024 15:34:56 GMT+0200 (közép-európai nyári idő)","2","86","0","1728743953433"
"810","f","SpeechGestureMatch","../RequiredFiles/videos/JaKopfNein_f.mp4","Ist der Ball in der grünen Box?","Green","Blue","F","affirmation","mismatch","speech","yes","HeadShake","female","speech-gesture","1280","720","chrome","60.08","Windows 10","19","female","right","Sat Oct 12 2024 15:35:03 GMT+0200 (közép-európai nyári idő)","2","87","0","1728743953433"
"895","f","SpeechGestureMatch","../RequiredFiles/videos/NeinKopfJa_f.mp4","Ist der Ball in der blauen Box?","Green","Blue","F","negation","mismatch","speech","no","HeadNod","female","speech-gesture","1280","720","chrome","60.08","Windows 10","19","female","right","Sat Oct 12 2024 15:35:09 GMT+0200 (közép-európai nyári idő)","2","88","0","1728743953433"
"786","j","SpeechGestureMatch","../RequiredFiles/videos/JaKopfJa_f_no_gesture.mp4","Ist der Ball in der grünen Box?","Blue","Green","J","affirmation","na","speech","yes","na","female","speech-gesture","1280","720","chrome","60.08","Windows 10","19","female","right","Sat Oct 12 2024 15:35:15 GMT+0200 (közép-európai nyári idő)","2","89","0","1728743953433"
"788","f","SpeechGestureMatch","../RequiredFiles/videos/JaKopfJa_f.mp4","Ist der Ball in der blauen Box?","Blue","Green","F","affirmation","match","speech","yes","HeadNod","female","speech-gesture","1280","720","chrome","60.08","Windows 10","19","female","right","Sat Oct 12 2024 15:35:22 GMT+0200 (közép-európai nyári idő)","2","90","0","1728743953433"
"838","j","SpeechGestureMatch","../RequiredFiles/videos/JaKopfNein_m.mp4","Ist der Ball in der blauen Box?","Green","Blue","J","affirmation","mismatch","speech","yes","HeadShake","male","speech-gesture","1280","720","chrome","60.08","Windows 10","19","female","right","Sat Oct 12 2024 15:35:28 GMT+0200 (közép-európai nyári idő)","2","91","0","1728743953433"
"668","j","SpeechGestureMatch","../RequiredFiles/videos/JaKopfNein_f_no_gesture.mp4","Ist der Ball in der blauen Box?","Green","Blue","J","affirmation","na","speech","yes","na","female","speech-gesture","1280","720","chrome","60.08","Windows 10","19","female","right","Sat Oct 12 2024 15:35:34 GMT+0200 (közép-európai nyári idő)","2","92","0","1728743953433"
"694","f","SpeechGestureMatch","../RequiredFiles/videos/NeinKopfNein_m.mp4","Ist der Ball in der grünen Box?","Blue","Green","F","negation","match","speech","no","HeadShake","male","speech-gesture","1280","720","chrome","60.08","Windows 10","19","female","right","Sat Oct 12 2024 15:35:41 GMT+0200 (közép-európai nyári idő)","2","93","0","1728743953433"
"746","f","SpeechGestureMatch","../RequiredFiles/videos/JaKopfJa_m.mp4","Ist der Ball in der grünen Box?","Green","Blue","F","affirmation","match","speech","yes","HeadNod","male","speech-gesture","1280","720","chrome","60.08","Windows 10","19","female","right","Sat Oct 12 2024 15:35:47 GMT+0200 (közép-európai nyári idő)","2","94","0","1728743953433"
"846","j","SpeechGestureMatch","../RequiredFiles/videos/JaKopfNein_f.mp4","Ist der Ball in der blauen Box?","Green","Blue","J","affirmation","mismatch","speech","yes","HeadShake","female","speech-gesture","1280","720","chrome","60.08","Windows 10","19","female","right","Sat Oct 12 2024 15:35:53 GMT+0200 (közép-európai nyári idő)","2","95","0","1728743953433"
"694","f","SpeechGestureMatch","../RequiredFiles/videos/JaKopfJa_m.mp4","Ist der Ball in der grünen Box?","Green","Blue","F","affirmation","match","speech","yes","HeadNod","male","speech-gesture","1280","720","chrome","60.08","Windows 10","19","female","right","Sat Oct 12 2024 15:36:00 GMT+0200 (közép-európai nyári idő)","2","96","0","1728743953433"
"1610","f","SpeechGestureMatch","../RequiredFiles/videos/NeinKopfNein_m.mp4","Ist der Ball in der blauen Box?","Green","Blue","F","negation","match","gesture","no","HeadShake","male","speech-gesture","1280","720","chrome","60.08","Windows 10","19","female","right","Sat Oct 12 2024 15:57:34 GMT+0200 (közép-európai nyári idő)","3","1","0","1728743953433"
"1003","j","SpeechGestureMatch","../RequiredFiles/videos/NeinKopfJa_f.mp4","Ist der Ball in der grünen Box?","Blue","Green","J","affirmation","mismatch","gesture","no","HeadNod","female","speech-gesture","1280","720","chrome","60.08","Windows 10","19","female","right","Sat Oct 12 2024 15:57:40 GMT+0200 (közép-európai nyári idő)","3","2","0","1728743953433"
"834","f","SpeechGestureMatch","../RequiredFiles/videos/NeinKopfNein_f.mp4","Ist der Ball in der blauen Box?","Green","Blue","F","negation","match","gesture","no","HeadShake","female","speech-gesture","1280","720","chrome","60.08","Windows 10","19","female","right","Sat Oct 12 2024 15:57:46 GMT+0200 (közép-európai nyári idő)","3","3","0","1728743953433"
"747","f","SpeechGestureMatch","../RequiredFiles/videos/JaKopfJa_m.mp4","Ist der Ball in der grünen Box?","Green","Blue","F","affirmation","match","gesture","yes","HeadNod","male","speech-gesture","1280","720","chrome","60.08","Windows 10","19","female","right","Sat Oct 12 2024 15:57:53 GMT+0200 (közép-európai nyári idő)","3","4","0","1728743953433"
"889","j","SpeechGestureMatch","../RequiredFiles/videos/JaKopfJa_m_no_sound.mp4","Ist der Ball in der grünen Box?","Blue","Green","J","affirmation","na","gesture","na","HeadNod","male","speech-gesture","1280","720","chrome","60.08","Windows 10","19","female","right","Sat Oct 12 2024 15:57:59 GMT+0200 (közép-európai nyári idő)","3","5","0","1728743953433"
"707","f","SpeechGestureMatch","../RequiredFiles/videos/NeinKopfNein_m.mp4","Ist der Ball in der grünen Box?","Blue","Green","F","negation","match","gesture","no","HeadShake","male","speech-gesture","1280","720","chrome","60.08","Windows 10","19","female","right","Sat Oct 12 2024 15:58:05 GMT+0200 (közép-európai nyári idő)","3","6","0","1728743953433"
"842","j","SpeechGestureMatch","../RequiredFiles/videos/NeinKopfJa_m.mp4","Ist der Ball in der blauen Box?","Green","Blue","J","affirmation","mismatch","gesture","no","HeadNod","male","speech-gesture","1280","720","chrome","60.08","Windows 10","19","female","right","Sat Oct 12 2024 15:58:12 GMT+0200 (közép-európai nyári idő)","3","7","0","1728743953433"
"616","f","SpeechGestureMatch","../RequiredFiles/videos/NeinKopfJa_m_no_sound.mp4","Ist der Ball in der blauen Box?","Blue","Green","F","affirmation","na","gesture","na","HeadNod","male","speech-gesture","1280","720","chrome","60.08","Windows 10","19","female","right","Sat Oct 12 2024 15:58:18 GMT+0200 (közép-európai nyári idő)","3","8","0","1728743953433"
"929","f","SpeechGestureMatch","../RequiredFiles/videos/NeinKopfNein_m.mp4","Ist der Ball in der grünen Box?","Blue","Green","F","negation","match","gesture","no","HeadShake","male","speech-gesture","1280","720","chrome","60.08","Windows 10","19","female","right","Sat Oct 12 2024 15:58:24 GMT+0200 (közép-európai nyári idő)","3","9","0","1728743953433"
"830","j","SpeechGestureMatch","../RequiredFiles/videos/JaKopfJa_m.mp4","Ist der Ball in der blauen Box?","Green","Blue","J","affirmation","match","gesture","yes","HeadNod","male","speech-gesture","1280","720","chrome","60.08","Windows 10","19","female","right","Sat Oct 12 2024 15:58:31 GMT+0200 (közép-európai nyári idő)","3","10","0","1728743953433"
"760","j","SpeechGestureMatch","../RequiredFiles/videos/JaKopfJa_m.mp4","Ist der Ball in der grünen Box?","Blue","Green","J","affirmation","match","gesture","yes","HeadNod","male","speech-gesture","1280","720","chrome","60.08","Windows 10","19","female","right","Sat Oct 12 2024 15:58:37 GMT+0200 (közép-európai nyári idő)","3","11","0","1728743953433"
"609","f","SpeechGestureMatch","../RequiredFiles/videos/JaKopfNein_f.mp4","Ist der Ball in der grünen Box?","Blue","Green","F","negation","mismatch","gesture","yes","HeadShake","female","speech-gesture","1280","720","chrome","60.08","Windows 10","19","female","right","Sat Oct 12 2024 15:58:43 GMT+0200 (közép-európai nyári idő)","3","12","0","1728743953433"
"1338","f","SpeechGestureMatch","../RequiredFiles/videos/NeinKopfNein_f.mp4","Ist der Ball in der blauen Box?","Green","Blue","F","negation","match","gesture","no","HeadShake","female","speech-gesture","1280","720","chrome","60.08","Windows 10","19","female","right","Sat Oct 12 2024 15:58:50 GMT+0200 (közép-európai nyári idő)","3","13","0","1728743953433"
"880","j","SpeechGestureMatch","../RequiredFiles/videos/NeinKopfJa_f.mp4","Ist der Ball in der blauen Box?","Green","Blue","J","affirmation","mismatch","gesture","no","HeadNod","female","speech-gesture","1280","720","chrome","60.08","Windows 10","19","female","right","Sat Oct 12 2024 15:58:57 GMT+0200 (közép-európai nyári idő)","3","14","0","1728743953433"
"840","f","SpeechGestureMatch","../RequiredFiles/videos/JaKopfJa_f_no_sound.mp4","Ist der Ball in der blauen Box?","Blue","Green","F","affirmation","na","gesture","na","HeadNod","female","speech-gesture","1280","720","chrome","60.08","Windows 10","19","female","right","Sat Oct 12 2024 15:59:03 GMT+0200 (közép-európai nyári idő)","3","15","0","1728743953433"
"743","j","SpeechGestureMatch","../RequiredFiles/videos/JaKopfNein_f.mp4","Ist der Ball in der blauen Box?","Blue","Green","J","negation","mismatch","gesture","yes","HeadShake","female","speech-gesture","1280","720","chrome","60.08","Windows 10","19","female","right","Sat Oct 12 2024 15:59:09 GMT+0200 (közép-európai nyári idő)","3","16","0","1728743953433"
"918","f","SpeechGestureMatch","../RequiredFiles/videos/NeinKopfJa_f_no_sound.mp4","Ist der Ball in der grünen Box?","Green","Blue","F","affirmation","na","gesture","na","HeadNod","female","speech-gesture","1280","720","chrome","60.08","Windows 10","19","female","right","Sat Oct 12 2024 15:59:16 GMT+0200 (közép-európai nyári idő)","3","17","0","1728743953433"
"802","f","SpeechGestureMatch","../RequiredFiles/videos/JaKopfJa_f.mp4","Ist der Ball in der grünen Box?","Green","Blue","F","affirmation","match","gesture","yes","HeadNod","female","speech-gesture","1280","720","chrome","60.08","Windows 10","19","female","right","Sat Oct 12 2024 15:59:22 GMT+0200 (közép-európai nyári idő)","3","18","0","1728743953433"
"701","j","SpeechGestureMatch","../RequiredFiles/videos/JaKopfNein_m.mp4","Ist der Ball in der grünen Box?","Green","Blue","J","negation","mismatch","gesture","yes","HeadShake","male","speech-gesture","1280","720","chrome","60.08","Windows 10","19","female","right","Sat Oct 12 2024 15:59:28 GMT+0200 (közép-európai nyári idő)","3","19","0","1728743953433"
"633","j","SpeechGestureMatch","../RequiredFiles/videos/JaKopfJa_f.mp4","Ist der Ball in der grünen Box?","Blue","Green","J","affirmation","match","gesture","yes","HeadNod","female","speech-gesture","1280","720","chrome","60.08","Windows 10","19","female","right","Sat Oct 12 2024 15:59:35 GMT+0200 (közép-európai nyári idő)","3","20","0","1728743953433"
"955","j","SpeechGestureMatch","../RequiredFiles/videos/JaKopfNein_m.mp4","Ist der Ball in der grünen Box?","Green","Blue","J","negation","mismatch","gesture","yes","HeadShake","male","speech-gesture","1280","720","chrome","60.08","Windows 10","19","female","right","Sat Oct 12 2024 15:59:41 GMT+0200 (közép-európai nyári idő)","3","21","0","1728743953433"
"723","j","SpeechGestureMatch","../RequiredFiles/videos/NeinKopfNein_m_no_sound.mp4","Ist der Ball in der blauen Box?","Blue","Green","J","negation","na","gesture","na","HeadShake","male","speech-gesture","1280","720","chrome","60.08","Windows 10","19","female","right","Sat Oct 12 2024 15:59:47 GMT+0200 (közép-európai nyári idő)","3","22","0","1728743953433"
"937","j","SpeechGestureMatch","../RequiredFiles/videos/JaKopfNein_f.mp4","Ist der Ball in der grünen Box?","Green","Blue","J","negation","mismatch","gesture","yes","HeadShake","female","speech-gesture","1280","720","chrome","60.08","Windows 10","19","female","right","Sat Oct 12 2024 15:59:54 GMT+0200 (közép-európai nyári idő)","3","23","0","1728743953433"
"977","f","SpeechGestureMatch","../RequiredFiles/videos/NeinKopfJa_m.mp4","Ist der Ball in der blauen Box?","Blue","Green","F","affirmation","mismatch","gesture","no","HeadNod","male","speech-gesture","1280","720","chrome","60.08","Windows 10","19","female","right","Sat Oct 12 2024 16:00:00 GMT+0200 (közép-európai nyári idő)","3","24","0","1728743953433"
"606","j","SpeechGestureMatch","../RequiredFiles/videos/NeinKopfJa_f_no_sound.mp4","Ist der Ball in der blauen Box?","Green","Blue","J","affirmation","na","gesture","na","HeadNod","female","speech-gesture","1280","720","chrome","60.08","Windows 10","19","female","right","Sat Oct 12 2024 16:00:06 GMT+0200 (közép-európai nyári idő)","3","25","0","1728743953433"
"1001","f","SpeechGestureMatch","../RequiredFiles/videos/NeinKopfJa_f.mp4","Ist der Ball in der blauen Box?","Blue","Green","F","affirmation","mismatch","gesture","no","HeadNod","female","speech-gesture","1280","720","chrome","60.08","Windows 10","19","female","right","Sat Oct 12 2024 16:00:13 GMT+0200 (közép-európai nyári idő)","3","26","0","1728743953433"
"868","f","SpeechGestureMatch","../RequiredFiles/videos/JaKopfNein_m.mp4","Ist der Ball in der grünen Box?","Blue","Green","F","negation","mismatch","gesture","yes","HeadShake","male","speech-gesture","1280","720","chrome","60.08","Windows 10","19","female","right","Sat Oct 12 2024 16:00:19 GMT+0200 (közép-európai nyári idő)","3","27","0","1728743953433"
"662","j","SpeechGestureMatch","../RequiredFiles/videos/NeinKopfJa_f_no_sound.mp4","Ist der Ball in der grünen Box?","Blue","Green","J","affirmation","na","gesture","na","HeadNod","female","speech-gesture","1280","720","chrome","60.08","Windows 10","19","female","right","Sat Oct 12 2024 16:00:26 GMT+0200 (közép-európai nyári idő)","3","28","0","1728743953433"
"752","j","SpeechGestureMatch","../RequiredFiles/videos/NeinKopfJa_f.mp4","Ist der Ball in der blauen Box?","Green","Blue","J","affirmation","mismatch","gesture","no","HeadNod","female","speech-gesture","1280","720","chrome","60.08","Windows 10","19","female","right","Sat Oct 12 2024 16:00:32 GMT+0200 (közép-európai nyári idő)","3","29","0","1728743953433"
"834","j","SpeechGestureMatch","../RequiredFiles/videos/JaKopfNein_f.mp4","Ist der Ball in der blauen Box?","Blue","Green","J","negation","mismatch","gesture","yes","HeadShake","female","speech-gesture","1280","720","chrome","60.08","Windows 10","19","female","right","Sat Oct 12 2024 16:00:38 GMT+0200 (közép-európai nyári idő)","3","30","0","1728743953433"
"842","j","SpeechGestureMatch","../RequiredFiles/videos/NeinKopfNein_f.mp4","Ist der Ball in der blauen Box?","Blue","Green","J","negation","match","gesture","no","HeadShake","female","speech-gesture","1280","720","chrome","60.08","Windows 10","19","female","right","Sat Oct 12 2024 16:00:45 GMT+0200 (közép-európai nyári idő)","3","31","0","1728743953433"
"781","j","SpeechGestureMatch","../RequiredFiles/videos/NeinKopfNein_f.mp4","Ist der Ball in der grünen Box?","Green","Blue","J","negation","match","gesture","no","HeadShake","female","speech-gesture","1280","720","chrome","60.08","Windows 10","19","female","right","Sat Oct 12 2024 16:00:51 GMT+0200 (közép-európai nyári idő)","3","32","0","1728743953433"
"975","f","SpeechGestureMatch","../RequiredFiles/videos/JaKopfJa_m.mp4","Ist der Ball in der grünen Box?","Green","Blue","F","affirmation","match","gesture","yes","HeadNod","male","speech-gesture","1280","720","chrome","60.08","Windows 10","19","female","right","Sat Oct 12 2024 16:00:57 GMT+0200 (közép-európai nyári idő)","3","33","0","1728743953433"
"815","f","SpeechGestureMatch","../RequiredFiles/videos/JaKopfJa_m.mp4","Ist der Ball in der blauen Box?","Blue","Green","F","affirmation","match","gesture","yes","HeadNod","male","speech-gesture","1280","720","chrome","60.08","Windows 10","19","female","right","Sat Oct 12 2024 16:01:04 GMT+0200 (közép-európai nyári idő)","3","34","0","1728743953433"
"661","f","SpeechGestureMatch","../RequiredFiles/videos/NeinKopfJa_f_no_sound.mp4","Ist der Ball in der blauen Box?","Blue","Green","F","affirmation","na","gesture","na","HeadNod","female","speech-gesture","1280","720","chrome","60.08","Windows 10","19","female","right","Sat Oct 12 2024 16:01:10 GMT+0200 (közép-európai nyári idő)","3","35","0","1728743953433"
"862","f","SpeechGestureMatch","../RequiredFiles/videos/NeinKopfJa_m.mp4","Ist der Ball in der grünen Box?","Green","Blue","F","affirmation","mismatch","gesture","no","HeadNod","male","speech-gesture","1280","720","chrome","60.08","Windows 10","19","female","right","Sat Oct 12 2024 16:01:16 GMT+0200 (közép-európai nyári idő)","3","36","0","1728743953433"
"755","j","SpeechGestureMatch","../RequiredFiles/videos/JaKopfJa_m.mp4","Ist der Ball in der blauen Box?","Green","Blue","J","affirmation","match","gesture","yes","HeadNod","male","speech-gesture","1280","720","chrome","60.08","Windows 10","19","female","right","Sat Oct 12 2024 16:01:23 GMT+0200 (közép-európai nyári idő)","3","37","0","1728743953433"
"792","j","SpeechGestureMatch","../RequiredFiles/videos/NeinKopfNein_m.mp4","Ist der Ball in der blauen Box?","Blue","Green","J","negation","match","gesture","no","HeadShake","male","speech-gesture","1280","720","chrome","60.08","Windows 10","19","female","right","Sat Oct 12 2024 16:01:29 GMT+0200 (közép-európai nyári idő)","3","38","0","1728743953433"
"806","j","SpeechGestureMatch","../RequiredFiles/videos/NeinKopfJa_m_no_sound.mp4","Ist der Ball in der blauen Box?","Green","Blue","J","affirmation","na","gesture","na","HeadNod","male","speech-gesture","1280","720","chrome","60.08","Windows 10","19","female","right","Sat Oct 12 2024 16:01:35 GMT+0200 (közép-európai nyári idő)","3","39","0","1728743953433"
"747","j","SpeechGestureMatch","../RequiredFiles/videos/NeinKopfNein_f_no_sound.mp4","Ist der Ball in der grünen Box?","Green","Blue","J","negation","na","gesture","na","HeadShake","female","speech-gesture","1280","720","chrome","60.08","Windows 10","19","female","right","Sat Oct 12 2024 16:01:42 GMT+0200 (közép-európai nyári idő)","3","40","0","1728743953433"
"627","f","SpeechGestureMatch","../RequiredFiles/videos/JaKopfJa_m_no_sound.mp4","Ist der Ball in der blauen Box?","Green","Blue","J","affirmation","na","gesture","na","HeadNod","male","speech-gesture","1280","720","chrome","60.08","Windows 10","19","female","right","Sat Oct 12 2024 16:01:48 GMT+0200 (közép-európai nyári idő)","3","41","1","1728743953433"
"694","j","SpeechGestureMatch","../RequiredFiles/videos/JaKopfNein_m_no_sound.mp4","Ist der Ball in der grünen Box?","Green","Blue","J","negation","na","gesture","na","HeadShake","male","speech-gesture","1280","720","chrome","60.08","Windows 10","19","female","right","Sat Oct 12 2024 16:01:54 GMT+0200 (közép-európai nyári idő)","3","42","0","1728743953433"
"713","j","SpeechGestureMatch","../RequiredFiles/videos/NeinKopfNein_f_no_sound.mp4","Ist der Ball in der grünen Box?","Blue","Green","F","negation","na","gesture","na","HeadShake","female","speech-gesture","1280","720","chrome","60.08","Windows 10","19","female","right","Sat Oct 12 2024 16:02:00 GMT+0200 (közép-európai nyári idő)","3","43","1","1728743953433"
"844","f","SpeechGestureMatch","../RequiredFiles/videos/JaKopfJa_f.mp4","Ist der Ball in der blauen Box?","Blue","Green","F","affirmation","match","gesture","yes","HeadNod","female","speech-gesture","1280","720","chrome","60.08","Windows 10","19","female","right","Sat Oct 12 2024 16:02:07 GMT+0200 (közép-európai nyári idő)","3","44","0","1728743953433"
"881","f","SpeechGestureMatch","../RequiredFiles/videos/JaKopfNein_f.mp4","Ist der Ball in der blauen Box?","Green","Blue","F","negation","mismatch","gesture","yes","HeadShake","female","speech-gesture","1280","720","chrome","60.08","Windows 10","19","female","right","Sat Oct 12 2024 16:02:13 GMT+0200 (közép-európai nyári idő)","3","45","0","1728743953433"
"835","j","SpeechGestureMatch","../RequiredFiles/videos/JaKopfNein_m_no_sound.mp4","Ist der Ball in der blauen Box?","Blue","Green","J","negation","na","gesture","na","HeadShake","male","speech-gesture","1280","720","chrome","60.08","Windows 10","19","female","right","Sat Oct 12 2024 16:02:19 GMT+0200 (közép-európai nyári idő)","3","46","0","1728743953433"
"644","j","SpeechGestureMatch","../RequiredFiles/videos/NeinKopfNein_m_no_sound.mp4","Ist der Ball in der grünen Box?","Green","Blue","J","negation","na","gesture","na","HeadShake","male","speech-gesture","1280","720","chrome","60.08","Windows 10","19","female","right","Sat Oct 12 2024 16:02:26 GMT+0200 (közép-európai nyári idő)","3","47","0","1728743953433"
"790","j","SpeechGestureMatch","../RequiredFiles/videos/JaKopfJa_f_no_sound.mp4","Ist der Ball in der grünen Box?","Blue","Green","J","affirmation","na","gesture","na","HeadNod","female","speech-gesture","1280","720","chrome","60.08","Windows 10","19","female","right","Sat Oct 12 2024 16:02:32 GMT+0200 (közép-európai nyári idő)","3","48","0","1728743953433"
"668","f","SpeechGestureMatch","../RequiredFiles/videos/NeinKopfNein_m_no_sound.mp4","Ist der Ball in der grünen Box?","Blue","Green","F","negation","na","gesture","na","HeadShake","male","speech-gesture","1280","720","chrome","60.08","Windows 10","19","female","right","Sat Oct 12 2024 16:02:38 GMT+0200 (közép-európai nyári idő)","3","49","0","1728743953433"
"929","j","SpeechGestureMatch","../RequiredFiles/videos/JaKopfJa_m.mp4","Ist der Ball in der grünen Box?","Blue","Green","J","affirmation","match","gesture","yes","HeadNod","male","speech-gesture","1280","720","chrome","60.08","Windows 10","19","female","right","Sat Oct 12 2024 16:02:45 GMT+0200 (közép-európai nyári idő)","3","50","0","1728743953433"
"901","j","SpeechGestureMatch","../RequiredFiles/videos/NeinKopfNein_m.mp4","Ist der Ball in der blauen Box?","Blue","Green","J","negation","match","gesture","no","HeadShake","male","speech-gesture","1280","720","chrome","60.08","Windows 10","19","female","right","Sat Oct 12 2024 16:02:51 GMT+0200 (közép-európai nyári idő)","3","51","0","1728743953433"
"876","f","SpeechGestureMatch","../RequiredFiles/videos/JaKopfJa_m.mp4","Ist der Ball in der blauen Box?","Blue","Green","F","affirmation","match","gesture","yes","HeadNod","male","speech-gesture","1280","720","chrome","60.08","Windows 10","19","female","right","Sat Oct 12 2024 16:02:57 GMT+0200 (közép-európai nyári idő)","3","52","0","1728743953433"
"608","j","SpeechGestureMatch","../RequiredFiles/videos/NeinKopfJa_m_no_sound.mp4","Ist der Ball in der grünen Box?","Blue","Green","J","affirmation","na","gesture","na","HeadNod","male","speech-gesture","1280","720","chrome","60.08","Windows 10","19","female","right","Sat Oct 12 2024 16:03:04 GMT+0200 (közép-európai nyári idő)","3","53","0","1728743953433"
"1141","f","SpeechGestureMatch","../RequiredFiles/videos/NeinKopfJa_m.mp4","Ist der Ball in der grünen Box?","Green","Blue","F","affirmation","mismatch","gesture","no","HeadNod","male","speech-gesture","1280","720","chrome","60.08","Windows 10","19","female","right","Sat Oct 12 2024 16:03:10 GMT+0200 (közép-európai nyári idő)","3","54","0","1728743953433"
"809","j","SpeechGestureMatch","../RequiredFiles/videos/JaKopfJa_f.mp4","Ist der Ball in der blauen Box?","Green","Blue","J","affirmation","match","gesture","yes","HeadNod","female","speech-gesture","1280","720","chrome","60.08","Windows 10","19","female","right","Sat Oct 12 2024 16:03:17 GMT+0200 (közép-európai nyári idő)","3","55","0","1728743953433"
"678","f","SpeechGestureMatch","../RequiredFiles/videos/JaKopfNein_m_no_sound.mp4","Ist der Ball in der grünen Box?","Blue","Green","F","negation","na","gesture","na","HeadShake","male","speech-gesture","1280","720","chrome","60.08","Windows 10","19","female","right","Sat Oct 12 2024 16:03:23 GMT+0200 (közép-európai nyári idő)","3","56","0","1728743953433"
"866","j","SpeechGestureMatch","../RequiredFiles/videos/NeinKopfJa_m.mp4","Ist der Ball in der grünen Box?","Blue","Green","J","affirmation","mismatch","gesture","no","HeadNod","male","speech-gesture","1280","720","chrome","60.08","Windows 10","19","female","right","Sat Oct 12 2024 16:03:29 GMT+0200 (közép-európai nyári idő)","3","57","0","1728743953433"
"681","f","SpeechGestureMatch","../RequiredFiles/videos/NeinKopfJa_m_no_sound.mp4","Ist der Ball in der grünen Box?","Green","Blue","F","affirmation","na","gesture","na","HeadNod","male","speech-gesture","1280","720","chrome","60.08","Windows 10","19","female","right","Sat Oct 12 2024 16:03:36 GMT+0200 (közép-európai nyári idő)","3","58","0","1728743953433"
"663","f","SpeechGestureMatch","../RequiredFiles/videos/NeinKopfNein_m_no_sound.mp4","Ist der Ball in der blauen Box?","Green","Blue","F","negation","na","gesture","na","HeadShake","male","speech-gesture","1280","720","chrome","60.08","Windows 10","19","female","right","Sat Oct 12 2024 16:03:42 GMT+0200 (közép-európai nyári idő)","3","59","0","1728743953433"
"779","f","SpeechGestureMatch","../RequiredFiles/videos/JaKopfJa_f.mp4","Ist der Ball in der blauen Box?","Blue","Green","F","affirmation","match","gesture","yes","HeadNod","female","speech-gesture","1280","720","chrome","60.08","Windows 10","19","female","right","Sat Oct 12 2024 16:03:48 GMT+0200 (közép-európai nyári idő)","3","60","0","1728743953433"
"629","j","SpeechGestureMatch","../RequiredFiles/videos/JaKopfJa_f.mp4","Ist der Ball in der blauen Box?","Green","Blue","J","affirmation","match","gesture","yes","HeadNod","female","speech-gesture","1280","720","chrome","60.08","Windows 10","19","female","right","Sat Oct 12 2024 16:03:54 GMT+0200 (közép-európai nyári idő)","3","61","0","1728743953433"
"682","f","SpeechGestureMatch","../RequiredFiles/videos/JaKopfNein_f_no_sound.mp4","Ist der Ball in der grünen Box?","Blue","Green","F","negation","na","gesture","na","HeadShake","female","speech-gesture","1280","720","chrome","60.08","Windows 10","19","female","right","Sat Oct 12 2024 16:04:00 GMT+0200 (közép-európai nyári idő)","3","62","0","1728743953433"
"880","f","SpeechGestureMatch","../RequiredFiles/videos/NeinKopfJa_f.mp4","Ist der Ball in der grünen Box?","Green","Blue","F","affirmation","mismatch","gesture","no","HeadNod","female","speech-gesture","1280","720","chrome","60.08","Windows 10","19","female","right","Sat Oct 12 2024 16:04:07 GMT+0200 (közép-európai nyári idő)","3","63","0","1728743953433"
"607","f","SpeechGestureMatch","../RequiredFiles/videos/JaKopfJa_m_no_sound.mp4","Ist der Ball in der grünen Box?","Green","Blue","F","affirmation","na","gesture","na","HeadNod","male","speech-gesture","1280","720","chrome","60.08","Windows 10","19","female","right","Sat Oct 12 2024 16:04:13 GMT+0200 (közép-európai nyári idő)","3","64","0","1728743953433"
"501","j","SpeechGestureMatch","../RequiredFiles/videos/NeinKopfNein_f_no_sound.mp4","Ist der Ball in der blauen Box?","Green","Blue","F","negation","na","gesture","na","HeadShake","female","speech-gesture","1280","720","chrome","60.08","Windows 10","19","female","right","Sat Oct 12 2024 16:04:19 GMT+0200 (közép-európai nyári idő)","3","65","1","1728743953433"
"1326","j","SpeechGestureMatch","../RequiredFiles/videos/NeinKopfNein_m.mp4","Ist der Ball in der grünen Box?","Green","Blue","J","negation","match","gesture","no","HeadShake","male","speech-gesture","1280","720","chrome","60.08","Windows 10","19","female","right","Sat Oct 12 2024 16:04:26 GMT+0200 (közép-európai nyári idő)","3","66","0","1728743953433"
"878","f","SpeechGestureMatch","../RequiredFiles/videos/NeinKopfJa_m.mp4","Ist der Ball in der blauen Box?","Blue","Green","F","affirmation","mismatch","gesture","no","HeadNod","male","speech-gesture","1280","720","chrome","60.08","Windows 10","19","female","right","Sat Oct 12 2024 16:04:32 GMT+0200 (közép-európai nyári idő)","3","67","0","1728743953433"
"735","j","SpeechGestureMatch","../RequiredFiles/videos/JaKopfNein_m.mp4","Ist der Ball in der blauen Box?","Blue","Green","J","negation","mismatch","gesture","yes","HeadShake","male","speech-gesture","1280","720","chrome","60.08","Windows 10","19","female","right","Sat Oct 12 2024 16:04:39 GMT+0200 (közép-európai nyári idő)","3","68","0","1728743953433"
"892","j","SpeechGestureMatch","../RequiredFiles/videos/NeinKopfJa_m.mp4","Ist der Ball in der blauen Box?","Green","Blue","J","affirmation","mismatch","gesture","no","HeadNod","male","speech-gesture","1280","720","chrome","60.08","Windows 10","19","female","right","Sat Oct 12 2024 16:04:45 GMT+0200 (közép-európai nyári idő)","3","69","0","1728743953433"
"726","j","SpeechGestureMatch","../RequiredFiles/videos/NeinKopfJa_m.mp4","Ist der Ball in der grünen Box?","Blue","Green","J","affirmation","mismatch","gesture","no","HeadNod","male","speech-gesture","1280","720","chrome","60.08","Windows 10","19","female","right","Sat Oct 12 2024 16:04:51 GMT+0200 (közép-európai nyári idő)","3","70","0","1728743953433"
"946","j","SpeechGestureMatch","../RequiredFiles/videos/NeinKopfNein_f.mp4","Ist der Ball in der grünen Box?","Green","Blue","J","negation","match","gesture","no","HeadShake","female","speech-gesture","1280","720","chrome","60.08","Windows 10","19","female","right","Sat Oct 12 2024 16:04:58 GMT+0200 (közép-európai nyári idő)","3","71","0","1728743953433"
"834","f","SpeechGestureMatch","../RequiredFiles/videos/JaKopfNein_m.mp4","Ist der Ball in der blauen Box?","Green","Blue","F","negation","mismatch","gesture","yes","HeadShake","male","speech-gesture","1280","720","chrome","60.08","Windows 10","19","female","right","Sat Oct 12 2024 16:05:04 GMT+0200 (közép-európai nyári idő)","3","72","0","1728743953433"
"841","f","SpeechGestureMatch","../RequiredFiles/videos/NeinKopfNein_m.mp4","Ist der Ball in der blauen Box?","Green","Blue","F","negation","match","gesture","no","HeadShake","male","speech-gesture","1280","720","chrome","60.08","Windows 10","19","female","right","Sat Oct 12 2024 16:05:11 GMT+0200 (közép-európai nyári idő)","3","73","0","1728743953433"
"746","j","SpeechGestureMatch","../RequiredFiles/videos/JaKopfNein_f_no_sound.mp4","Ist der Ball in der grünen Box?","Green","Blue","J","negation","na","gesture","na","HeadShake","female","speech-gesture","1280","720","chrome","60.08","Windows 10","19","female","right","Sat Oct 12 2024 16:05:17 GMT+0200 (közép-európai nyári idő)","3","74","0","1728743953433"
"648","f","SpeechGestureMatch","../RequiredFiles/videos/JaKopfNein_f_no_sound.mp4","Ist der Ball in der blauen Box?","Green","Blue","F","negation","na","gesture","na","HeadShake","female","speech-gesture","1280","720","chrome","60.08","Windows 10","19","female","right","Sat Oct 12 2024 16:05:23 GMT+0200 (közép-európai nyári idő)","3","75","0","1728743953433"
"1121","j","SpeechGestureMatch","../RequiredFiles/videos/JaKopfNein_m.mp4","Ist der Ball in der blauen Box?","Blue","Green","J","negation","mismatch","gesture","yes","HeadShake","male","speech-gesture","1280","720","chrome","60.08","Windows 10","19","female","right","Sat Oct 12 2024 16:05:30 GMT+0200 (közép-európai nyári idő)","3","76","0","1728743953433"
"788","f","SpeechGestureMatch","../RequiredFiles/videos/JaKopfJa_f_no_sound.mp4","Ist der Ball in der grünen Box?","Green","Blue","F","affirmation","na","gesture","na","HeadNod","female","speech-gesture","1280","720","chrome","60.08","Windows 10","19","female","right","Sat Oct 12 2024 16:05:36 GMT+0200 (közép-európai nyári idő)","3","77","0","1728743953433"
"887","f","SpeechGestureMatch","../RequiredFiles/videos/JaKopfNein_f.mp4","Ist der Ball in der blauen Box?","Green","Blue","F","negation","mismatch","gesture","yes","HeadShake","female","speech-gesture","1280","720","chrome","60.08","Windows 10","19","female","right","Sat Oct 12 2024 16:05:42 GMT+0200 (közép-európai nyári idő)","3","78","0","1728743953433"
"859","f","SpeechGestureMatch","../RequiredFiles/videos/JaKopfNein_m_no_sound.mp4","Ist der Ball in der blauen Box?","Green","Blue","F","negation","na","gesture","na","HeadShake","male","speech-gesture","1280","720","chrome","60.08","Windows 10","19","female","right","Sat Oct 12 2024 16:05:49 GMT+0200 (közép-európai nyári idő)","3","79","0","1728743953433"
"928","f","SpeechGestureMatch","../RequiredFiles/videos/NeinKopfJa_f.mp4","Ist der Ball in der blauen Box?","Blue","Green","F","affirmation","mismatch","gesture","no","HeadNod","female","speech-gesture","1280","720","chrome","60.08","Windows 10","19","female","right","Sat Oct 12 2024 16:05:55 GMT+0200 (közép-európai nyári idő)","3","80","0","1728743953433"
"885","f","SpeechGestureMatch","../RequiredFiles/videos/NeinKopfNein_f.mp4","Ist der Ball in der grünen Box?","Blue","Green","F","negation","match","gesture","no","HeadShake","female","speech-gesture","1280","720","chrome","60.08","Windows 10","19","female","right","Sat Oct 12 2024 16:06:02 GMT+0200 (közép-európai nyári idő)","3","81","0","1728743953433"
"847","j","SpeechGestureMatch","../RequiredFiles/videos/NeinKopfNein_f.mp4","Ist der Ball in der blauen Box?","Blue","Green","J","negation","match","gesture","no","HeadShake","female","speech-gesture","1280","720","chrome","60.08","Windows 10","19","female","right","Sat Oct 12 2024 16:06:08 GMT+0200 (közép-európai nyári idő)","3","82","0","1728743953433"
"714","j","SpeechGestureMatch","../RequiredFiles/videos/JaKopfNein_f_no_sound.mp4","Ist der Ball in der blauen Box?","Blue","Green","J","negation","na","gesture","na","HeadShake","female","speech-gesture","1280","720","chrome","60.08","Windows 10","19","female","right","Sat Oct 12 2024 16:06:14 GMT+0200 (közép-európai nyári idő)","3","83","0","1728743953433"
"673","j","SpeechGestureMatch","../RequiredFiles/videos/NeinKopfNein_m.mp4","Ist der Ball in der grünen Box?","Green","Blue","J","negation","match","gesture","no","HeadShake","male","speech-gesture","1280","720","chrome","60.08","Windows 10","19","female","right","Sat Oct 12 2024 16:06:21 GMT+0200 (közép-európai nyári idő)","3","84","0","1728743953433"
"720","f","SpeechGestureMatch","../RequiredFiles/videos/JaKopfNein_m.mp4","Ist der Ball in der blauen Box?","Green","Blue","F","negation","mismatch","gesture","yes","HeadShake","male","speech-gesture","1280","720","chrome","60.08","Windows 10","19","female","right","Sat Oct 12 2024 16:06:27 GMT+0200 (közép-európai nyári idő)","3","85","0","1728743953433"
"827","f","SpeechGestureMatch","../RequiredFiles/videos/JaKopfNein_f.mp4","Ist der Ball in der grünen Box?","Blue","Green","F","negation","mismatch","gesture","yes","HeadShake","female","speech-gesture","1280","720","chrome","60.08","Windows 10","19","female","right","Sat Oct 12 2024 16:06:33 GMT+0200 (közép-európai nyári idő)","3","86","0","1728743953433"
"708","f","SpeechGestureMatch","../RequiredFiles/videos/NeinKopfJa_f.mp4","Ist der Ball in der grünen Box?","Blue","Green","J","affirmation","mismatch","gesture","no","HeadNod","female","speech-gesture","1280","720","chrome","60.08","Windows 10","19","female","right","Sat Oct 12 2024 16:06:39 GMT+0200 (közép-európai nyári idő)","3","87","1","1728743953433"
